,index,demo_encoding_loop.thisTrialN,DemoImage,DemoCorrect,demo_encoding_response.rt,demo_encoding_response.keys,index,demo_test_response.keys,demo_test_response.corr,demo_test_response.rt,demo_test_loop.thisTrialN,DemoImage1,DemoImage2,DemoCorrectTest,subject
0,4,0.0,flower1.jpg,,,,12.0,left,1.0,2.9235,0.0,flower1.jpg,flower1_pair.jpg,left,A10FSZLB75VZ14_2022-10-18_09h27.25.369.csv
1,5,1.0,flower2.jpg,,,,13.0,right,1.0,2.962099999,1.0,flower2_pair.jpg,flower2.jpg,right,A10FSZLB75VZ14_2022-10-18_09h27.25.369.csv
2,6,2.0,left.jpg,left,1.135,left,14.0,left,1.0,1.630099999,2.0,flower3.jpg,flower3_pair.jpg,left,A10FSZLB75VZ14_2022-10-18_09h27.25.369.csv
3,7,3.0,flower3.jpg,,,,15.0,left,1.0,1.3609,3.0,flower4.jpg,flower4_pair.jpg,left,A10FSZLB75VZ14_2022-10-18_09h27.25.369.csv
4,8,4.0,flower4.jpg,,,,16.0,right,1.0,1.582,4.0,flower5_pair.jpg,flower5.jpg,right,A10FSZLB75VZ14_2022-10-18_09h27.25.369.csv
5,9,5.0,flower5.jpg,,,,17.0,left,1.0,1.6818,5.0,flower6.jpg,flower6_pair.jpg,left,A10FSZLB75VZ14_2022-10-18_09h27.25.369.csv
6,10,6.0,flower6.jpg,,,,,,,,,,,,A10FSZLB75VZ14_2022-10-18_09h27.25.369.csv
7,4,0.0,flower1.jpg,,,,12.0,left,1.0,9.4174,0.0,flower1.jpg,flower1_pair.jpg,left,AXTIQHZSLC0FE_2022-10-18_08h05.30.739.csv
8,5,1.0,flower2.jpg,,,,13.0,left,0.0,3.1404,1.0,flower2_pair.jpg,flower2.jpg,right,AXTIQHZSLC0FE_2022-10-18_08h05.30.739.csv
9,6,2.0,left.jpg,left,2.7211,left,14.0,left,1.0,3.2627,2.0,flower3.jpg,flower3_pair.jpg,left,AXTIQHZSLC0FE_2022-10-18_08h05.30.739.csv
10,7,3.0,flower3.jpg,,,,15.0,right,0.0,3.0967,3.0,flower4.jpg,flower4_pair.jpg,left,AXTIQHZSLC0FE_2022-10-18_08h05.30.739.csv
11,8,4.0,flower4.jpg,,,,16.0,right,1.0,1.8699,4.0,flower5_pair.jpg,flower5.jpg,right,AXTIQHZSLC0FE_2022-10-18_08h05.30.739.csv
12,9,5.0,flower5.jpg,,,,17.0,left,1.0,1.968,5.0,flower6.jpg,flower6_pair.jpg,left,AXTIQHZSLC0FE_2022-10-18_08h05.30.739.csv
13,10,6.0,flower6.jpg,,,,,,,,,,,,AXTIQHZSLC0FE_2022-10-18_08h05.30.739.csv
14,4,0.0,flower1.jpg,,,,12.0,right,0.0,2.7702,0.0,flower1.jpg,flower1_pair.jpg,left,ARIWYNIH12MLF_2022-10-18_08h12.13.730.csv
15,5,1.0,flower2.jpg,,,,13.0,right,1.0,2.6809,1.0,flower2_pair.jpg,flower2.jpg,right,ARIWYNIH12MLF_2022-10-18_08h12.13.730.csv
16,6,2.0,left.jpg,left,2.0982,left,14.0,left,1.0,1.1562,2.0,flower3.jpg,flower3_pair.jpg,left,ARIWYNIH12MLF_2022-10-18_08h12.13.730.csv
17,7,3.0,flower3.jpg,,,,15.0,left,1.0,2.5341,3.0,flower4.jpg,flower4_pair.jpg,left,ARIWYNIH12MLF_2022-10-18_08h12.13.730.csv
18,8,4.0,flower4.jpg,,,,16.0,right,1.0,2.0081,4.0,flower5_pair.jpg,flower5.jpg,right,ARIWYNIH12MLF_2022-10-18_08h12.13.730.csv
19,9,5.0,flower5.jpg,,,,17.0,left,1.0,2.1509,5.0,flower6.jpg,flower6_pair.jpg,left,ARIWYNIH12MLF_2022-10-18_08h12.13.730.csv
20,10,6.0,flower6.jpg,,,,,,,,,,,,ARIWYNIH12MLF_2022-10-18_08h12.13.730.csv
21,4,0.0,flower1.jpg,,,,12.0,left,1.0,1.8729,0.0,flower1.jpg,flower1_pair.jpg,left,A3J4YYW1M62T39_2022-10-18_08h33.40.910.csv
22,5,1.0,flower2.jpg,,,,13.0,right,1.0,2.0339,1.0,flower2_pair.jpg,flower2.jpg,right,A3J4YYW1M62T39_2022-10-18_08h33.40.910.csv
23,6,2.0,left.jpg,left,0.9962,left,14.0,left,1.0,1.4436,2.0,flower3.jpg,flower3_pair.jpg,left,A3J4YYW1M62T39_2022-10-18_08h33.40.910.csv
24,7,3.0,flower3.jpg,,,,15.0,right,0.0,1.9016,3.0,flower4.jpg,flower4_pair.jpg,left,A3J4YYW1M62T39_2022-10-18_08h33.40.910.csv
25,8,4.0,flower4.jpg,,,,16.0,right,1.0,1.6525,4.0,flower5_pair.jpg,flower5.jpg,right,A3J4YYW1M62T39_2022-10-18_08h33.40.910.csv
26,9,5.0,flower5.jpg,,,,17.0,left,1.0,1.6694,5.0,flower6.jpg,flower6_pair.jpg,left,A3J4YYW1M62T39_2022-10-18_08h33.40.910.csv
27,10,6.0,flower6.jpg,,,,,,,,,,,,A3J4YYW1M62T39_2022-10-18_08h33.40.910.csv
28,4,0.0,flower1.jpg,,,,12.0,left,1.0,2.3216,0.0,flower1.jpg,flower1_pair.jpg,left,A34Z9LMI089LMT_2022-10-18_07h03.31.586.csv
29,5,1.0,flower2.jpg,,,,13.0,left,0.0,3.0241,1.0,flower2_pair.jpg,flower2.jpg,right,A34Z9LMI089LMT_2022-10-18_07h03.31.586.csv
30,6,2.0,left.jpg,left,0.9234,left,14.0,left,1.0,2.1257,2.0,flower3.jpg,flower3_pair.jpg,left,A34Z9LMI089LMT_2022-10-18_07h03.31.586.csv
31,7,3.0,flower3.jpg,,,,15.0,left,1.0,1.6763,3.0,flower4.jpg,flower4_pair.jpg,left,A34Z9LMI089LMT_2022-10-18_07h03.31.586.csv
32,8,4.0,flower4.jpg,,,,16.0,right,1.0,1.5285,4.0,flower5_pair.jpg,flower5.jpg,right,A34Z9LMI089LMT_2022-10-18_07h03.31.586.csv
33,9,5.0,flower5.jpg,,,,17.0,left,1.0,1.5845,5.0,flower6.jpg,flower6_pair.jpg,left,A34Z9LMI089LMT_2022-10-18_07h03.31.586.csv
34,10,6.0,flower6.jpg,,,,,,,,,,,,A34Z9LMI089LMT_2022-10-18_07h03.31.586.csv
35,4,0.0,flower1.jpg,,,,12.0,left,1.0,1.7512,0.0,flower1.jpg,flower1_pair.jpg,left,AZ5KAKZR0CVR_2022-10-18_10h46.54.594.csv
36,5,1.0,flower2.jpg,,,,13.0,right,1.0,1.6255,1.0,flower2_pair.jpg,flower2.jpg,right,AZ5KAKZR0CVR_2022-10-18_10h46.54.594.csv
37,6,2.0,left.jpg,left,1.3167,left,14.0,left,1.0,1.3315,2.0,flower3.jpg,flower3_pair.jpg,left,AZ5KAKZR0CVR_2022-10-18_10h46.54.594.csv
38,7,3.0,flower3.jpg,,,,15.0,right,0.0,1.3148,3.0,flower4.jpg,flower4_pair.jpg,left,AZ5KAKZR0CVR_2022-10-18_10h46.54.594.csv
39,8,4.0,flower4.jpg,,,,16.0,right,1.0,2.4068,4.0,flower5_pair.jpg,flower5.jpg,right,AZ5KAKZR0CVR_2022-10-18_10h46.54.594.csv
40,9,5.0,flower5.jpg,,,,17.0,right,0.0,1.5262,5.0,flower6.jpg,flower6_pair.jpg,left,AZ5KAKZR0CVR_2022-10-18_10h46.54.594.csv
41,10,6.0,flower6.jpg,,,,,,,,,,,,AZ5KAKZR0CVR_2022-10-18_10h46.54.594.csv
42,4,0.0,flower1.jpg,,,,12.0,left,1.0,7.967,0.0,flower1.jpg,flower1_pair.jpg,left,A2P0EZBOOTBSAL_2022-10-18_08h31.22.807.csv
43,5,1.0,flower2.jpg,,,,13.0,left,0.0,10.503,1.0,flower2_pair.jpg,flower2.jpg,right,A2P0EZBOOTBSAL_2022-10-18_08h31.22.807.csv
44,6,2.0,left.jpg,left,1.27,left,14.0,left,1.0,10.547,2.0,flower3.jpg,flower3_pair.jpg,left,A2P0EZBOOTBSAL_2022-10-18_08h31.22.807.csv
45,7,3.0,flower3.jpg,,,,15.0,left,1.0,3.3,3.0,flower4.jpg,flower4_pair.jpg,left,A2P0EZBOOTBSAL_2022-10-18_08h31.22.807.csv
46,8,4.0,flower4.jpg,,,,16.0,right,1.0,2.594,4.0,flower5_pair.jpg,flower5.jpg,right,A2P0EZBOOTBSAL_2022-10-18_08h31.22.807.csv
47,9,5.0,flower5.jpg,,,,17.0,left,1.0,3.452,5.0,flower6.jpg,flower6_pair.jpg,left,A2P0EZBOOTBSAL_2022-10-18_08h31.22.807.csv
48,10,6.0,flower6.jpg,,,,,,,,,,,,A2P0EZBOOTBSAL_2022-10-18_08h31.22.807.csv
49,4,0.0,flower1.jpg,,,,12.0,right,0.0,2.8258,0.0,flower1.jpg,flower1_pair.jpg,left,AH7Z2M3KSQ4DW_2022-10-18_12h28.46.444.csv
50,5,1.0,flower2.jpg,,,,13.0,right,1.0,0.1713,1.0,flower2_pair.jpg,flower2.jpg,right,AH7Z2M3KSQ4DW_2022-10-18_12h28.46.444.csv
51,6,2.0,left.jpg,left,0.6923,left,14.0,left,1.0,1.0911,2.0,flower3.jpg,flower3_pair.jpg,left,AH7Z2M3KSQ4DW_2022-10-18_12h28.46.444.csv
52,7,3.0,flower3.jpg,,,,15.0,right,0.0,2.2729,3.0,flower4.jpg,flower4_pair.jpg,left,AH7Z2M3KSQ4DW_2022-10-18_12h28.46.444.csv
53,8,4.0,flower4.jpg,,,,16.0,left,0.0,2.2832,4.0,flower5_pair.jpg,flower5.jpg,right,AH7Z2M3KSQ4DW_2022-10-18_12h28.46.444.csv
54,9,5.0,flower5.jpg,,,,17.0,left,1.0,1.4379,5.0,flower6.jpg,flower6_pair.jpg,left,AH7Z2M3KSQ4DW_2022-10-18_12h28.46.444.csv
55,10,6.0,flower6.jpg,,,,,,,,,,,,AH7Z2M3KSQ4DW_2022-10-18_12h28.46.444.csv
56,4,0.0,flower1.jpg,,,,12.0,left,1.0,3.2831,0.0,flower1.jpg,flower1_pair.jpg,left,A3VG8YYPGF02CA_2022-10-18_20h50.07.967.csv
57,5,1.0,flower2.jpg,,,,13.0,right,1.0,0.9737,1.0,flower2_pair.jpg,flower2.jpg,right,A3VG8YYPGF02CA_2022-10-18_20h50.07.967.csv
58,6,2.0,left.jpg,left,1.509,left,14.0,left,1.0,1.1752,2.0,flower3.jpg,flower3_pair.jpg,left,A3VG8YYPGF02CA_2022-10-18_20h50.07.967.csv
59,7,3.0,flower3.jpg,,,,15.0,right,0.0,0.8433,3.0,flower4.jpg,flower4_pair.jpg,left,A3VG8YYPGF02CA_2022-10-18_20h50.07.967.csv
60,8,4.0,flower4.jpg,,,,16.0,left,0.0,1.4623,4.0,flower5_pair.jpg,flower5.jpg,right,A3VG8YYPGF02CA_2022-10-18_20h50.07.967.csv
61,9,5.0,flower5.jpg,,,,17.0,right,0.0,1.2251,5.0,flower6.jpg,flower6_pair.jpg,left,A3VG8YYPGF02CA_2022-10-18_20h50.07.967.csv
62,10,6.0,flower6.jpg,,,,,,,,,,,,A3VG8YYPGF02CA_2022-10-18_20h50.07.967.csv
63,4,0.0,flower1.jpg,,,,12.0,left,1.0,1.4665,0.0,flower1.jpg,flower1_pair.jpg,left,A37R0JYAB3QEX9_2022-10-18_08h02.39.722.csv
64,5,1.0,flower2.jpg,,,,13.0,left,0.0,1.9325,1.0,flower2_pair.jpg,flower2.jpg,right,A37R0JYAB3QEX9_2022-10-18_08h02.39.722.csv
65,6,2.0,left.jpg,left,0.6404,left,14.0,left,1.0,1.4046,2.0,flower3.jpg,flower3_pair.jpg,left,A37R0JYAB3QEX9_2022-10-18_08h02.39.722.csv
66,7,3.0,flower3.jpg,,,,15.0,left,1.0,1.5894,3.0,flower4.jpg,flower4_pair.jpg,left,A37R0JYAB3QEX9_2022-10-18_08h02.39.722.csv
67,8,4.0,flower4.jpg,,,,16.0,right,1.0,1.2531,4.0,flower5_pair.jpg,flower5.jpg,right,A37R0JYAB3QEX9_2022-10-18_08h02.39.722.csv
68,9,5.0,flower5.jpg,,,,17.0,left,1.0,1.771,5.0,flower6.jpg,flower6_pair.jpg,left,A37R0JYAB3QEX9_2022-10-18_08h02.39.722.csv
69,10,6.0,flower6.jpg,,,,,,,,,,,,A37R0JYAB3QEX9_2022-10-18_08h02.39.722.csv
70,4,0.0,flower1.jpg,,,,12.0,right,0.0,2.7984,0.0,flower1.jpg,flower1_pair.jpg,left,A34H7SANVXDBFA_2022-10-18_09h55.18.742.csv
71,5,1.0,flower2.jpg,,,,13.0,right,1.0,2.1063,1.0,flower2_pair.jpg,flower2.jpg,right,A34H7SANVXDBFA_2022-10-18_09h55.18.742.csv
72,6,2.0,left.jpg,left,1.2363,left,14.0,left,1.0,3.3548,2.0,flower3.jpg,flower3_pair.jpg,left,A34H7SANVXDBFA_2022-10-18_09h55.18.742.csv
73,7,3.0,flower3.jpg,,,,15.0,left,1.0,2.1756,3.0,flower4.jpg,flower4_pair.jpg,left,A34H7SANVXDBFA_2022-10-18_09h55.18.742.csv
74,8,4.0,flower4.jpg,,,,16.0,right,1.0,4.1971,4.0,flower5_pair.jpg,flower5.jpg,right,A34H7SANVXDBFA_2022-10-18_09h55.18.742.csv
75,9,5.0,flower5.jpg,,,,17.0,left,1.0,2.0263,5.0,flower6.jpg,flower6_pair.jpg,left,A34H7SANVXDBFA_2022-10-18_09h55.18.742.csv
76,10,6.0,flower6.jpg,,,,,,,,,,,,A34H7SANVXDBFA_2022-10-18_09h55.18.742.csv
77,4,0.0,flower1.jpg,,,,12.0,right,0.0,0.1842,0.0,flower1.jpg,flower1_pair.jpg,left,A2EZ5YR6PJ6XX0_2022-10-18_09h54.44.998.csv
78,5,1.0,flower2.jpg,,,,13.0,left,0.0,0.5069,1.0,flower2_pair.jpg,flower2.jpg,right,A2EZ5YR6PJ6XX0_2022-10-18_09h54.44.998.csv
79,6,2.0,left.jpg,left,0.8113,left,14.0,right,0.0,0.0053,2.0,flower3.jpg,flower3_pair.jpg,left,A2EZ5YR6PJ6XX0_2022-10-18_09h54.44.998.csv
80,7,3.0,flower3.jpg,,,,15.0,right,0.0,0.5061,3.0,flower4.jpg,flower4_pair.jpg,left,A2EZ5YR6PJ6XX0_2022-10-18_09h54.44.998.csv
81,8,4.0,flower4.jpg,,,,16.0,left,0.0,0.0931,4.0,flower5_pair.jpg,flower5.jpg,right,A2EZ5YR6PJ6XX0_2022-10-18_09h54.44.998.csv
82,9,5.0,flower5.jpg,,,,17.0,right,0.0,0.3187,5.0,flower6.jpg,flower6_pair.jpg,left,A2EZ5YR6PJ6XX0_2022-10-18_09h54.44.998.csv
83,10,6.0,flower6.jpg,,,,,,,,,,,,A2EZ5YR6PJ6XX0_2022-10-18_09h54.44.998.csv
84,4,0.0,flower1.jpg,,,,12.0,right,0.0,19.857,0.0,flower1.jpg,flower1_pair.jpg,left,A12NT768CR36E5_2022-10-18_09h39.25.114.csv
85,5,1.0,flower2.jpg,,,,13.0,left,0.0,0.384,1.0,flower2_pair.jpg,flower2.jpg,right,A12NT768CR36E5_2022-10-18_09h39.25.114.csv
86,6,2.0,left.jpg,left,2.127,left,14.0,left,1.0,4.347,2.0,flower3.jpg,flower3_pair.jpg,left,A12NT768CR36E5_2022-10-18_09h39.25.114.csv
87,7,3.0,flower3.jpg,,,,15.0,left,1.0,2.466,3.0,flower4.jpg,flower4_pair.jpg,left,A12NT768CR36E5_2022-10-18_09h39.25.114.csv
88,8,4.0,flower4.jpg,,,,16.0,right,1.0,1.722,4.0,flower5_pair.jpg,flower5.jpg,right,A12NT768CR36E5_2022-10-18_09h39.25.114.csv
89,9,5.0,flower5.jpg,,,,17.0,left,1.0,3.008,5.0,flower6.jpg,flower6_pair.jpg,left,A12NT768CR36E5_2022-10-18_09h39.25.114.csv
90,10,6.0,flower6.jpg,,,,,,,,,,,,A12NT768CR36E5_2022-10-18_09h39.25.114.csv
91,4,0.0,flower1.jpg,,,,12.0,left,1.0,5.442,0.0,flower1.jpg,flower1_pair.jpg,left,A1UFS2BDTPT5DX_2022-10-18_08h20.20.570.csv
92,5,1.0,flower2.jpg,,,,13.0,left,0.0,3.889,1.0,flower2_pair.jpg,flower2.jpg,right,A1UFS2BDTPT5DX_2022-10-18_08h20.20.570.csv
93,6,2.0,left.jpg,left,1.782,left,14.0,right,0.0,1.983,2.0,flower3.jpg,flower3_pair.jpg,left,A1UFS2BDTPT5DX_2022-10-18_08h20.20.570.csv
94,7,3.0,flower3.jpg,,,,15.0,left,1.0,2.494,3.0,flower4.jpg,flower4_pair.jpg,left,A1UFS2BDTPT5DX_2022-10-18_08h20.20.570.csv
95,8,4.0,flower4.jpg,,,,16.0,left,0.0,3.72,4.0,flower5_pair.jpg,flower5.jpg,right,A1UFS2BDTPT5DX_2022-10-18_08h20.20.570.csv
96,9,5.0,flower5.jpg,,,,17.0,right,0.0,1.881,5.0,flower6.jpg,flower6_pair.jpg,left,A1UFS2BDTPT5DX_2022-10-18_08h20.20.570.csv
97,10,6.0,flower6.jpg,,,,,,,,,,,,A1UFS2BDTPT5DX_2022-10-18_08h20.20.570.csv
98,4,0.0,flower1.jpg,,,,12.0,right,0.0,16.745,0.0,flower1.jpg,flower1_pair.jpg,left,A4VUQ6627RJX8_2022-10-18_06h07.03.799.csv
99,5,1.0,flower2.jpg,,,,13.0,left,0.0,4.357,1.0,flower2_pair.jpg,flower2.jpg,right,A4VUQ6627RJX8_2022-10-18_06h07.03.799.csv
100,6,2.0,left.jpg,left,2.275,left,14.0,left,1.0,3.02,2.0,flower3.jpg,flower3_pair.jpg,left,A4VUQ6627RJX8_2022-10-18_06h07.03.799.csv
101,7,3.0,flower3.jpg,,,,15.0,right,0.0,4.857,3.0,flower4.jpg,flower4_pair.jpg,left,A4VUQ6627RJX8_2022-10-18_06h07.03.799.csv
102,8,4.0,flower4.jpg,,,,16.0,right,1.0,0.006,4.0,flower5_pair.jpg,flower5.jpg,right,A4VUQ6627RJX8_2022-10-18_06h07.03.799.csv
103,9,5.0,flower5.jpg,,,,17.0,left,1.0,2.521,5.0,flower6.jpg,flower6_pair.jpg,left,A4VUQ6627RJX8_2022-10-18_06h07.03.799.csv
104,10,6.0,flower6.jpg,,,,,,,,,,,,A4VUQ6627RJX8_2022-10-18_06h07.03.799.csv
105,4,0.0,flower1.jpg,,,,12.0,right,0.0,2.1374,0.0,flower1.jpg,flower1_pair.jpg,left,A222GZB608T1B8_2022-10-18_09h27.18.042.csv
106,5,1.0,flower2.jpg,,,,13.0,left,0.0,2.1586,1.0,flower2_pair.jpg,flower2.jpg,right,A222GZB608T1B8_2022-10-18_09h27.18.042.csv
107,6,2.0,left.jpg,left,2.1912,left,14.0,left,1.0,1.8452,2.0,flower3.jpg,flower3_pair.jpg,left,A222GZB608T1B8_2022-10-18_09h27.18.042.csv
108,7,3.0,flower3.jpg,,,,15.0,right,0.0,2.2689,3.0,flower4.jpg,flower4_pair.jpg,left,A222GZB608T1B8_2022-10-18_09h27.18.042.csv
109,8,4.0,flower4.jpg,,,,16.0,right,1.0,1.7071,4.0,flower5_pair.jpg,flower5.jpg,right,A222GZB608T1B8_2022-10-18_09h27.18.042.csv
110,9,5.0,flower5.jpg,,,,17.0,left,1.0,2.4917,5.0,flower6.jpg,flower6_pair.jpg,left,A222GZB608T1B8_2022-10-18_09h27.18.042.csv
111,10,6.0,flower6.jpg,,,,,,,,,,,,A222GZB608T1B8_2022-10-18_09h27.18.042.csv
112,4,0.0,flower1.jpg,,,,12.0,left,1.0,16.6915,0.0,flower1.jpg,flower1_pair.jpg,left,A3TH6B3RUD1MUQ_2022-10-18_08h44.58.741.csv
113,5,1.0,flower2.jpg,,,,13.0,right,1.0,10.7506,1.0,flower2_pair.jpg,flower2.jpg,right,A3TH6B3RUD1MUQ_2022-10-18_08h44.58.741.csv
114,6,2.0,left.jpg,left,1.092,left,14.0,left,1.0,19.5254,2.0,flower3.jpg,flower3_pair.jpg,left,A3TH6B3RUD1MUQ_2022-10-18_08h44.58.741.csv
115,7,3.0,flower3.jpg,,,,15.0,left,1.0,0.8586,3.0,flower4.jpg,flower4_pair.jpg,left,A3TH6B3RUD1MUQ_2022-10-18_08h44.58.741.csv
116,8,4.0,flower4.jpg,,,,16.0,left,0.0,1.9467,4.0,flower5_pair.jpg,flower5.jpg,right,A3TH6B3RUD1MUQ_2022-10-18_08h44.58.741.csv
117,9,5.0,flower5.jpg,,,,17.0,left,1.0,14.9005,5.0,flower6.jpg,flower6_pair.jpg,left,A3TH6B3RUD1MUQ_2022-10-18_08h44.58.741.csv
118,10,6.0,flower6.jpg,,,,,,,,,,,,A3TH6B3RUD1MUQ_2022-10-18_08h44.58.741.csv
119,4,0.0,flower1.jpg,,,,12.0,left,1.0,4.183,0.0,flower1.jpg,flower1_pair.jpg,left,A2HJKL3641S7R_2022-10-18_08h51.49.434.csv
120,5,1.0,flower2.jpg,,,,13.0,right,1.0,2.882,1.0,flower2_pair.jpg,flower2.jpg,right,A2HJKL3641S7R_2022-10-18_08h51.49.434.csv
121,6,2.0,left.jpg,left,2.239,left,14.0,left,1.0,2.889,2.0,flower3.jpg,flower3_pair.jpg,left,A2HJKL3641S7R_2022-10-18_08h51.49.434.csv
122,7,3.0,flower3.jpg,,,,15.0,left,1.0,3.584,3.0,flower4.jpg,flower4_pair.jpg,left,A2HJKL3641S7R_2022-10-18_08h51.49.434.csv
123,8,4.0,flower4.jpg,,,,16.0,right,1.0,2.171,4.0,flower5_pair.jpg,flower5.jpg,right,A2HJKL3641S7R_2022-10-18_08h51.49.434.csv
124,9,5.0,flower5.jpg,,,,17.0,left,1.0,2.219,5.0,flower6.jpg,flower6_pair.jpg,left,A2HJKL3641S7R_2022-10-18_08h51.49.434.csv
125,10,6.0,flower6.jpg,,,,,,,,,,,,A2HJKL3641S7R_2022-10-18_08h51.49.434.csv
126,4,0.0,flower1.jpg,,,,12.0,left,1.0,2.3562,0.0,flower1.jpg,flower1_pair.jpg,left,AILT4SWETTAUL_2022-10-18_08h09.46.299.csv
127,5,1.0,flower2.jpg,,,,13.0,right,1.0,2.0671,1.0,flower2_pair.jpg,flower2.jpg,right,AILT4SWETTAUL_2022-10-18_08h09.46.299.csv
128,6,2.0,left.jpg,left,1.2235,left,14.0,left,1.0,2.0081,2.0,flower3.jpg,flower3_pair.jpg,left,AILT4SWETTAUL_2022-10-18_08h09.46.299.csv
129,7,3.0,flower3.jpg,,,,15.0,left,1.0,2.0431,3.0,flower4.jpg,flower4_pair.jpg,left,AILT4SWETTAUL_2022-10-18_08h09.46.299.csv
130,8,4.0,flower4.jpg,,,,16.0,right,1.0,1.9769,4.0,flower5_pair.jpg,flower5.jpg,right,AILT4SWETTAUL_2022-10-18_08h09.46.299.csv
131,9,5.0,flower5.jpg,,,,17.0,left,1.0,2.0244,5.0,flower6.jpg,flower6_pair.jpg,left,AILT4SWETTAUL_2022-10-18_08h09.46.299.csv
132,10,6.0,flower6.jpg,,,,,,,,,,,,AILT4SWETTAUL_2022-10-18_08h09.46.299.csv
133,4,0.0,flower1.jpg,,,,12.0,right,0.0,2.034299999,0.0,flower1.jpg,flower1_pair.jpg,left,A2TC7B46WQ695O_2022-10-18_09h13.52.957.csv
134,5,1.0,flower2.jpg,,,,13.0,left,0.0,1.026,1.0,flower2_pair.jpg,flower2.jpg,right,A2TC7B46WQ695O_2022-10-18_09h13.52.957.csv
135,6,2.0,left.jpg,left,0.0102,left,14.0,right,0.0,0.6558,2.0,flower3.jpg,flower3_pair.jpg,left,A2TC7B46WQ695O_2022-10-18_09h13.52.957.csv
136,7,3.0,flower3.jpg,,,,15.0,left,1.0,0.6502,3.0,flower4.jpg,flower4_pair.jpg,left,A2TC7B46WQ695O_2022-10-18_09h13.52.957.csv
137,8,4.0,flower4.jpg,,,,16.0,right,1.0,0.5169,4.0,flower5_pair.jpg,flower5.jpg,right,A2TC7B46WQ695O_2022-10-18_09h13.52.957.csv
138,9,5.0,flower5.jpg,,,,17.0,left,1.0,0.5438,5.0,flower6.jpg,flower6_pair.jpg,left,A2TC7B46WQ695O_2022-10-18_09h13.52.957.csv
139,10,6.0,flower6.jpg,,,,,,,,,,,,A2TC7B46WQ695O_2022-10-18_09h13.52.957.csv
140,4,0.0,flower1.jpg,,,,12.0,left,1.0,1.401400001,0.0,flower1.jpg,flower1_pair.jpg,left,ACR6012D868PP_2022-10-18_08h48.54.805.csv
141,5,1.0,flower2.jpg,,,,13.0,right,1.0,1.4996,1.0,flower2_pair.jpg,flower2.jpg,right,ACR6012D868PP_2022-10-18_08h48.54.805.csv
142,6,2.0,left.jpg,left,0.985099999,left,14.0,left,1.0,1.506400001,2.0,flower3.jpg,flower3_pair.jpg,left,ACR6012D868PP_2022-10-18_08h48.54.805.csv
143,7,3.0,flower3.jpg,,,,15.0,left,1.0,1.0593,3.0,flower4.jpg,flower4_pair.jpg,left,ACR6012D868PP_2022-10-18_08h48.54.805.csv
144,8,4.0,flower4.jpg,,,,16.0,right,1.0,1.6378,4.0,flower5_pair.jpg,flower5.jpg,right,ACR6012D868PP_2022-10-18_08h48.54.805.csv
145,9,5.0,flower5.jpg,,,,17.0,left,1.0,1.2627,5.0,flower6.jpg,flower6_pair.jpg,left,ACR6012D868PP_2022-10-18_08h48.54.805.csv
146,10,6.0,flower6.jpg,,,,,,,,,,,,ACR6012D868PP_2022-10-18_08h48.54.805.csv
147,4,0.0,flower1.jpg,,,,12.0,left,1.0,10.6649,0.0,flower1.jpg,flower1_pair.jpg,left,A2TAMPLWAYL5WJ_2022-10-18_08h41.17.030.csv
148,5,1.0,flower2.jpg,,,,13.0,left,0.0,5.692,1.0,flower2_pair.jpg,flower2.jpg,right,A2TAMPLWAYL5WJ_2022-10-18_08h41.17.030.csv
149,6,2.0,left.jpg,left,2.1083,left,14.0,left,1.0,3.6223,2.0,flower3.jpg,flower3_pair.jpg,left,A2TAMPLWAYL5WJ_2022-10-18_08h41.17.030.csv
150,7,3.0,flower3.jpg,,,,15.0,left,1.0,5.0894,3.0,flower4.jpg,flower4_pair.jpg,left,A2TAMPLWAYL5WJ_2022-10-18_08h41.17.030.csv
151,8,4.0,flower4.jpg,,,,16.0,right,1.0,2.4631,4.0,flower5_pair.jpg,flower5.jpg,right,A2TAMPLWAYL5WJ_2022-10-18_08h41.17.030.csv
152,9,5.0,flower5.jpg,,,,17.0,left,1.0,2.4047,5.0,flower6.jpg,flower6_pair.jpg,left,A2TAMPLWAYL5WJ_2022-10-18_08h41.17.030.csv
153,10,6.0,flower6.jpg,,,,,,,,,,,,A2TAMPLWAYL5WJ_2022-10-18_08h41.17.030.csv
154,4,0.0,flower1.jpg,,,,12.0,left,1.0,3.3576,0.0,flower1.jpg,flower1_pair.jpg,left,AZ87BZ1LEEZVS_2022-10-11_24h55.05.727.csv
155,5,1.0,flower2.jpg,,,,13.0,right,1.0,0.7067,1.0,flower2_pair.jpg,flower2.jpg,right,AZ87BZ1LEEZVS_2022-10-11_24h55.05.727.csv
156,6,2.0,left.jpg,left,2.4522,left,14.0,left,1.0,0.425,2.0,flower3.jpg,flower3_pair.jpg,left,AZ87BZ1LEEZVS_2022-10-11_24h55.05.727.csv
157,7,3.0,flower3.jpg,,,,15.0,right,0.0,0.4401,3.0,flower4.jpg,flower4_pair.jpg,left,AZ87BZ1LEEZVS_2022-10-11_24h55.05.727.csv
158,8,4.0,flower4.jpg,,,,16.0,left,0.0,0.4598,4.0,flower5_pair.jpg,flower5.jpg,right,AZ87BZ1LEEZVS_2022-10-11_24h55.05.727.csv
159,9,5.0,flower5.jpg,,,,17.0,right,0.0,0.3701,5.0,flower6.jpg,flower6_pair.jpg,left,AZ87BZ1LEEZVS_2022-10-11_24h55.05.727.csv
160,10,6.0,flower6.jpg,,,,,,,,,,,,AZ87BZ1LEEZVS_2022-10-11_24h55.05.727.csv
161,4,0.0,flower1.jpg,,,,12.0,left,1.0,3.4189,0.0,flower1.jpg,flower1_pair.jpg,left,A3KXM8LSH21DYR_2022-10-18_09h25.02.365.csv
162,5,1.0,flower2.jpg,,,,13.0,right,1.0,0.2847,1.0,flower2_pair.jpg,flower2.jpg,right,A3KXM8LSH21DYR_2022-10-18_09h25.02.365.csv
163,6,2.0,left.jpg,left,1.7057,left,14.0,left,1.0,3.9712,2.0,flower3.jpg,flower3_pair.jpg,left,A3KXM8LSH21DYR_2022-10-18_09h25.02.365.csv
164,7,3.0,flower3.jpg,,,,15.0,right,0.0,2.3148,3.0,flower4.jpg,flower4_pair.jpg,left,A3KXM8LSH21DYR_2022-10-18_09h25.02.365.csv
165,8,4.0,flower4.jpg,,,,16.0,right,1.0,2.0624,4.0,flower5_pair.jpg,flower5.jpg,right,A3KXM8LSH21DYR_2022-10-18_09h25.02.365.csv
166,9,5.0,flower5.jpg,,,,17.0,left,1.0,3.0705,5.0,flower6.jpg,flower6_pair.jpg,left,A3KXM8LSH21DYR_2022-10-18_09h25.02.365.csv
167,10,6.0,flower6.jpg,,,,,,,,,,,,A3KXM8LSH21DYR_2022-10-18_09h25.02.365.csv
168,4,0.0,flower1.jpg,,,,12.0,right,0.0,3.225900001,0.0,flower1.jpg,flower1_pair.jpg,left,A28RNN56JS8MUX_2022-10-18_09h31.11.700.csv
169,5,1.0,flower2.jpg,,,,13.0,left,0.0,2.2812,1.0,flower2_pair.jpg,flower2.jpg,right,A28RNN56JS8MUX_2022-10-18_09h31.11.700.csv
170,6,2.0,left.jpg,left,1.308599999,left,14.0,right,0.0,2.1676,2.0,flower3.jpg,flower3_pair.jpg,left,A28RNN56JS8MUX_2022-10-18_09h31.11.700.csv
171,7,3.0,flower3.jpg,,,,15.0,left,1.0,4.517,3.0,flower4.jpg,flower4_pair.jpg,left,A28RNN56JS8MUX_2022-10-18_09h31.11.700.csv
172,8,4.0,flower4.jpg,,,,16.0,left,0.0,2.7514,4.0,flower5_pair.jpg,flower5.jpg,right,A28RNN56JS8MUX_2022-10-18_09h31.11.700.csv
173,9,5.0,flower5.jpg,,,,17.0,right,0.0,2.8303,5.0,flower6.jpg,flower6_pair.jpg,left,A28RNN56JS8MUX_2022-10-18_09h31.11.700.csv
174,10,6.0,flower6.jpg,,,,,,,,,,,,A28RNN56JS8MUX_2022-10-18_09h31.11.700.csv
175,4,0.0,flower1.jpg,,,,12.0,right,0.0,1.9628,0.0,flower1.jpg,flower1_pair.jpg,left,AOCQ83IC3FRUQ_2022-10-18_08h05.06.240.csv
176,5,1.0,flower2.jpg,,,,13.0,left,0.0,1.448,1.0,flower2_pair.jpg,flower2.jpg,right,AOCQ83IC3FRUQ_2022-10-18_08h05.06.240.csv
177,6,2.0,left.jpg,left,1.3081,left,14.0,right,0.0,0.9698,2.0,flower3.jpg,flower3_pair.jpg,left,AOCQ83IC3FRUQ_2022-10-18_08h05.06.240.csv
178,7,3.0,flower3.jpg,,,,15.0,left,1.0,0.7766,3.0,flower4.jpg,flower4_pair.jpg,left,AOCQ83IC3FRUQ_2022-10-18_08h05.06.240.csv
179,8,4.0,flower4.jpg,,,,16.0,right,1.0,0.9612,4.0,flower5_pair.jpg,flower5.jpg,right,AOCQ83IC3FRUQ_2022-10-18_08h05.06.240.csv
180,9,5.0,flower5.jpg,,,,17.0,left,1.0,1.1788,5.0,flower6.jpg,flower6_pair.jpg,left,AOCQ83IC3FRUQ_2022-10-18_08h05.06.240.csv
181,10,6.0,flower6.jpg,,,,,,,,,,,,AOCQ83IC3FRUQ_2022-10-18_08h05.06.240.csv
182,4,0.0,flower1.jpg,,,,12.0,right,0.0,2.67275,0.0,flower1.jpg,flower1_pair.jpg,left,A1ENQOWFVY6FX9_2022-10-18_18h35.01.135.csv
183,5,1.0,flower2.jpg,,,,13.0,left,0.0,1.038615,1.0,flower2_pair.jpg,flower2.jpg,right,A1ENQOWFVY6FX9_2022-10-18_18h35.01.135.csv
184,6,2.0,left.jpg,left,2.89573,left,14.0,left,1.0,1.02691,2.0,flower3.jpg,flower3_pair.jpg,left,A1ENQOWFVY6FX9_2022-10-18_18h35.01.135.csv
185,7,3.0,flower3.jpg,,,,15.0,left,1.0,1.194695,3.0,flower4.jpg,flower4_pair.jpg,left,A1ENQOWFVY6FX9_2022-10-18_18h35.01.135.csv
186,8,4.0,flower4.jpg,,,,16.0,right,1.0,0.827025,4.0,flower5_pair.jpg,flower5.jpg,right,A1ENQOWFVY6FX9_2022-10-18_18h35.01.135.csv
187,9,5.0,flower5.jpg,,,,17.0,left,1.0,0.99336,5.0,flower6.jpg,flower6_pair.jpg,left,A1ENQOWFVY6FX9_2022-10-18_18h35.01.135.csv
188,10,6.0,flower6.jpg,,,,,,,,,,,,A1ENQOWFVY6FX9_2022-10-18_18h35.01.135.csv
189,4,0.0,flower1.jpg,,,,12.0,left,1.0,1.628,0.0,flower1.jpg,flower1_pair.jpg,left,A1SGTL6LGLW4DK_2022-10-18_08h43.31.903.csv
190,5,1.0,flower2.jpg,,,,13.0,right,1.0,2.5146,1.0,flower2_pair.jpg,flower2.jpg,right,A1SGTL6LGLW4DK_2022-10-18_08h43.31.903.csv
191,6,2.0,left.jpg,left,0.880599999,left,14.0,left,1.0,1.422200001,2.0,flower3.jpg,flower3_pair.jpg,left,A1SGTL6LGLW4DK_2022-10-18_08h43.31.903.csv
192,7,3.0,flower3.jpg,,,,15.0,right,0.0,1.7412,3.0,flower4.jpg,flower4_pair.jpg,left,A1SGTL6LGLW4DK_2022-10-18_08h43.31.903.csv
193,8,4.0,flower4.jpg,,,,16.0,right,1.0,1.8357,4.0,flower5_pair.jpg,flower5.jpg,right,A1SGTL6LGLW4DK_2022-10-18_08h43.31.903.csv
194,9,5.0,flower5.jpg,,,,17.0,left,1.0,1.381299999,5.0,flower6.jpg,flower6_pair.jpg,left,A1SGTL6LGLW4DK_2022-10-18_08h43.31.903.csv
195,10,6.0,flower6.jpg,,,,,,,,,,,,A1SGTL6LGLW4DK_2022-10-18_08h43.31.903.csv
196,4,0.0,flower1.jpg,,,,12.0,right,0.0,4.647,0.0,flower1.jpg,flower1_pair.jpg,left,A17WB66BXX4R0J_2022-10-18_08h45.14.157.csv
197,5,1.0,flower2.jpg,,,,13.0,right,1.0,11.228,1.0,flower2_pair.jpg,flower2.jpg,right,A17WB66BXX4R0J_2022-10-18_08h45.14.157.csv
198,6,2.0,left.jpg,left,2.179,left,14.0,left,1.0,1.559,2.0,flower3.jpg,flower3_pair.jpg,left,A17WB66BXX4R0J_2022-10-18_08h45.14.157.csv
199,7,3.0,flower3.jpg,,,,15.0,left,1.0,2.473,3.0,flower4.jpg,flower4_pair.jpg,left,A17WB66BXX4R0J_2022-10-18_08h45.14.157.csv
200,8,4.0,flower4.jpg,,,,16.0,right,1.0,2.031,4.0,flower5_pair.jpg,flower5.jpg,right,A17WB66BXX4R0J_2022-10-18_08h45.14.157.csv
201,9,5.0,flower5.jpg,,,,17.0,left,1.0,1.957,5.0,flower6.jpg,flower6_pair.jpg,left,A17WB66BXX4R0J_2022-10-18_08h45.14.157.csv
202,10,6.0,flower6.jpg,,,,,,,,,,,,A17WB66BXX4R0J_2022-10-18_08h45.14.157.csv
203,4,0.0,flower1.jpg,,,,12.0,left,1.0,4.2629,0.0,flower1.jpg,flower1_pair.jpg,left,A2W2UF6S3WG0KI_2022-10-18_08h59.25.081.csv
204,5,1.0,flower2.jpg,,,,13.0,right,1.0,2.181,1.0,flower2_pair.jpg,flower2.jpg,right,A2W2UF6S3WG0KI_2022-10-18_08h59.25.081.csv
205,6,2.0,left.jpg,left,1.3192,left,14.0,left,1.0,3.1935,2.0,flower3.jpg,flower3_pair.jpg,left,A2W2UF6S3WG0KI_2022-10-18_08h59.25.081.csv
206,7,3.0,flower3.jpg,,,,15.0,left,1.0,2.0021,3.0,flower4.jpg,flower4_pair.jpg,left,A2W2UF6S3WG0KI_2022-10-18_08h59.25.081.csv
207,8,4.0,flower4.jpg,,,,16.0,right,1.0,2.4126,4.0,flower5_pair.jpg,flower5.jpg,right,A2W2UF6S3WG0KI_2022-10-18_08h59.25.081.csv
208,9,5.0,flower5.jpg,,,,17.0,left,1.0,2.3801,5.0,flower6.jpg,flower6_pair.jpg,left,A2W2UF6S3WG0KI_2022-10-18_08h59.25.081.csv
209,10,6.0,flower6.jpg,,,,,,,,,,,,A2W2UF6S3WG0KI_2022-10-18_08h59.25.081.csv
210,4,0.0,flower1.jpg,,,,12.0,right,0.0,2.6411,0.0,flower1.jpg,flower1_pair.jpg,left,A27QYXUNPJR8B_2022-10-18_08h05.21.705.csv
211,5,1.0,flower2.jpg,,,,13.0,left,0.0,1.5529,1.0,flower2_pair.jpg,flower2.jpg,right,A27QYXUNPJR8B_2022-10-18_08h05.21.705.csv
212,6,2.0,left.jpg,left,1.8296,left,14.0,right,0.0,0.9865,2.0,flower3.jpg,flower3_pair.jpg,left,A27QYXUNPJR8B_2022-10-18_08h05.21.705.csv
213,7,3.0,flower3.jpg,,,,15.0,right,0.0,0.694099999,3.0,flower4.jpg,flower4_pair.jpg,left,A27QYXUNPJR8B_2022-10-18_08h05.21.705.csv
214,8,4.0,flower4.jpg,,,,16.0,right,1.0,0.8475,4.0,flower5_pair.jpg,flower5.jpg,right,A27QYXUNPJR8B_2022-10-18_08h05.21.705.csv
215,9,5.0,flower5.jpg,,,,17.0,right,0.0,0.7147,5.0,flower6.jpg,flower6_pair.jpg,left,A27QYXUNPJR8B_2022-10-18_08h05.21.705.csv
216,10,6.0,flower6.jpg,,,,,,,,,,,,A27QYXUNPJR8B_2022-10-18_08h05.21.705.csv
217,4,0.0,flower1.jpg,,,,12.0,right,0.0,8.269599999,0.0,flower1.jpg,flower1_pair.jpg,left,AKWM0TYF6WNH5_2022-10-18_11h26.42.742.csv
218,5,1.0,flower2.jpg,,,,13.0,left,0.0,2.069900001,1.0,flower2_pair.jpg,flower2.jpg,right,AKWM0TYF6WNH5_2022-10-18_11h26.42.742.csv
219,6,2.0,left.jpg,left,0.9079,left,14.0,right,0.0,2.5828,2.0,flower3.jpg,flower3_pair.jpg,left,AKWM0TYF6WNH5_2022-10-18_11h26.42.742.csv
220,7,3.0,flower3.jpg,,,,15.0,left,1.0,0.9549,3.0,flower4.jpg,flower4_pair.jpg,left,AKWM0TYF6WNH5_2022-10-18_11h26.42.742.csv
221,8,4.0,flower4.jpg,,,,16.0,left,0.0,4.8703,4.0,flower5_pair.jpg,flower5.jpg,right,AKWM0TYF6WNH5_2022-10-18_11h26.42.742.csv
222,9,5.0,flower5.jpg,,,,17.0,right,0.0,0.0043,5.0,flower6.jpg,flower6_pair.jpg,left,AKWM0TYF6WNH5_2022-10-18_11h26.42.742.csv
223,10,6.0,flower6.jpg,,,,,,,,,,,,AKWM0TYF6WNH5_2022-10-18_11h26.42.742.csv
224,4,0.0,flower1.jpg,,,,12.0,left,1.0,3.6582,0.0,flower1.jpg,flower1_pair.jpg,left,A2IHXTGWRC8SVQ_2022-10-18_08h17.35.185.csv
225,5,1.0,flower2.jpg,,,,13.0,right,1.0,1.7661,1.0,flower2_pair.jpg,flower2.jpg,right,A2IHXTGWRC8SVQ_2022-10-18_08h17.35.185.csv
226,6,2.0,left.jpg,left,1.1365,left,14.0,left,1.0,2.3201,2.0,flower3.jpg,flower3_pair.jpg,left,A2IHXTGWRC8SVQ_2022-10-18_08h17.35.185.csv
227,7,3.0,flower3.jpg,,,,15.0,right,0.0,1.5334,3.0,flower4.jpg,flower4_pair.jpg,left,A2IHXTGWRC8SVQ_2022-10-18_08h17.35.185.csv
228,8,4.0,flower4.jpg,,,,16.0,left,0.0,1.262,4.0,flower5_pair.jpg,flower5.jpg,right,A2IHXTGWRC8SVQ_2022-10-18_08h17.35.185.csv
229,9,5.0,flower5.jpg,,,,17.0,right,0.0,1.5289,5.0,flower6.jpg,flower6_pair.jpg,left,A2IHXTGWRC8SVQ_2022-10-18_08h17.35.185.csv
230,10,6.0,flower6.jpg,,,,,,,,,,,,A2IHXTGWRC8SVQ_2022-10-18_08h17.35.185.csv
