,index,test_encoding_response.keys,test_encoding_response.corr,trials.thisTrialN,target_image,pair,layer,correct,test_encoding_response.rt,key_resp_end.keys,subject
0,20,,1.0,0.0,2446759803-49249.jpg,2238499155-170911.jpg,2.0,,,,A3H1A5PGLBBWR0_2022-11-24_10h22.56.476.csv
1,21,,1.0,1.0,2238428357-313623.jpg,2984616310-220514.jpg,2.0,,,,A3H1A5PGLBBWR0_2022-11-24_10h22.56.476.csv
2,22,,1.0,2.0,2512875899-126682.jpg,2898618440-216545.jpg,1.0,,,,A3H1A5PGLBBWR0_2022-11-24_10h22.56.476.csv
3,23,,1.0,3.0,2449442529-124445.jpg,2452380166-273109.jpg,1.0,,,,A3H1A5PGLBBWR0_2022-11-24_10h22.56.476.csv
4,24,,1.0,4.0,2238480677-317399.jpg,2446761173-49643.jpg,2.0,,,,A3H1A5PGLBBWR0_2022-11-24_10h22.56.476.csv
5,25,,1.0,5.0,2964223381-294447.jpg,2901938432-367628.jpg,3.0,,,,A3H1A5PGLBBWR0_2022-11-24_10h22.56.476.csv
6,26,,1.0,6.0,2864907432-362042.jpg,2898626395-216900.jpg,3.0,,,,A3H1A5PGLBBWR0_2022-11-24_10h22.56.476.csv
7,27,right,1.0,7.0,right.jpg,,,right,1.4053,,A3H1A5PGLBBWR0_2022-11-24_10h22.56.476.csv
8,28,,1.0,8.0,2901952513-70703.jpg,2864907361-287062.jpg,1.0,,,,A3H1A5PGLBBWR0_2022-11-24_10h22.56.476.csv
9,29,,1.0,9.0,2898633421-291973.jpg,2512876023-52283.jpg,1.0,,,,A3H1A5PGLBBWR0_2022-11-24_10h22.56.476.csv
10,30,,1.0,10.0,2898634397-367080.jpg,2898636423-69152.jpg,2.0,,,,A3H1A5PGLBBWR0_2022-11-24_10h22.56.476.csv
11,31,,1.0,11.0,2883256307-365057.jpg,2864901420-212148.jpg,2.0,,,,A3H1A5PGLBBWR0_2022-11-24_10h22.56.476.csv
12,32,,1.0,12.0,2898617468-68274.jpg,2864906345-212360.jpg,1.0,,,,A3H1A5PGLBBWR0_2022-11-24_10h22.56.476.csv
13,33,,1.0,13.0,2592380177-354629.jpg,2898633421-291974.jpg,1.0,,,,A3H1A5PGLBBWR0_2022-11-24_10h22.56.476.csv
14,34,,1.0,14.0,2238560245-182099.jpg,2901943480-218116.jpg,3.0,,,,A3H1A5PGLBBWR0_2022-11-24_10h22.56.476.csv
15,35,,1.0,15.0,2874299429-139695.jpg,2874313394-140557.jpg,3.0,,,,A3H1A5PGLBBWR0_2022-11-24_10h22.56.476.csv
16,36,,1.0,16.0,2898618390-216538.jpg,2864910427-362199.jpg,2.0,,,,A3H1A5PGLBBWR0_2022-11-24_10h22.56.476.csv
17,37,left,1.0,17.0,left.jpg,,,left,1.0348,,A3H1A5PGLBBWR0_2022-11-24_10h22.56.476.csv
18,38,,1.0,18.0,2449441881-272368.jpg,2238576222-334523.jpg,3.0,,,,A3H1A5PGLBBWR0_2022-11-24_10h22.56.476.csv
19,39,,1.0,19.0,2446759347-347016.jpg,2864904415-212294.jpg,2.0,,,,A3H1A5PGLBBWR0_2022-11-24_10h22.56.476.csv
20,40,,1.0,20.0,2898635428-69104.jpg,2864904390-212289.jpg,2.0,,,,A3H1A5PGLBBWR0_2022-11-24_10h22.56.476.csv
21,41,,1.0,21.0,2449442529-124446.jpg,2460547536-274179.jpg,3.0,,,,A3H1A5PGLBBWR0_2022-11-24_10h22.56.476.csv
22,42,,1.0,22.0,2460547467-349422.jpg,2989721311-296963.jpg,2.0,,,,A3H1A5PGLBBWR0_2022-11-24_10h22.56.476.csv
23,43,,1.0,23.0,2898635427-367120.jpg,2964221435-219434.jpg,1.0,,,,A3H1A5PGLBBWR0_2022-11-24_10h22.56.476.csv
24,44,,1.0,24.0,2981231403-71642.jpg,2864900358-63717.jpg,2.0,,,,A3H1A5PGLBBWR0_2022-11-24_10h22.56.476.csv
25,45,,1.0,25.0,2901939379-143479.jpg,2901938398-69594.jpg,2.0,,,,A3H1A5PGLBBWR0_2022-11-24_10h22.56.476.csv
26,46,,1.0,26.0,2874302418-65979.jpg,2901939433-69673.jpg,2.0,,,,A3H1A5PGLBBWR0_2022-11-24_10h22.56.476.csv
27,47,,1.0,27.0,2868474407-362883.jpg,2874305405-214397.jpg,2.0,,,,A3H1A5PGLBBWR0_2022-11-24_10h22.56.476.csv
28,48,,1.0,28.0,2575120738-55529.jpg,2901946413-70227.jpg,2.0,,,,A3H1A5PGLBBWR0_2022-11-24_10h22.56.476.csv
29,49,,1.0,29.0,2874301407-363895.jpg,2901949316-293452.jpg,2.0,,,,A3H1A5PGLBBWR0_2022-11-24_10h22.56.476.csv
30,50,,1.0,30.0,2883268471-290842.jpg,2883268471-290843.jpg,1.0,,,,A3H1A5PGLBBWR0_2022-11-24_10h22.56.476.csv
31,51,,1.0,31.0,2964218374-144967.jpg,2964218374-144968.jpg,1.0,,,,A3H1A5PGLBBWR0_2022-11-24_10h22.56.476.csv
32,52,,1.0,32.0,2898624426-291546.jpg,2964207374-144577.jpg,1.0,,,,A3H1A5PGLBBWR0_2022-11-24_10h22.56.476.csv
33,53,right,1.0,33.0,right.jpg,,,right,0.9756,,A3H1A5PGLBBWR0_2022-11-24_10h22.56.476.csv
34,54,,1.0,34.0,2986451363-73599.jpg,2898630381-291834.jpg,3.0,,,,A3H1A5PGLBBWR0_2022-11-24_10h22.56.476.csv
35,55,,1.0,35.0,2874307433-66280.jpg,2446759396-271761.jpg,3.0,,,,A3H1A5PGLBBWR0_2022-11-24_10h22.56.476.csv
36,56,,1.0,36.0,2964213381-294060.jpg,2883254439-140940.jpg,3.0,,,,A3H1A5PGLBBWR0_2022-11-24_10h22.56.476.csv
37,57,,1.0,37.0,2868475410-213219.jpg,2901946465-218350.jpg,1.0,,,,A3H1A5PGLBBWR0_2022-11-24_10h22.56.476.csv
38,58,,1.0,38.0,2592379964-131054.jpg,2424122686-268072.jpg,3.0,,,,A3H1A5PGLBBWR0_2022-11-24_10h22.56.476.csv
39,59,right,1.0,39.0,right.jpg,,,right,1.0348,,A3H1A5PGLBBWR0_2022-11-24_10h22.56.476.csv
40,60,,1.0,40.0,2874303365-214262.jpg,2512875685-200826.jpg,2.0,,,,A3H1A5PGLBBWR0_2022-11-24_10h22.56.476.csv
41,61,,1.0,41.0,2238481198-19822.jpg,2901941438-69835.jpg,3.0,,,,A3H1A5PGLBBWR0_2022-11-24_10h22.56.476.csv
42,62,,1.0,42.0,2901947423-70311.jpg,2874301385-214137.jpg,3.0,,,,A3H1A5PGLBBWR0_2022-11-24_10h22.56.476.csv
43,63,,1.0,43.0,2901941401-292798.jpg,2238577590-185467.jpg,1.0,,,,A3H1A5PGLBBWR0_2022-11-24_10h22.56.476.csv
44,64,,1.0,44.0,2901948350-218459.jpg,2868487415-213922.jpg,1.0,,,,A3H1A5PGLBBWR0_2022-11-24_10h22.56.476.csv
45,65,,1.0,45.0,2898618444-142233.jpg,2804906319-133082.jpg,3.0,,,,A3H1A5PGLBBWR0_2022-11-24_10h22.56.476.csv
46,66,right,1.0,46.0,right.jpg,,,right,1.0226,,A3H1A5PGLBBWR0_2022-11-24_10h22.56.476.csv
47,67,,1.0,47.0,2238580740-186218.jpg,2874312404-140477.jpg,3.0,,,,A3H1A5PGLBBWR0_2022-11-24_10h22.56.476.csv
48,68,,1.0,48.0,2452381505-199546.jpg,2449442621-272560.jpg,2.0,,,,A3H1A5PGLBBWR0_2022-11-24_10h22.56.476.csv
49,69,,1.0,49.0,2874302418-65978.jpg,2898626385-216899.jpg,1.0,,,,A3H1A5PGLBBWR0_2022-11-24_10h22.56.476.csv
50,70,,1.0,50.0,2452380832-348593.jpg,2238515978-25479.jpg,2.0,,,,A3H1A5PGLBBWR0_2022-11-24_10h22.56.476.csv
51,71,,1.0,51.0,2446758985-197609.jpg,2452380166-273110.jpg,2.0,,,,A3H1A5PGLBBWR0_2022-11-24_10h22.56.476.csv
52,72,,1.0,52.0,2964216465-219242.jpg,2238544191-252422.jpg,1.0,,,,A3H1A5PGLBBWR0_2022-11-24_10h22.56.476.csv
53,73,,1.0,53.0,2458347385-199723.jpg,2512875824-126658.jpg,2.0,,,,A3H1A5PGLBBWR0_2022-11-24_10h22.56.476.csv
54,74,,1.0,54.0,2238481928-19949.jpg,2864910427-362200.jpg,3.0,,,,A3H1A5PGLBBWR0_2022-11-24_10h22.56.476.csv
55,75,,1.0,55.0,2592380177-354626.jpg,2579432708-56392.jpg,3.0,,,,A3H1A5PGLBBWR0_2022-11-24_10h22.56.476.csv
56,76,,1.0,56.0,2883268412-365898.jpg,2984626312-370849.jpg,1.0,,,,A3H1A5PGLBBWR0_2022-11-24_10h22.56.476.csv
57,77,,1.0,57.0,2460547508-51571.jpg,2901941438-69836.jpg,3.0,,,,A3H1A5PGLBBWR0_2022-11-24_10h22.56.476.csv
58,78,,1.0,58.0,2883254439-140941.jpg,2883255450-215311.jpg,1.0,,,,A3H1A5PGLBBWR0_2022-11-24_10h22.56.476.csv
59,79,,1.0,59.0,2981241414-145842.jpg,2238427023-15948.jpg,3.0,,,,A3H1A5PGLBBWR0_2022-11-24_10h22.56.476.csv
60,80,,1.0,60.0,2901939379-143480.jpg,2901933403-69214.jpg,3.0,,,,A3H1A5PGLBBWR0_2022-11-24_10h22.56.476.csv
61,81,,1.0,61.0,2460547467-349421.jpg,2898618440-216547.jpg,1.0,,,,A3H1A5PGLBBWR0_2022-11-24_10h22.56.476.csv
62,82,,1.0,62.0,2238572663-35822.jpg,2575118671-277663.jpg,1.0,,,,A3H1A5PGLBBWR0_2022-11-24_10h22.56.476.csv
63,83,,1.0,63.0,2864910426-287204.jpg,2864902304-137862.jpg,1.0,,,,A3H1A5PGLBBWR0_2022-11-24_10h22.56.476.csv
64,84,,1.0,64.0,2238425482-313537.jpg,2864901352-361731.jpg,3.0,,,,A3H1A5PGLBBWR0_2022-11-24_10h22.56.476.csv
65,20,,1.0,0.0,2452381505-199546.jpg,2449442621-272560.jpg,2.0,,,,A5SHVX15AQJQF_2022-11-24_10h24.01.860.csv
66,21,,1.0,1.0,2901947423-70311.jpg,2874301385-214137.jpg,3.0,,,,A5SHVX15AQJQF_2022-11-24_10h24.01.860.csv
67,22,,1.0,2.0,2898624426-291546.jpg,2898626395-216901.jpg,2.0,,,,A5SHVX15AQJQF_2022-11-24_10h24.01.860.csv
68,23,,1.0,3.0,2868474407-362883.jpg,2238516618-25604.jpg,1.0,,,,A5SHVX15AQJQF_2022-11-24_10h24.01.860.csv
69,24,,1.0,4.0,2460547467-349422.jpg,2898631394-142727.jpg,1.0,,,,A5SHVX15AQJQF_2022-11-24_10h24.01.860.csv
70,25,,1.0,5.0,2458347385-199723.jpg,2238480434-93829.jpg,1.0,,,,A5SHVX15AQJQF_2022-11-24_10h24.01.860.csv
71,26,,1.0,6.0,2901939379-143480.jpg,2901933403-69214.jpg,3.0,,,,A5SHVX15AQJQF_2022-11-24_10h24.01.860.csv
72,27,,1.0,7.0,2901939379-143479.jpg,2446759306-271734.jpg,3.0,,,,A5SHVX15AQJQF_2022-11-24_10h24.01.860.csv
73,28,,1.0,8.0,2964216465-219242.jpg,2981231403-71641.jpg,3.0,,,,A5SHVX15AQJQF_2022-11-24_10h24.01.860.csv
74,29,,1.0,9.0,2883268471-290842.jpg,2898623398-68538.jpg,2.0,,,,A5SHVX15AQJQF_2022-11-24_10h24.01.860.csv
75,30,,1.0,10.0,2898618444-142233.jpg,2898631359-142721.jpg,1.0,,,,A5SHVX15AQJQF_2022-11-24_10h24.01.860.csv
76,31,,1.0,11.0,2898617468-68274.jpg,2238433340-164524.jpg,2.0,,,,A5SHVX15AQJQF_2022-11-24_10h24.01.860.csv
77,32,left,1.0,12.0,left.jpg,,,left,1.337,,A5SHVX15AQJQF_2022-11-24_10h24.01.860.csv
78,33,,1.0,13.0,2901948350-218459.jpg,2238482369-94216.jpg,3.0,,,,A5SHVX15AQJQF_2022-11-24_10h24.01.860.csv
79,34,,1.0,14.0,2449441881-272368.jpg,2238576222-334523.jpg,3.0,,,,A5SHVX15AQJQF_2022-11-24_10h24.01.860.csv
80,35,,1.0,15.0,2874303365-214262.jpg,2609793677-355397.jpg,1.0,,,,A5SHVX15AQJQF_2022-11-24_10h24.01.860.csv
81,36,,1.0,16.0,2883256307-365057.jpg,2611628310-206388.jpg,1.0,,,,A5SHVX15AQJQF_2022-11-24_10h24.01.860.csv
82,37,,1.0,17.0,2964213381-294060.jpg,2598726160-205998.jpg,2.0,,,,A5SHVX15AQJQF_2022-11-24_10h24.01.860.csv
83,38,,1.0,18.0,2449442529-124446.jpg,2964216376-294181.jpg,2.0,,,,A5SHVX15AQJQF_2022-11-24_10h24.01.860.csv
84,39,,1.0,19.0,2901952513-70703.jpg,2864907361-287062.jpg,1.0,,,,A5SHVX15AQJQF_2022-11-24_10h24.01.860.csv
85,40,,1.0,20.0,2575120738-55529.jpg,2460547859-126142.jpg,3.0,,,,A5SHVX15AQJQF_2022-11-24_10h24.01.860.csv
86,41,,1.0,21.0,2446759803-49249.jpg,2446760601-272099.jpg,1.0,,,,A5SHVX15AQJQF_2022-11-24_10h24.01.860.csv
87,42,,1.0,22.0,2238560245-182099.jpg,2901943480-218116.jpg,3.0,,,,A5SHVX15AQJQF_2022-11-24_10h24.01.860.csv
88,43,left,1.0,23.0,left.jpg,,,left,1.419,,A5SHVX15AQJQF_2022-11-24_10h24.01.860.csv
89,44,,1.0,24.0,2864910426-287204.jpg,2864902304-137862.jpg,1.0,,,,A5SHVX15AQJQF_2022-11-24_10h24.01.860.csv
90,45,,1.0,25.0,2883254439-140941.jpg,2460548070-200336.jpg,2.0,,,,A5SHVX15AQJQF_2022-11-24_10h24.01.860.csv
91,46,,1.0,26.0,2883268412-365898.jpg,2984626312-370849.jpg,1.0,,,,A5SHVX15AQJQF_2022-11-24_10h24.01.860.csv
92,47,,1.0,27.0,2981231403-71642.jpg,2864900358-63717.jpg,2.0,,,,A5SHVX15AQJQF_2022-11-24_10h24.01.860.csv
93,48,,1.0,28.0,2592380177-354629.jpg,2847210303-60991.jpg,3.0,,,,A5SHVX15AQJQF_2022-11-24_10h24.01.860.csv
94,49,,1.0,29.0,2898634397-367080.jpg,2446759306-271735.jpg,3.0,,,,A5SHVX15AQJQF_2022-11-24_10h24.01.860.csv
95,50,,1.0,30.0,2874302418-65979.jpg,2413147898-43548.jpg,1.0,,,,A5SHVX15AQJQF_2022-11-24_10h24.01.860.csv
96,51,,1.0,31.0,2898618390-216538.jpg,2238574968-36441.jpg,3.0,,,,A5SHVX15AQJQF_2022-11-24_10h24.01.860.csv
97,52,,1.0,32.0,2238425482-313537.jpg,2981244403-72215.jpg,2.0,,,,A5SHVX15AQJQF_2022-11-24_10h24.01.860.csv
98,53,,1.0,33.0,2592380177-354626.jpg,2238360787-310962.jpg,2.0,,,,A5SHVX15AQJQF_2022-11-24_10h24.01.860.csv
99,54,right,1.0,34.0,right.jpg,,,right,1.6592,,A5SHVX15AQJQF_2022-11-24_10h24.01.860.csv
100,55,,1.0,35.0,2446758985-197609.jpg,2238087237-303447.jpg,3.0,,,,A5SHVX15AQJQF_2022-11-24_10h24.01.860.csv
101,56,,1.0,36.0,2449442529-124445.jpg,2901946439-144040.jpg,3.0,,,,A5SHVX15AQJQF_2022-11-24_10h24.01.860.csv
102,57,,1.0,37.0,2460547508-51571.jpg,2898633480-217189.jpg,2.0,,,,A5SHVX15AQJQF_2022-11-24_10h24.01.860.csv
103,58,,1.0,38.0,2898635427-367120.jpg,2964221435-219434.jpg,1.0,,,,A5SHVX15AQJQF_2022-11-24_10h24.01.860.csv
104,59,,1.0,39.0,2238580740-186218.jpg,2575121108-55628.jpg,2.0,,,,A5SHVX15AQJQF_2022-11-24_10h24.01.860.csv
105,60,,1.0,40.0,2512875899-126682.jpg,2238547107-328393.jpg,2.0,,,,A5SHVX15AQJQF_2022-11-24_10h24.01.860.csv
106,61,,1.0,41.0,2238428357-313623.jpg,2856919327-359675.jpg,3.0,,,,A5SHVX15AQJQF_2022-11-24_10h24.01.860.csv
107,62,left,1.0,42.0,left.jpg,,,left,1.4401,,A5SHVX15AQJQF_2022-11-24_10h24.01.860.csv
108,63,,1.0,43.0,2981241414-145842.jpg,2868469411-287540.jpg,2.0,,,,A5SHVX15AQJQF_2022-11-24_10h24.01.860.csv
109,64,,1.0,44.0,2874302418-65978.jpg,2898626385-216899.jpg,1.0,,,,A5SHVX15AQJQF_2022-11-24_10h24.01.860.csv
110,65,,1.0,45.0,2238572663-35822.jpg,2575118671-277663.jpg,1.0,,,,A5SHVX15AQJQF_2022-11-24_10h24.01.860.csv
111,66,,1.0,46.0,2874299429-139695.jpg,2874313394-140557.jpg,3.0,,,,A5SHVX15AQJQF_2022-11-24_10h24.01.860.csv
112,67,,1.0,47.0,2986451363-73599.jpg,2238571930-184142.jpg,2.0,,,,A5SHVX15AQJQF_2022-11-24_10h24.01.860.csv
113,68,,1.0,48.0,2238480677-317399.jpg,2446761173-49643.jpg,2.0,,,,A5SHVX15AQJQF_2022-11-24_10h24.01.860.csv
114,69,,1.0,49.0,2238481928-19949.jpg,2883264367-365620.jpg,1.0,,,,A5SHVX15AQJQF_2022-11-24_10h24.01.860.csv
115,70,,1.0,50.0,2964223381-294447.jpg,2964217461-294238.jpg,2.0,,,,A5SHVX15AQJQF_2022-11-24_10h24.01.860.csv
116,71,,1.0,51.0,2452380832-348593.jpg,2238328478-11678.jpg,1.0,,,,A5SHVX15AQJQF_2022-11-24_10h24.01.860.csv
117,72,left,1.0,52.0,left.jpg,,,left,1.3165,,A5SHVX15AQJQF_2022-11-24_10h24.01.860.csv
118,73,,1.0,53.0,2901941401-292798.jpg,2964223380-219495.jpg,2.0,,,,A5SHVX15AQJQF_2022-11-24_10h24.01.860.csv
119,74,,1.0,54.0,2460547467-349421.jpg,2898618440-216547.jpg,1.0,,,,A5SHVX15AQJQF_2022-11-24_10h24.01.860.csv
120,75,,1.0,55.0,2898635428-69104.jpg,2901942428-69919.jpg,3.0,,,,A5SHVX15AQJQF_2022-11-24_10h24.01.860.csv
121,76,,1.0,56.0,2898633421-291973.jpg,2512876023-52283.jpg,1.0,,,,A5SHVX15AQJQF_2022-11-24_10h24.01.860.csv
122,77,,1.0,57.0,2874301407-363895.jpg,2989715317-371697.jpg,3.0,,,,A5SHVX15AQJQF_2022-11-24_10h24.01.860.csv
123,78,,1.0,58.0,2238481198-19822.jpg,2901941438-69835.jpg,3.0,,,,A5SHVX15AQJQF_2022-11-24_10h24.01.860.csv
124,79,,1.0,59.0,2964218374-144967.jpg,2964218374-144968.jpg,1.0,,,,A5SHVX15AQJQF_2022-11-24_10h24.01.860.csv
125,80,,1.0,60.0,2874307433-66280.jpg,2986447306-296584.jpg,1.0,,,,A5SHVX15AQJQF_2022-11-24_10h24.01.860.csv
126,81,,1.0,61.0,2446759347-347016.jpg,2446760362-347305.jpg,3.0,,,,A5SHVX15AQJQF_2022-11-24_10h24.01.860.csv
127,82,,1.0,62.0,2592379964-131054.jpg,2427875694-122097.jpg,2.0,,,,A5SHVX15AQJQF_2022-11-24_10h24.01.860.csv
128,83,,1.0,63.0,2868475410-213219.jpg,2862700345-211776.jpg,2.0,,,,A5SHVX15AQJQF_2022-11-24_10h24.01.860.csv
129,84,,1.0,64.0,2864907432-362042.jpg,2898626395-216900.jpg,3.0,,,,A5SHVX15AQJQF_2022-11-24_10h24.01.860.csv
130,20,,1.0,0.0,2452381505-199546.jpg,2901938432-367627.jpg,1.0,,,,A3KVIZLKSASAES_2022-11-24_10h37.14.539.csv
131,21,,1.0,1.0,2898635428-69104.jpg,2864904390-212289.jpg,2.0,,,,A3KVIZLKSASAES_2022-11-24_10h37.14.539.csv
132,22,,1.0,2.0,2898624426-291546.jpg,2964207374-144577.jpg,1.0,,,,A3KVIZLKSASAES_2022-11-24_10h37.14.539.csv
133,23,,1.0,3.0,2874299429-139695.jpg,2874313394-140557.jpg,3.0,,,,A3KVIZLKSASAES_2022-11-24_10h37.14.539.csv
134,24,,1.0,4.0,2898635427-367120.jpg,2898624426-291545.jpg,3.0,,,,A3KVIZLKSASAES_2022-11-24_10h37.14.539.csv
135,25,,1.0,5.0,2964216465-219242.jpg,2238482539-94244.jpg,2.0,,,,A3KVIZLKSASAES_2022-11-24_10h37.14.539.csv
136,26,,1.0,6.0,2238580740-186218.jpg,2874312404-140477.jpg,3.0,,,,A3KVIZLKSASAES_2022-11-24_10h37.14.539.csv
137,27,,1.0,7.0,2446759803-49249.jpg,2238499155-170911.jpg,2.0,,,,A3KVIZLKSASAES_2022-11-24_10h37.14.539.csv
138,28,left,1.0,8.0,left.jpg,,,left,1.964,,A3KVIZLKSASAES_2022-11-24_10h37.14.539.csv
139,29,,1.0,9.0,2868474407-362883.jpg,2238516618-25604.jpg,1.0,,,,A3KVIZLKSASAES_2022-11-24_10h37.14.539.csv
140,30,,1.0,10.0,2901947423-70311.jpg,2874301385-214137.jpg,3.0,,,,A3KVIZLKSASAES_2022-11-24_10h37.14.539.csv
141,31,,1.0,11.0,2898618390-216538.jpg,2864910427-362199.jpg,2.0,,,,A3KVIZLKSASAES_2022-11-24_10h37.14.539.csv
142,32,,1.0,12.0,2460547467-349421.jpg,2898618440-216547.jpg,1.0,,,,A3KVIZLKSASAES_2022-11-24_10h37.14.539.csv
143,33,,1.0,13.0,2883254439-140941.jpg,2460548070-200336.jpg,2.0,,,,A3KVIZLKSASAES_2022-11-24_10h37.14.539.csv
144,34,,1.0,14.0,2901948350-218459.jpg,2868487415-213922.jpg,1.0,,,,A3KVIZLKSASAES_2022-11-24_10h37.14.539.csv
145,35,,1.0,15.0,2238572663-35822.jpg,2238375825-162206.jpg,3.0,,,,A3KVIZLKSASAES_2022-11-24_10h37.14.539.csv
146,36,,1.0,16.0,2460547467-349422.jpg,2989721311-296963.jpg,2.0,,,,A3KVIZLKSASAES_2022-11-24_10h37.14.539.csv
147,37,,1.0,17.0,2986451363-73599.jpg,2898630381-291834.jpg,3.0,,,,A3KVIZLKSASAES_2022-11-24_10h37.14.539.csv
148,38,,1.0,18.0,2238480677-317399.jpg,2238481630-168218.jpg,1.0,,,,A3KVIZLKSASAES_2022-11-24_10h37.14.539.csv
149,39,,0.0,19.0,right.jpg,,,right,,,A3KVIZLKSASAES_2022-11-24_10h37.14.539.csv
150,40,,1.0,20.0,2901939379-143479.jpg,2446759306-271734.jpg,3.0,,,,A3KVIZLKSASAES_2022-11-24_10h37.14.539.csv
151,41,,1.0,21.0,2592379964-131054.jpg,2427875694-122097.jpg,2.0,,,,A3KVIZLKSASAES_2022-11-24_10h37.14.539.csv
152,42,,1.0,22.0,2446758985-197609.jpg,2981240424-145795.jpg,1.0,,,,A3KVIZLKSASAES_2022-11-24_10h37.14.539.csv
153,43,,1.0,23.0,2964213381-294060.jpg,2883254439-140940.jpg,3.0,,,,A3KVIZLKSASAES_2022-11-24_10h37.14.539.csv
154,44,,1.0,24.0,2874302418-65979.jpg,2413147898-43548.jpg,1.0,,,,A3KVIZLKSASAES_2022-11-24_10h37.14.539.csv
155,45,,1.0,25.0,2452380832-348593.jpg,2238328478-11678.jpg,1.0,,,,A3KVIZLKSASAES_2022-11-24_10h37.14.539.csv
156,46,,1.0,26.0,2898633421-291973.jpg,2989730319-147821.jpg,3.0,,,,A3KVIZLKSASAES_2022-11-24_10h37.14.539.csv
157,47,,1.0,27.0,2446759347-347016.jpg,2446760362-347305.jpg,3.0,,,,A3KVIZLKSASAES_2022-11-24_10h37.14.539.csv
158,48,,1.0,28.0,2238428357-313623.jpg,2984616310-220514.jpg,2.0,,,,A3KVIZLKSASAES_2022-11-24_10h37.14.539.csv
159,49,,1.0,29.0,2864907432-362042.jpg,2898626395-216900.jpg,3.0,,,,A3KVIZLKSASAES_2022-11-24_10h37.14.539.csv
160,50,right,1.0,30.0,right.jpg,,,right,1.215,,A3KVIZLKSASAES_2022-11-24_10h37.14.539.csv
161,51,,1.0,31.0,2449442529-124445.jpg,2452380166-273109.jpg,1.0,,,,A3KVIZLKSASAES_2022-11-24_10h37.14.539.csv
162,52,,1.0,32.0,2512875899-126682.jpg,2898618440-216545.jpg,1.0,,,,A3KVIZLKSASAES_2022-11-24_10h37.14.539.csv
163,53,,1.0,33.0,2449442529-124446.jpg,2452380171-273112.jpg,1.0,,,,A3KVIZLKSASAES_2022-11-24_10h37.14.539.csv
164,54,,1.0,34.0,2883268471-290842.jpg,2883266367-365742.jpg,3.0,,,,A3KVIZLKSASAES_2022-11-24_10h37.14.539.csv
165,55,,1.0,35.0,2898617468-68274.jpg,2864906345-212360.jpg,1.0,,,,A3KVIZLKSASAES_2022-11-24_10h37.14.539.csv
166,56,,1.0,36.0,2964223381-294447.jpg,2901938432-367628.jpg,3.0,,,,A3KVIZLKSASAES_2022-11-24_10h37.14.539.csv
167,57,,1.0,37.0,2874302418-65978.jpg,2238577555-185462.jpg,2.0,,,,A3KVIZLKSASAES_2022-11-24_10h37.14.539.csv
168,58,,1.0,38.0,2575120738-55529.jpg,2901946413-70227.jpg,2.0,,,,A3KVIZLKSASAES_2022-11-24_10h37.14.539.csv
169,59,,1.0,39.0,2964218374-144967.jpg,2446758985-197610.jpg,2.0,,,,A3KVIZLKSASAES_2022-11-24_10h37.14.539.csv
170,60,,1.0,40.0,2981231403-71642.jpg,2238574878-36413.jpg,3.0,,,,A3KVIZLKSASAES_2022-11-24_10h37.14.539.csv
171,61,,1.0,41.0,2901941401-292798.jpg,2964223380-219495.jpg,2.0,,,,A3KVIZLKSASAES_2022-11-24_10h37.14.539.csv
172,62,right,1.0,42.0,right.jpg,,,right,1.686,,A3KVIZLKSASAES_2022-11-24_10h37.14.539.csv
173,63,,1.0,43.0,2874303365-214262.jpg,2424124794-120289.jpg,3.0,,,,A3KVIZLKSASAES_2022-11-24_10h37.14.539.csv
174,64,,1.0,44.0,2238425482-313537.jpg,2864901352-361731.jpg,3.0,,,,A3KVIZLKSASAES_2022-11-24_10h37.14.539.csv
175,65,,1.0,45.0,2592380177-354629.jpg,2847210303-60991.jpg,3.0,,,,A3KVIZLKSASAES_2022-11-24_10h37.14.539.csv
176,66,,1.0,46.0,2238560245-182099.jpg,2238467949-92250.jpg,2.0,,,,A3KVIZLKSASAES_2022-11-24_10h37.14.539.csv
177,67,,1.0,47.0,2981241414-145842.jpg,2856919327-359676.jpg,1.0,,,,A3KVIZLKSASAES_2022-11-24_10h37.14.539.csv
178,68,,1.0,48.0,2238481928-19949.jpg,2989726338-74002.jpg,2.0,,,,A3KVIZLKSASAES_2022-11-24_10h37.14.539.csv
179,69,,1.0,49.0,2460547508-51571.jpg,2898633480-217189.jpg,2.0,,,,A3KVIZLKSASAES_2022-11-24_10h37.14.539.csv
180,70,right,0.0,50.0,left.jpg,,,left,1.333,,A3KVIZLKSASAES_2022-11-24_10h37.14.539.csv
181,71,,1.0,51.0,2883256307-365057.jpg,2901947448-70315.jpg,3.0,,,,A3KVIZLKSASAES_2022-11-24_10h37.14.539.csv
182,72,,1.0,52.0,2874307433-66280.jpg,2864900357-361688.jpg,2.0,,,,A3KVIZLKSASAES_2022-11-24_10h37.14.539.csv
183,73,,1.0,53.0,2238481198-19822.jpg,2901941438-69835.jpg,3.0,,,,A3KVIZLKSASAES_2022-11-24_10h37.14.539.csv
184,74,,1.0,54.0,2901939379-143480.jpg,2981229442-369621.jpg,1.0,,,,A3KVIZLKSASAES_2022-11-24_10h37.14.539.csv
185,75,,1.0,55.0,2898634397-367080.jpg,2898636423-69152.jpg,2.0,,,,A3KVIZLKSASAES_2022-11-24_10h37.14.539.csv
186,76,,1.0,56.0,2592380177-354626.jpg,2986408339-146952.jpg,1.0,,,,A3KVIZLKSASAES_2022-11-24_10h37.14.539.csv
187,77,,1.0,57.0,2449441881-272368.jpg,2238576222-334523.jpg,3.0,,,,A3KVIZLKSASAES_2022-11-24_10h37.14.539.csv
188,78,,1.0,58.0,2868475410-213219.jpg,2901946465-218350.jpg,1.0,,,,A3KVIZLKSASAES_2022-11-24_10h37.14.539.csv
189,79,,1.0,59.0,2901952513-70703.jpg,2901949316-293454.jpg,2.0,,,,A3KVIZLKSASAES_2022-11-24_10h37.14.539.csv
190,80,,1.0,60.0,2864910426-287204.jpg,2864903351-286874.jpg,2.0,,,,A3KVIZLKSASAES_2022-11-24_10h37.14.539.csv
191,81,,1.0,61.0,2898618444-142233.jpg,2898631359-142721.jpg,1.0,,,,A3KVIZLKSASAES_2022-11-24_10h37.14.539.csv
192,82,,1.0,62.0,2874301407-363895.jpg,2883264368-67631.jpg,1.0,,,,A3KVIZLKSASAES_2022-11-24_10h37.14.539.csv
193,83,,1.0,63.0,2458347385-199723.jpg,2512875824-126658.jpg,2.0,,,,A3KVIZLKSASAES_2022-11-24_10h37.14.539.csv
194,84,,1.0,64.0,2883268412-365898.jpg,2984626312-370849.jpg,1.0,,,,A3KVIZLKSASAES_2022-11-24_10h37.14.539.csv
195,20,,1.0,0.0,2460547467-349422.jpg,2898631394-142727.jpg,1.0,,,,A1T90U2KNBZZR5_2022-11-24_10h30.26.864.csv
196,21,,1.0,1.0,2898617468-68274.jpg,2238433340-164524.jpg,2.0,,,,A1T90U2KNBZZR5_2022-11-24_10h30.26.864.csv
197,22,,1.0,2.0,2238425482-313537.jpg,2238471391-240918.jpg,1.0,,,,A1T90U2KNBZZR5_2022-11-24_10h30.26.864.csv
198,23,,1.0,3.0,2901939379-143479.jpg,2446759803-49251.jpg,1.0,,,,A1T90U2KNBZZR5_2022-11-24_10h30.26.864.csv
199,24,,1.0,4.0,2874307433-66280.jpg,2986447306-296584.jpg,1.0,,,,A1T90U2KNBZZR5_2022-11-24_10h30.26.864.csv
200,25,,1.0,5.0,2238480677-317399.jpg,2446761173-49643.jpg,2.0,,,,A1T90U2KNBZZR5_2022-11-24_10h30.26.864.csv
201,26,,1.0,6.0,2446759803-49249.jpg,2238499155-170911.jpg,2.0,,,,A1T90U2KNBZZR5_2022-11-24_10h30.26.864.csv
202,27,,1.0,7.0,2446759347-347016.jpg,2864904415-212294.jpg,2.0,,,,A1T90U2KNBZZR5_2022-11-24_10h30.26.864.csv
203,28,,1.0,8.0,2458347385-199723.jpg,2238480434-93829.jpg,1.0,,,,A1T90U2KNBZZR5_2022-11-24_10h30.26.864.csv
204,29,right,1.0,9.0,right.jpg,,,right,1.9772,,A1T90U2KNBZZR5_2022-11-24_10h30.26.864.csv
205,30,,1.0,10.0,2238572663-35822.jpg,2575118671-277663.jpg,1.0,,,,A1T90U2KNBZZR5_2022-11-24_10h30.26.864.csv
206,31,,1.0,11.0,2883256307-365057.jpg,2901947448-70315.jpg,3.0,,,,A1T90U2KNBZZR5_2022-11-24_10h30.26.864.csv
207,32,,1.0,12.0,2452381505-199546.jpg,2898622392-366513.jpg,3.0,,,,A1T90U2KNBZZR5_2022-11-24_10h30.26.864.csv
208,33,,1.0,13.0,2868475410-213219.jpg,2862700345-211776.jpg,2.0,,,,A1T90U2KNBZZR5_2022-11-24_10h30.26.864.csv
209,34,,1.0,14.0,2981231403-71642.jpg,2274829821-263682.jpg,1.0,,,,A1T90U2KNBZZR5_2022-11-24_10h30.26.864.csv
210,35,,1.0,15.0,2592379964-131054.jpg,2575963989-130576.jpg,1.0,,,,A1T90U2KNBZZR5_2022-11-24_10h30.26.864.csv
211,36,,1.0,16.0,2238481198-19822.jpg,2901941438-69835.jpg,3.0,,,,A1T90U2KNBZZR5_2022-11-24_10h30.26.864.csv
212,37,,1.0,17.0,2901952513-70703.jpg,2864907361-287062.jpg,1.0,,,,A1T90U2KNBZZR5_2022-11-24_10h30.26.864.csv
213,38,,1.0,18.0,2901948350-218459.jpg,2238482369-94216.jpg,3.0,,,,A1T90U2KNBZZR5_2022-11-24_10h30.26.864.csv
214,39,left,1.0,19.0,left.jpg,,,left,0.6044,,A1T90U2KNBZZR5_2022-11-24_10h30.26.864.csv
215,40,,1.0,20.0,2964218374-144967.jpg,2898633476-291993.jpg,3.0,,,,A1T90U2KNBZZR5_2022-11-24_10h30.26.864.csv
216,41,,1.0,21.0,2446758985-197609.jpg,2981240424-145795.jpg,1.0,,,,A1T90U2KNBZZR5_2022-11-24_10h30.26.864.csv
217,42,,1.0,22.0,2986451363-73599.jpg,2238571930-184142.jpg,2.0,,,,A1T90U2KNBZZR5_2022-11-24_10h30.26.864.csv
218,43,,1.0,23.0,2901941401-292798.jpg,2964223380-219495.jpg,2.0,,,,A1T90U2KNBZZR5_2022-11-24_10h30.26.864.csv
219,44,,1.0,24.0,2898618390-216538.jpg,2864910427-362199.jpg,2.0,,,,A1T90U2KNBZZR5_2022-11-24_10h30.26.864.csv
220,45,,1.0,25.0,2238481928-19949.jpg,2864910427-362200.jpg,3.0,,,,A1T90U2KNBZZR5_2022-11-24_10h30.26.864.csv
221,46,,1.0,26.0,2981241414-145842.jpg,2868469411-287540.jpg,2.0,,,,A1T90U2KNBZZR5_2022-11-24_10h30.26.864.csv
222,47,,1.0,27.0,2449441881-272368.jpg,2898617374-142166.jpg,2.0,,,,A1T90U2KNBZZR5_2022-11-24_10h30.26.864.csv
223,48,,1.0,28.0,2898635428-69104.jpg,2446759803-49250.jpg,1.0,,,,A1T90U2KNBZZR5_2022-11-24_10h30.26.864.csv
224,49,,1.0,29.0,2238428357-313623.jpg,2238499057-320266.jpg,1.0,,,,A1T90U2KNBZZR5_2022-11-24_10h30.26.864.csv
225,50,right,1.0,30.0,right.jpg,,,right,1.3481,,A1T90U2KNBZZR5_2022-11-24_10h30.26.864.csv
226,51,,1.0,31.0,2898634397-367080.jpg,2446759306-271735.jpg,3.0,,,,A1T90U2KNBZZR5_2022-11-24_10h30.26.864.csv
227,52,,1.0,32.0,2874299429-139695.jpg,2238571930-184143.jpg,2.0,,,,A1T90U2KNBZZR5_2022-11-24_10h30.26.864.csv
228,53,,1.0,33.0,2449442529-124446.jpg,2452380171-273112.jpg,1.0,,,,A1T90U2KNBZZR5_2022-11-24_10h30.26.864.csv
229,54,,1.0,34.0,2874301407-363895.jpg,2901949316-293452.jpg,2.0,,,,A1T90U2KNBZZR5_2022-11-24_10h30.26.864.csv
230,55,,1.0,35.0,2592380177-354629.jpg,2901945495-218294.jpg,2.0,,,,A1T90U2KNBZZR5_2022-11-24_10h30.26.864.csv
231,56,,1.0,36.0,2898624426-291546.jpg,2898625336-291572.jpg,3.0,,,,A1T90U2KNBZZR5_2022-11-24_10h30.26.864.csv
232,57,,1.0,37.0,2874303365-214262.jpg,2424124794-120289.jpg,3.0,,,,A1T90U2KNBZZR5_2022-11-24_10h30.26.864.csv
233,58,,1.0,38.0,2238560245-182099.jpg,2549106624-127823.jpg,1.0,,,,A1T90U2KNBZZR5_2022-11-24_10h30.26.864.csv
234,59,,1.0,39.0,2901947423-70311.jpg,2874301385-214137.jpg,3.0,,,,A1T90U2KNBZZR5_2022-11-24_10h30.26.864.csv
235,60,,1.0,40.0,2874302418-65979.jpg,2901939433-69673.jpg,2.0,,,,A1T90U2KNBZZR5_2022-11-24_10h30.26.864.csv
236,61,,1.0,41.0,2883268412-365898.jpg,2862687418-62786.jpg,3.0,,,,A1T90U2KNBZZR5_2022-11-24_10h30.26.864.csv
237,62,right,1.0,42.0,right.jpg,,,right,0.2494,,A1T90U2KNBZZR5_2022-11-24_10h30.26.864.csv
238,63,,1.0,43.0,2898633421-291973.jpg,2512876023-52283.jpg,1.0,,,,A1T90U2KNBZZR5_2022-11-24_10h30.26.864.csv
239,64,,1.0,44.0,2964223381-294447.jpg,2901938432-367628.jpg,3.0,,,,A1T90U2KNBZZR5_2022-11-24_10h30.26.864.csv
240,65,,1.0,45.0,2868474407-362883.jpg,2874305405-214397.jpg,2.0,,,,A1T90U2KNBZZR5_2022-11-24_10h30.26.864.csv
241,66,,1.0,46.0,2898635427-367120.jpg,2898624426-291545.jpg,3.0,,,,A1T90U2KNBZZR5_2022-11-24_10h30.26.864.csv
242,67,,1.0,47.0,2883268471-290842.jpg,2898623398-68538.jpg,2.0,,,,A1T90U2KNBZZR5_2022-11-24_10h30.26.864.csv
243,68,,1.0,48.0,2512875899-126682.jpg,2238547107-328393.jpg,2.0,,,,A1T90U2KNBZZR5_2022-11-24_10h30.26.864.csv
244,69,,1.0,49.0,2901939379-143480.jpg,2981229442-369621.jpg,1.0,,,,A1T90U2KNBZZR5_2022-11-24_10h30.26.864.csv
245,70,,1.0,50.0,2883254439-140941.jpg,2883255450-215311.jpg,1.0,,,,A1T90U2KNBZZR5_2022-11-24_10h30.26.864.csv
246,71,,1.0,51.0,2898618444-142233.jpg,2898631359-142721.jpg,1.0,,,,A1T90U2KNBZZR5_2022-11-24_10h30.26.864.csv
247,72,,1.0,52.0,2964216465-219242.jpg,2238482539-94244.jpg,2.0,,,,A1T90U2KNBZZR5_2022-11-24_10h30.26.864.csv
248,73,,1.0,53.0,2592380177-354626.jpg,2579432708-56392.jpg,3.0,,,,A1T90U2KNBZZR5_2022-11-24_10h30.26.864.csv
249,74,right,1.0,54.0,right.jpg,,,right,1.3117,,A1T90U2KNBZZR5_2022-11-24_10h30.26.864.csv
250,75,,1.0,55.0,2864907432-362042.jpg,2898626395-216900.jpg,3.0,,,,A1T90U2KNBZZR5_2022-11-24_10h30.26.864.csv
251,76,,1.0,56.0,2864910426-287204.jpg,2864902304-137862.jpg,1.0,,,,A1T90U2KNBZZR5_2022-11-24_10h30.26.864.csv
252,77,,1.0,57.0,2449442529-124445.jpg,2452380166-273109.jpg,1.0,,,,A1T90U2KNBZZR5_2022-11-24_10h30.26.864.csv
253,78,,1.0,58.0,2460547467-349421.jpg,2898619327-366362.jpg,3.0,,,,A1T90U2KNBZZR5_2022-11-24_10h30.26.864.csv
254,79,,1.0,59.0,2575120738-55529.jpg,2460547859-126142.jpg,3.0,,,,A1T90U2KNBZZR5_2022-11-24_10h30.26.864.csv
255,80,,1.0,60.0,2874302418-65978.jpg,2238577555-185462.jpg,2.0,,,,A1T90U2KNBZZR5_2022-11-24_10h30.26.864.csv
256,81,,1.0,61.0,2964213381-294060.jpg,2883254439-140940.jpg,3.0,,,,A1T90U2KNBZZR5_2022-11-24_10h30.26.864.csv
257,82,,1.0,62.0,2452380832-348593.jpg,2237856283-1014.jpg,3.0,,,,A1T90U2KNBZZR5_2022-11-24_10h30.26.864.csv
258,83,,1.0,63.0,2460547508-51571.jpg,2901941438-69836.jpg,3.0,,,,A1T90U2KNBZZR5_2022-11-24_10h30.26.864.csv
259,84,,1.0,64.0,2238580740-186218.jpg,2575121108-55628.jpg,2.0,,,,A1T90U2KNBZZR5_2022-11-24_10h30.26.864.csv
260,20,,1.0,0.0,2449441881-272368.jpg,2898617374-142166.jpg,2.0,,,,A1VSEDABJFNUVQ_2022-11-24_10h31.40.849.csv
261,21,,1.0,1.0,2446759803-49249.jpg,2446760844-124088.jpg,3.0,,,,A1VSEDABJFNUVQ_2022-11-24_10h31.40.849.csv
262,22,,1.0,2.0,2898624426-291546.jpg,2964207374-144577.jpg,1.0,,,,A1VSEDABJFNUVQ_2022-11-24_10h31.40.849.csv
263,23,,1.0,3.0,2874307433-66280.jpg,2864900357-361688.jpg,2.0,,,,A1VSEDABJFNUVQ_2022-11-24_10h31.40.849.csv
264,24,,1.0,4.0,2898617468-68274.jpg,2981243399-145923.jpg,3.0,,,,A1VSEDABJFNUVQ_2022-11-24_10h31.40.849.csv
265,25,,1.0,5.0,2446759347-347016.jpg,2964224310-219528.jpg,1.0,,,,A1VSEDABJFNUVQ_2022-11-24_10h31.40.849.csv
266,26,,1.0,6.0,2874302418-65978.jpg,2238577555-185462.jpg,2.0,,,,A1VSEDABJFNUVQ_2022-11-24_10h31.40.849.csv
267,27,,1.0,7.0,2964223381-294447.jpg,2901938432-367628.jpg,3.0,,,,A1VSEDABJFNUVQ_2022-11-24_10h31.40.849.csv
268,28,,1.0,8.0,2238580740-186218.jpg,2575121108-55628.jpg,2.0,,,,A1VSEDABJFNUVQ_2022-11-24_10h31.40.849.csv
269,29,,1.0,9.0,2864910426-287204.jpg,2898632427-367006.jpg,3.0,,,,A1VSEDABJFNUVQ_2022-11-24_10h31.40.849.csv
270,30,,1.0,10.0,2460547508-51571.jpg,2901941438-69836.jpg,3.0,,,,A1VSEDABJFNUVQ_2022-11-24_10h31.40.849.csv
271,31,,1.0,11.0,2898635428-69104.jpg,2864904390-212289.jpg,2.0,,,,A1VSEDABJFNUVQ_2022-11-24_10h31.40.849.csv
272,32,left,1.0,12.0,left.jpg,,,left,1.1506,,A1VSEDABJFNUVQ_2022-11-24_10h31.40.849.csv
273,33,,1.0,13.0,2964216465-219242.jpg,2238482539-94244.jpg,2.0,,,,A1VSEDABJFNUVQ_2022-11-24_10h31.40.849.csv
274,34,,1.0,14.0,2874302418-65979.jpg,2413147898-43548.jpg,1.0,,,,A1VSEDABJFNUVQ_2022-11-24_10h31.40.849.csv
275,35,,1.0,15.0,2868475410-213219.jpg,2862700345-211776.jpg,2.0,,,,A1VSEDABJFNUVQ_2022-11-24_10h31.40.849.csv
276,36,,1.0,16.0,2592380177-354629.jpg,2898633421-291974.jpg,1.0,,,,A1VSEDABJFNUVQ_2022-11-24_10h31.40.849.csv
277,37,,1.0,17.0,2986451363-73599.jpg,2238571930-184142.jpg,2.0,,,,A1VSEDABJFNUVQ_2022-11-24_10h31.40.849.csv
278,38,,1.0,18.0,2452381505-199546.jpg,2901938432-367627.jpg,1.0,,,,A1VSEDABJFNUVQ_2022-11-24_10h31.40.849.csv
279,39,,1.0,19.0,2238428357-313623.jpg,2238499057-320266.jpg,1.0,,,,A1VSEDABJFNUVQ_2022-11-24_10h31.40.849.csv
280,40,,1.0,20.0,2868474407-362883.jpg,2898634332-367068.jpg,3.0,,,,A1VSEDABJFNUVQ_2022-11-24_10h31.40.849.csv
281,41,left,1.0,21.0,left.jpg,,,left,1.6986,,A1VSEDABJFNUVQ_2022-11-24_10h31.40.849.csv
282,42,,1.0,22.0,2964213381-294060.jpg,2981244394-145974.jpg,1.0,,,,A1VSEDABJFNUVQ_2022-11-24_10h31.40.849.csv
283,43,,1.0,23.0,2238480677-317399.jpg,2238481630-168218.jpg,1.0,,,,A1VSEDABJFNUVQ_2022-11-24_10h31.40.849.csv
284,44,,1.0,24.0,2446758985-197609.jpg,2452380166-273110.jpg,2.0,,,,A1VSEDABJFNUVQ_2022-11-24_10h31.40.849.csv
285,45,,1.0,25.0,2864907432-362042.jpg,2898626395-216900.jpg,3.0,,,,A1VSEDABJFNUVQ_2022-11-24_10h31.40.849.csv
286,46,,1.0,26.0,2874301407-363895.jpg,2989715317-371697.jpg,3.0,,,,A1VSEDABJFNUVQ_2022-11-24_10h31.40.849.csv
287,47,,1.0,27.0,2981231403-71642.jpg,2274829821-263682.jpg,1.0,,,,A1VSEDABJFNUVQ_2022-11-24_10h31.40.849.csv
288,48,,0.0,28.0,right.jpg,,,right,,,A1VSEDABJFNUVQ_2022-11-24_10h31.40.849.csv
289,49,,1.0,29.0,2449442529-124445.jpg,2901946439-144040.jpg,3.0,,,,A1VSEDABJFNUVQ_2022-11-24_10h31.40.849.csv
290,50,,1.0,30.0,2238560245-182099.jpg,2238467949-92250.jpg,2.0,,,,A1VSEDABJFNUVQ_2022-11-24_10h31.40.849.csv
291,51,,1.0,31.0,2449442529-124446.jpg,2964216376-294181.jpg,2.0,,,,A1VSEDABJFNUVQ_2022-11-24_10h31.40.849.csv
292,52,,1.0,32.0,2883256307-365057.jpg,2611628310-206388.jpg,1.0,,,,A1VSEDABJFNUVQ_2022-11-24_10h31.40.849.csv
293,53,,1.0,33.0,2898633421-291973.jpg,2512876023-52283.jpg,1.0,,,,A1VSEDABJFNUVQ_2022-11-24_10h31.40.849.csv
294,54,,1.0,34.0,2901952513-70703.jpg,2901949316-293454.jpg,2.0,,,,A1VSEDABJFNUVQ_2022-11-24_10h31.40.849.csv
295,55,,1.0,35.0,2238425482-313537.jpg,2238471391-240918.jpg,1.0,,,,A1VSEDABJFNUVQ_2022-11-24_10h31.40.849.csv
296,56,,1.0,36.0,2874303365-214262.jpg,2424124794-120289.jpg,3.0,,,,A1VSEDABJFNUVQ_2022-11-24_10h31.40.849.csv
297,57,,1.0,37.0,2238481198-19822.jpg,2864908448-64141.jpg,1.0,,,,A1VSEDABJFNUVQ_2022-11-24_10h31.40.849.csv
298,58,,0.0,38.0,left.jpg,,,left,,,A1VSEDABJFNUVQ_2022-11-24_10h31.40.849.csv
299,59,,1.0,39.0,2874299429-139695.jpg,2238571930-184143.jpg,2.0,,,,A1VSEDABJFNUVQ_2022-11-24_10h31.40.849.csv
300,60,,1.0,40.0,2458347385-199723.jpg,2512875824-126658.jpg,2.0,,,,A1VSEDABJFNUVQ_2022-11-24_10h31.40.849.csv
301,61,,1.0,41.0,2901941401-292798.jpg,2883273443-68192.jpg,3.0,,,,A1VSEDABJFNUVQ_2022-11-24_10h31.40.849.csv
302,62,,1.0,42.0,2898618390-216538.jpg,2238574968-36441.jpg,3.0,,,,A1VSEDABJFNUVQ_2022-11-24_10h31.40.849.csv
303,63,,1.0,43.0,2452380832-348593.jpg,2237856283-1014.jpg,3.0,,,,A1VSEDABJFNUVQ_2022-11-24_10h31.40.849.csv
304,64,,1.0,44.0,2883254439-140941.jpg,2460548070-200336.jpg,2.0,,,,A1VSEDABJFNUVQ_2022-11-24_10h31.40.849.csv
305,65,,1.0,45.0,2898618444-142233.jpg,2804906319-133082.jpg,3.0,,,,A1VSEDABJFNUVQ_2022-11-24_10h31.40.849.csv
306,66,,1.0,46.0,2901947423-70311.jpg,2860312398-62572.jpg,1.0,,,,A1VSEDABJFNUVQ_2022-11-24_10h31.40.849.csv
307,67,,1.0,47.0,2981241414-145842.jpg,2238427023-15948.jpg,3.0,,,,A1VSEDABJFNUVQ_2022-11-24_10h31.40.849.csv
308,68,,1.0,48.0,2592380177-354626.jpg,2579432708-56392.jpg,3.0,,,,A1VSEDABJFNUVQ_2022-11-24_10h31.40.849.csv
309,69,,1.0,49.0,2883268471-290842.jpg,2883268471-290843.jpg,1.0,,,,A1VSEDABJFNUVQ_2022-11-24_10h31.40.849.csv
310,70,,1.0,50.0,2964218374-144967.jpg,2898633476-291993.jpg,3.0,,,,A1VSEDABJFNUVQ_2022-11-24_10h31.40.849.csv
311,71,,1.0,51.0,2883268412-365898.jpg,2984615358-72439.jpg,2.0,,,,A1VSEDABJFNUVQ_2022-11-24_10h31.40.849.csv
312,72,,0.0,52.0,left.jpg,,,left,,,A1VSEDABJFNUVQ_2022-11-24_10h31.40.849.csv
313,73,,1.0,53.0,2901948350-218459.jpg,2868487415-213922.jpg,1.0,,,,A1VSEDABJFNUVQ_2022-11-24_10h31.40.849.csv
314,74,,1.0,54.0,2460547467-349421.jpg,2898619327-366362.jpg,3.0,,,,A1VSEDABJFNUVQ_2022-11-24_10h31.40.849.csv
315,75,,1.0,55.0,2575120738-55529.jpg,2460547859-126142.jpg,3.0,,,,A1VSEDABJFNUVQ_2022-11-24_10h31.40.849.csv
316,76,,1.0,56.0,2512875899-126682.jpg,2898618440-216545.jpg,1.0,,,,A1VSEDABJFNUVQ_2022-11-24_10h31.40.849.csv
317,77,,1.0,57.0,2898634397-367080.jpg,2446759306-271735.jpg,3.0,,,,A1VSEDABJFNUVQ_2022-11-24_10h31.40.849.csv
318,78,,1.0,58.0,2901939379-143480.jpg,2981229442-369621.jpg,1.0,,,,A1VSEDABJFNUVQ_2022-11-24_10h31.40.849.csv
319,79,,1.0,59.0,2238481928-19949.jpg,2989726338-74002.jpg,2.0,,,,A1VSEDABJFNUVQ_2022-11-24_10h31.40.849.csv
320,80,,1.0,60.0,2460547467-349422.jpg,2898631394-142727.jpg,1.0,,,,A1VSEDABJFNUVQ_2022-11-24_10h31.40.849.csv
321,81,,1.0,61.0,2898635427-367120.jpg,2449442621-272561.jpg,2.0,,,,A1VSEDABJFNUVQ_2022-11-24_10h31.40.849.csv
322,82,,1.0,62.0,2592379964-131054.jpg,2427875694-122097.jpg,2.0,,,,A1VSEDABJFNUVQ_2022-11-24_10h31.40.849.csv
323,83,,1.0,63.0,2901939379-143479.jpg,2446759803-49251.jpg,1.0,,,,A1VSEDABJFNUVQ_2022-11-24_10h31.40.849.csv
324,84,,1.0,64.0,2238572663-35822.jpg,2984615361-295510.jpg,2.0,,,,A1VSEDABJFNUVQ_2022-11-24_10h31.40.849.csv
325,20,,1.0,0.0,2238425482-313537.jpg,2864901352-361731.jpg,3.0,,,,A3EFT5ETMGRUC2_2022-11-24_10h38.21.210.csv
326,21,,1.0,1.0,2964223381-294447.jpg,2901938432-367628.jpg,3.0,,,,A3EFT5ETMGRUC2_2022-11-24_10h38.21.210.csv
327,22,,1.0,2.0,2898624426-291546.jpg,2898626395-216901.jpg,2.0,,,,A3EFT5ETMGRUC2_2022-11-24_10h38.21.210.csv
328,23,,1.0,3.0,2874302418-65979.jpg,2413147898-43548.jpg,1.0,,,,A3EFT5ETMGRUC2_2022-11-24_10h38.21.210.csv
329,24,,1.0,4.0,2898634397-367080.jpg,2898636423-69152.jpg,2.0,,,,A3EFT5ETMGRUC2_2022-11-24_10h38.21.210.csv
330,25,,1.0,5.0,2874302418-65978.jpg,2238567130-183315.jpg,3.0,,,,A3EFT5ETMGRUC2_2022-11-24_10h38.21.210.csv
331,26,,1.0,6.0,2592380177-354629.jpg,2901945495-218294.jpg,2.0,,,,A3EFT5ETMGRUC2_2022-11-24_10h38.21.210.csv
332,27,right,1.0,7.0,right.jpg,,,right,1.0472,,A3EFT5ETMGRUC2_2022-11-24_10h38.21.210.csv
333,28,,1.0,8.0,2874299429-139695.jpg,2238571930-184143.jpg,2.0,,,,A3EFT5ETMGRUC2_2022-11-24_10h38.21.210.csv
334,29,,1.0,9.0,2238481198-19822.jpg,2864908448-64141.jpg,1.0,,,,A3EFT5ETMGRUC2_2022-11-24_10h38.21.210.csv
335,30,,1.0,10.0,2901952513-70703.jpg,2901949316-293454.jpg,2.0,,,,A3EFT5ETMGRUC2_2022-11-24_10h38.21.210.csv
336,31,,1.0,11.0,2238480677-317399.jpg,2238481630-168218.jpg,1.0,,,,A3EFT5ETMGRUC2_2022-11-24_10h38.21.210.csv
337,32,,1.0,12.0,2446759803-49249.jpg,2238499155-170911.jpg,2.0,,,,A3EFT5ETMGRUC2_2022-11-24_10h38.21.210.csv
338,33,,1.0,13.0,2864910426-287204.jpg,2898632427-367006.jpg,3.0,,,,A3EFT5ETMGRUC2_2022-11-24_10h38.21.210.csv
339,34,,1.0,14.0,2446759347-347016.jpg,2864904415-212294.jpg,2.0,,,,A3EFT5ETMGRUC2_2022-11-24_10h38.21.210.csv
340,35,,1.0,15.0,2883256307-365057.jpg,2864901420-212148.jpg,2.0,,,,A3EFT5ETMGRUC2_2022-11-24_10h38.21.210.csv
341,36,right,1.0,16.0,right.jpg,,,right,1.070200001,,A3EFT5ETMGRUC2_2022-11-24_10h38.21.210.csv
342,37,,1.0,17.0,2452380832-348593.jpg,2238515978-25479.jpg,2.0,,,,A3EFT5ETMGRUC2_2022-11-24_10h38.21.210.csv
343,38,,1.0,18.0,2883268471-290842.jpg,2883268471-290843.jpg,1.0,,,,A3EFT5ETMGRUC2_2022-11-24_10h38.21.210.csv
344,39,,1.0,19.0,2592380177-354626.jpg,2986408339-146952.jpg,1.0,,,,A3EFT5ETMGRUC2_2022-11-24_10h38.21.210.csv
345,40,,1.0,20.0,2874301407-363895.jpg,2883264368-67631.jpg,1.0,,,,A3EFT5ETMGRUC2_2022-11-24_10h38.21.210.csv
346,41,,1.0,21.0,2460547467-349421.jpg,2981235446-294901.jpg,2.0,,,,A3EFT5ETMGRUC2_2022-11-24_10h38.21.210.csv
347,42,,1.0,22.0,2512875899-126682.jpg,2512875899-126681.jpg,3.0,,,,A3EFT5ETMGRUC2_2022-11-24_10h38.21.210.csv
348,43,,1.0,23.0,2460547467-349422.jpg,2989721311-296963.jpg,2.0,,,,A3EFT5ETMGRUC2_2022-11-24_10h38.21.210.csv
349,44,,1.0,24.0,2449442529-124446.jpg,2452380171-273112.jpg,1.0,,,,A3EFT5ETMGRUC2_2022-11-24_10h38.21.210.csv
350,45,,1.0,25.0,2449441881-272368.jpg,2984615361-295509.jpg,1.0,,,,A3EFT5ETMGRUC2_2022-11-24_10h38.21.210.csv
351,46,,1.0,26.0,2458347385-199723.jpg,2512875824-126658.jpg,2.0,,,,A3EFT5ETMGRUC2_2022-11-24_10h38.21.210.csv
352,47,,1.0,27.0,2901941401-292798.jpg,2238577590-185467.jpg,1.0,,,,A3EFT5ETMGRUC2_2022-11-24_10h38.21.210.csv
353,48,,1.0,28.0,2238572663-35822.jpg,2238375825-162206.jpg,3.0,,,,A3EFT5ETMGRUC2_2022-11-24_10h38.21.210.csv
354,49,right,1.0,29.0,right.jpg,,,right,1.075,,A3EFT5ETMGRUC2_2022-11-24_10h38.21.210.csv
355,50,,1.0,30.0,2868475410-213219.jpg,2901946465-218350.jpg,1.0,,,,A3EFT5ETMGRUC2_2022-11-24_10h38.21.210.csv
356,51,,1.0,31.0,2874303365-214262.jpg,2609793677-355397.jpg,1.0,,,,A3EFT5ETMGRUC2_2022-11-24_10h38.21.210.csv
357,52,,1.0,32.0,2446758985-197609.jpg,2238087237-303447.jpg,3.0,,,,A3EFT5ETMGRUC2_2022-11-24_10h38.21.210.csv
358,53,,1.0,33.0,2901939379-143480.jpg,2901933403-69214.jpg,3.0,,,,A3EFT5ETMGRUC2_2022-11-24_10h38.21.210.csv
359,54,,1.0,34.0,2874307433-66280.jpg,2986447306-296584.jpg,1.0,,,,A3EFT5ETMGRUC2_2022-11-24_10h38.21.210.csv
360,55,,1.0,35.0,2898617468-68274.jpg,2864906345-212360.jpg,1.0,,,,A3EFT5ETMGRUC2_2022-11-24_10h38.21.210.csv
361,56,,1.0,36.0,2901939379-143479.jpg,2446759306-271734.jpg,3.0,,,,A3EFT5ETMGRUC2_2022-11-24_10h38.21.210.csv
362,57,,1.0,37.0,2986451363-73599.jpg,2901939327-367669.jpg,1.0,,,,A3EFT5ETMGRUC2_2022-11-24_10h38.21.210.csv
363,58,,1.0,38.0,2898618390-216538.jpg,2238574968-36441.jpg,3.0,,,,A3EFT5ETMGRUC2_2022-11-24_10h38.21.210.csv
364,59,,1.0,39.0,2898633421-291973.jpg,2512876023-52283.jpg,1.0,,,,A3EFT5ETMGRUC2_2022-11-24_10h38.21.210.csv
365,60,,1.0,40.0,2238481928-19949.jpg,2864910427-362200.jpg,3.0,,,,A3EFT5ETMGRUC2_2022-11-24_10h38.21.210.csv
366,61,,1.0,41.0,2452381505-199546.jpg,2898622392-366513.jpg,3.0,,,,A3EFT5ETMGRUC2_2022-11-24_10h38.21.210.csv
367,62,,1.0,42.0,2238560245-182099.jpg,2238467949-92250.jpg,2.0,,,,A3EFT5ETMGRUC2_2022-11-24_10h38.21.210.csv
368,63,left,1.0,43.0,left.jpg,,,left,1.1397,,A3EFT5ETMGRUC2_2022-11-24_10h38.21.210.csv
369,64,,1.0,44.0,2460547508-51571.jpg,2446760917-347439.jpg,1.0,,,,A3EFT5ETMGRUC2_2022-11-24_10h38.21.210.csv
370,65,,1.0,45.0,2864907432-362042.jpg,2864901420-212147.jpg,1.0,,,,A3EFT5ETMGRUC2_2022-11-24_10h38.21.210.csv
371,66,,1.0,46.0,2898635427-367120.jpg,2898624426-291545.jpg,3.0,,,,A3EFT5ETMGRUC2_2022-11-24_10h38.21.210.csv
372,67,right,1.0,47.0,right.jpg,,,right,0.996099999,,A3EFT5ETMGRUC2_2022-11-24_10h38.21.210.csv
373,68,,1.0,48.0,2238580740-186218.jpg,2874312404-140477.jpg,3.0,,,,A3EFT5ETMGRUC2_2022-11-24_10h38.21.210.csv
374,69,,1.0,49.0,2898618444-142233.jpg,2804906319-133082.jpg,3.0,,,,A3EFT5ETMGRUC2_2022-11-24_10h38.21.210.csv
375,70,,1.0,50.0,2964216465-219242.jpg,2238482539-94244.jpg,2.0,,,,A3EFT5ETMGRUC2_2022-11-24_10h38.21.210.csv
376,71,,1.0,51.0,2964213381-294060.jpg,2883254439-140940.jpg,3.0,,,,A3EFT5ETMGRUC2_2022-11-24_10h38.21.210.csv
377,72,,1.0,52.0,2575120738-55529.jpg,2901946413-70227.jpg,2.0,,,,A3EFT5ETMGRUC2_2022-11-24_10h38.21.210.csv
378,73,,1.0,53.0,2592379964-131054.jpg,2424122686-268072.jpg,3.0,,,,A3EFT5ETMGRUC2_2022-11-24_10h38.21.210.csv
379,74,,1.0,54.0,2901948350-218459.jpg,2868487415-213922.jpg,1.0,,,,A3EFT5ETMGRUC2_2022-11-24_10h38.21.210.csv
380,75,,1.0,55.0,2964218374-144967.jpg,2898633476-291993.jpg,3.0,,,,A3EFT5ETMGRUC2_2022-11-24_10h38.21.210.csv
381,76,,1.0,56.0,2901947423-70311.jpg,2446759065-197639.jpg,2.0,,,,A3EFT5ETMGRUC2_2022-11-24_10h38.21.210.csv
382,77,,1.0,57.0,2883268412-365898.jpg,2984615358-72439.jpg,2.0,,,,A3EFT5ETMGRUC2_2022-11-24_10h38.21.210.csv
383,78,,1.0,58.0,2883254439-140941.jpg,2460548070-200336.jpg,2.0,,,,A3EFT5ETMGRUC2_2022-11-24_10h38.21.210.csv
384,79,,1.0,59.0,2868474407-362883.jpg,2238516618-25604.jpg,1.0,,,,A3EFT5ETMGRUC2_2022-11-24_10h38.21.210.csv
385,80,,1.0,60.0,2449442529-124445.jpg,2901948476-293423.jpg,2.0,,,,A3EFT5ETMGRUC2_2022-11-24_10h38.21.210.csv
386,81,,1.0,61.0,2898635428-69104.jpg,2901942428-69919.jpg,3.0,,,,A3EFT5ETMGRUC2_2022-11-24_10h38.21.210.csv
387,82,,1.0,62.0,2238428357-313623.jpg,2238499057-320266.jpg,1.0,,,,A3EFT5ETMGRUC2_2022-11-24_10h38.21.210.csv
388,83,,1.0,63.0,2981231403-71642.jpg,2864900358-63717.jpg,2.0,,,,A3EFT5ETMGRUC2_2022-11-24_10h38.21.210.csv
389,84,,1.0,64.0,2981241414-145842.jpg,2238427023-15948.jpg,3.0,,,,A3EFT5ETMGRUC2_2022-11-24_10h38.21.210.csv
390,20,,1.0,0.0,2449442529-124445.jpg,2452380166-273109.jpg,1.0,,,,A3HZFB2JLF3JMY_2022-11-24_10h28.21.791.csv
391,21,,1.0,1.0,2460547467-349422.jpg,2989721311-296963.jpg,2.0,,,,A3HZFB2JLF3JMY_2022-11-24_10h28.21.791.csv
392,22,,1.0,2.0,2901941401-292798.jpg,2238577590-185467.jpg,1.0,,,,A3HZFB2JLF3JMY_2022-11-24_10h28.21.791.csv
393,23,,1.0,3.0,2238572663-35822.jpg,2238375825-162206.jpg,3.0,,,,A3HZFB2JLF3JMY_2022-11-24_10h28.21.791.csv
394,24,,1.0,4.0,2446759803-49249.jpg,2446760601-272099.jpg,1.0,,,,A3HZFB2JLF3JMY_2022-11-24_10h28.21.791.csv
395,25,,1.0,5.0,2238580740-186218.jpg,2874312404-140477.jpg,3.0,,,,A3HZFB2JLF3JMY_2022-11-24_10h28.21.791.csv
396,26,,1.0,6.0,2512875899-126682.jpg,2898618440-216545.jpg,1.0,,,,A3HZFB2JLF3JMY_2022-11-24_10h28.21.791.csv
397,27,,1.0,7.0,2449441881-272368.jpg,2898617374-142166.jpg,2.0,,,,A3HZFB2JLF3JMY_2022-11-24_10h28.21.791.csv
398,28,,1.0,8.0,2898624426-291546.jpg,2898626395-216901.jpg,2.0,,,,A3HZFB2JLF3JMY_2022-11-24_10h28.21.791.csv
399,29,,1.0,9.0,2575120738-55529.jpg,2898632385-217137.jpg,1.0,,,,A3HZFB2JLF3JMY_2022-11-24_10h28.21.791.csv
400,30,,1.0,10.0,2238481928-19949.jpg,2864910427-362200.jpg,3.0,,,,A3HZFB2JLF3JMY_2022-11-24_10h28.21.791.csv
401,31,,1.0,11.0,2460547508-51571.jpg,2446760917-347439.jpg,1.0,,,,A3HZFB2JLF3JMY_2022-11-24_10h28.21.791.csv
402,32,,1.0,12.0,2901939379-143480.jpg,2901933403-69214.jpg,3.0,,,,A3HZFB2JLF3JMY_2022-11-24_10h28.21.791.csv
403,33,right,1.0,13.0,right.jpg,,,right,1.0698,,A3HZFB2JLF3JMY_2022-11-24_10h28.21.791.csv
404,34,,1.0,14.0,2981241414-145842.jpg,2238427023-15948.jpg,3.0,,,,A3HZFB2JLF3JMY_2022-11-24_10h28.21.791.csv
405,35,,1.0,15.0,2452380832-348593.jpg,2238515978-25479.jpg,2.0,,,,A3HZFB2JLF3JMY_2022-11-24_10h28.21.791.csv
406,36,,1.0,16.0,2592380177-354626.jpg,2238360787-310962.jpg,2.0,,,,A3HZFB2JLF3JMY_2022-11-24_10h28.21.791.csv
407,37,,1.0,17.0,2868475410-213219.jpg,2238558380-181702.jpg,3.0,,,,A3HZFB2JLF3JMY_2022-11-24_10h28.21.791.csv
408,38,,1.0,18.0,2898617468-68274.jpg,2981243399-145923.jpg,3.0,,,,A3HZFB2JLF3JMY_2022-11-24_10h28.21.791.csv
409,39,,1.0,19.0,2458347385-199723.jpg,2238480434-93829.jpg,1.0,,,,A3HZFB2JLF3JMY_2022-11-24_10h28.21.791.csv
410,40,right,1.0,20.0,right.jpg,,,right,0.5248,,A3HZFB2JLF3JMY_2022-11-24_10h28.21.791.csv
411,41,,1.0,21.0,2964218374-144967.jpg,2964218374-144968.jpg,1.0,,,,A3HZFB2JLF3JMY_2022-11-24_10h28.21.791.csv
412,42,,1.0,22.0,2446759347-347016.jpg,2964224310-219528.jpg,1.0,,,,A3HZFB2JLF3JMY_2022-11-24_10h28.21.791.csv
413,43,,1.0,23.0,2874301407-363895.jpg,2989715317-371697.jpg,3.0,,,,A3HZFB2JLF3JMY_2022-11-24_10h28.21.791.csv
414,44,,1.0,24.0,2446758985-197609.jpg,2238087237-303447.jpg,3.0,,,,A3HZFB2JLF3JMY_2022-11-24_10h28.21.791.csv
415,45,,1.0,25.0,2874302418-65978.jpg,2238577555-185462.jpg,2.0,,,,A3HZFB2JLF3JMY_2022-11-24_10h28.21.791.csv
416,46,,1.0,26.0,2898618444-142233.jpg,2862691449-137104.jpg,2.0,,,,A3HZFB2JLF3JMY_2022-11-24_10h28.21.791.csv
417,47,,1.0,27.0,2868474407-362883.jpg,2874305405-214397.jpg,2.0,,,,A3HZFB2JLF3JMY_2022-11-24_10h28.21.791.csv
418,48,,1.0,28.0,2964223381-294447.jpg,2901938432-367628.jpg,3.0,,,,A3HZFB2JLF3JMY_2022-11-24_10h28.21.791.csv
419,49,left,1.0,29.0,left.jpg,,,left,0.4059,,A3HZFB2JLF3JMY_2022-11-24_10h28.21.791.csv
420,50,,1.0,30.0,2883268471-290842.jpg,2898623398-68538.jpg,2.0,,,,A3HZFB2JLF3JMY_2022-11-24_10h28.21.791.csv
421,51,,1.0,31.0,2238481198-19822.jpg,2862689306-285912.jpg,2.0,,,,A3HZFB2JLF3JMY_2022-11-24_10h28.21.791.csv
422,52,,1.0,32.0,2883254439-140941.jpg,2460548070-200336.jpg,2.0,,,,A3HZFB2JLF3JMY_2022-11-24_10h28.21.791.csv
423,53,,1.0,33.0,2874299429-139695.jpg,2883266388-67750.jpg,1.0,,,,A3HZFB2JLF3JMY_2022-11-24_10h28.21.791.csv
424,54,,1.0,34.0,2898635427-367120.jpg,2964221435-219434.jpg,1.0,,,,A3HZFB2JLF3JMY_2022-11-24_10h28.21.791.csv
425,55,,1.0,35.0,2898635428-69104.jpg,2864904390-212289.jpg,2.0,,,,A3HZFB2JLF3JMY_2022-11-24_10h28.21.791.csv
426,56,,1.0,36.0,2883256307-365057.jpg,2611628310-206388.jpg,1.0,,,,A3HZFB2JLF3JMY_2022-11-24_10h28.21.791.csv
427,57,,1.0,37.0,2238428357-313623.jpg,2238499057-320266.jpg,1.0,,,,A3HZFB2JLF3JMY_2022-11-24_10h28.21.791.csv
428,58,,1.0,38.0,2592380177-354629.jpg,2898633421-291974.jpg,1.0,,,,A3HZFB2JLF3JMY_2022-11-24_10h28.21.791.csv
429,59,right,1.0,39.0,right.jpg,,,right,0.4481,,A3HZFB2JLF3JMY_2022-11-24_10h28.21.791.csv
430,60,,1.0,40.0,2901947423-70311.jpg,2874301385-214137.jpg,3.0,,,,A3HZFB2JLF3JMY_2022-11-24_10h28.21.791.csv
431,61,,1.0,41.0,2874303365-214262.jpg,2512875685-200826.jpg,2.0,,,,A3HZFB2JLF3JMY_2022-11-24_10h28.21.791.csv
432,62,,1.0,42.0,2898634397-367080.jpg,2898636423-69152.jpg,2.0,,,,A3HZFB2JLF3JMY_2022-11-24_10h28.21.791.csv
433,63,,1.0,43.0,2901952513-70703.jpg,2901949316-293454.jpg,2.0,,,,A3HZFB2JLF3JMY_2022-11-24_10h28.21.791.csv
434,64,,1.0,44.0,2901948350-218459.jpg,2898629328-68806.jpg,2.0,,,,A3HZFB2JLF3JMY_2022-11-24_10h28.21.791.csv
435,65,,1.0,45.0,2864910426-287204.jpg,2864902304-137862.jpg,1.0,,,,A3HZFB2JLF3JMY_2022-11-24_10h28.21.791.csv
436,66,,1.0,46.0,2460547467-349421.jpg,2981235446-294901.jpg,2.0,,,,A3HZFB2JLF3JMY_2022-11-24_10h28.21.791.csv
437,67,,1.0,47.0,2981231403-71642.jpg,2238574878-36413.jpg,3.0,,,,A3HZFB2JLF3JMY_2022-11-24_10h28.21.791.csv
438,68,,1.0,48.0,2964213381-294060.jpg,2883254439-140940.jpg,3.0,,,,A3HZFB2JLF3JMY_2022-11-24_10h28.21.791.csv
439,69,,1.0,49.0,2986451363-73599.jpg,2898630381-291834.jpg,3.0,,,,A3HZFB2JLF3JMY_2022-11-24_10h28.21.791.csv
440,70,,1.0,50.0,2901939379-143479.jpg,2901938398-69594.jpg,2.0,,,,A3HZFB2JLF3JMY_2022-11-24_10h28.21.791.csv
441,71,,1.0,51.0,2592379964-131054.jpg,2424122686-268072.jpg,3.0,,,,A3HZFB2JLF3JMY_2022-11-24_10h28.21.791.csv
442,72,right,1.0,52.0,right.jpg,,,right,1.0849,,A3HZFB2JLF3JMY_2022-11-24_10h28.21.791.csv
443,73,,1.0,53.0,2883268412-365898.jpg,2984626312-370849.jpg,1.0,,,,A3HZFB2JLF3JMY_2022-11-24_10h28.21.791.csv
444,74,,1.0,54.0,2964216465-219242.jpg,2981231403-71641.jpg,3.0,,,,A3HZFB2JLF3JMY_2022-11-24_10h28.21.791.csv
445,75,,1.0,55.0,2238425482-313537.jpg,2864901352-361731.jpg,3.0,,,,A3HZFB2JLF3JMY_2022-11-24_10h28.21.791.csv
446,76,,1.0,56.0,2874307433-66280.jpg,2446759396-271761.jpg,3.0,,,,A3HZFB2JLF3JMY_2022-11-24_10h28.21.791.csv
447,77,,1.0,57.0,2238560245-182099.jpg,2238467949-92250.jpg,2.0,,,,A3HZFB2JLF3JMY_2022-11-24_10h28.21.791.csv
448,78,,1.0,58.0,2898633421-291973.jpg,2512876023-52283.jpg,1.0,,,,A3HZFB2JLF3JMY_2022-11-24_10h28.21.791.csv
449,79,,1.0,59.0,2864907432-362042.jpg,2883264367-365621.jpg,2.0,,,,A3HZFB2JLF3JMY_2022-11-24_10h28.21.791.csv
450,80,,1.0,60.0,2449442529-124446.jpg,2452380171-273112.jpg,1.0,,,,A3HZFB2JLF3JMY_2022-11-24_10h28.21.791.csv
451,81,,1.0,61.0,2874302418-65979.jpg,2238470808-18373.jpg,3.0,,,,A3HZFB2JLF3JMY_2022-11-24_10h28.21.791.csv
452,82,,1.0,62.0,2238480677-317399.jpg,2238481630-168218.jpg,1.0,,,,A3HZFB2JLF3JMY_2022-11-24_10h28.21.791.csv
453,83,,1.0,63.0,2898618390-216538.jpg,2238550049-105691.jpg,1.0,,,,A3HZFB2JLF3JMY_2022-11-24_10h28.21.791.csv
454,84,,1.0,64.0,2452381505-199546.jpg,2898622392-366513.jpg,3.0,,,,A3HZFB2JLF3JMY_2022-11-24_10h28.21.791.csv
455,20,,1.0,0.0,2986451363-73599.jpg,2901939327-367669.jpg,1.0,,,,AE9KNJZWDCDSE_2022-11-24_10h25.25.804.csv
456,21,,1.0,1.0,2864907432-362042.jpg,2898626395-216900.jpg,3.0,,,,AE9KNJZWDCDSE_2022-11-24_10h25.25.804.csv
457,22,,1.0,2.0,2874307433-66280.jpg,2864900357-361688.jpg,2.0,,,,AE9KNJZWDCDSE_2022-11-24_10h25.25.804.csv
458,23,,1.0,3.0,2901941401-292798.jpg,2964223380-219495.jpg,2.0,,,,AE9KNJZWDCDSE_2022-11-24_10h25.25.804.csv
459,24,,1.0,4.0,2898618444-142233.jpg,2862691449-137104.jpg,2.0,,,,AE9KNJZWDCDSE_2022-11-24_10h25.25.804.csv
460,25,,1.0,5.0,2898618390-216538.jpg,2864910427-362199.jpg,2.0,,,,AE9KNJZWDCDSE_2022-11-24_10h25.25.804.csv
461,26,,1.0,6.0,2592380177-354629.jpg,2847210303-60991.jpg,3.0,,,,AE9KNJZWDCDSE_2022-11-24_10h25.25.804.csv
462,27,,1.0,7.0,2592380177-354626.jpg,2986408339-146952.jpg,1.0,,,,AE9KNJZWDCDSE_2022-11-24_10h25.25.804.csv
463,28,,1.0,8.0,2238560245-182099.jpg,2901943480-218116.jpg,3.0,,,,AE9KNJZWDCDSE_2022-11-24_10h25.25.804.csv
464,29,left,1.0,9.0,left.jpg,,,left,1.2581,,AE9KNJZWDCDSE_2022-11-24_10h25.25.804.csv
465,30,,1.0,10.0,2238481928-19949.jpg,2883264367-365620.jpg,1.0,,,,AE9KNJZWDCDSE_2022-11-24_10h25.25.804.csv
466,31,,1.0,11.0,2238428357-313623.jpg,2984616310-220514.jpg,2.0,,,,AE9KNJZWDCDSE_2022-11-24_10h25.25.804.csv
467,32,,1.0,12.0,2964213381-294060.jpg,2598726160-205998.jpg,2.0,,,,AE9KNJZWDCDSE_2022-11-24_10h25.25.804.csv
468,33,,1.0,13.0,2458347385-199723.jpg,2238436632-314070.jpg,3.0,,,,AE9KNJZWDCDSE_2022-11-24_10h25.25.804.csv
469,34,,1.0,14.0,2592379964-131054.jpg,2424122686-268072.jpg,3.0,,,,AE9KNJZWDCDSE_2022-11-24_10h25.25.804.csv
470,35,,1.0,15.0,2898633421-291973.jpg,2512876023-52283.jpg,1.0,,,,AE9KNJZWDCDSE_2022-11-24_10h25.25.804.csv
471,36,right,1.0,16.0,right.jpg,,,right,1.5046,,AE9KNJZWDCDSE_2022-11-24_10h25.25.804.csv
472,37,,1.0,17.0,2868474407-362883.jpg,2898634332-367068.jpg,3.0,,,,AE9KNJZWDCDSE_2022-11-24_10h25.25.804.csv
473,38,,1.0,18.0,2874301407-363895.jpg,2901949316-293452.jpg,2.0,,,,AE9KNJZWDCDSE_2022-11-24_10h25.25.804.csv
474,39,,1.0,19.0,2898624426-291546.jpg,2898625336-291572.jpg,3.0,,,,AE9KNJZWDCDSE_2022-11-24_10h25.25.804.csv
475,40,,1.0,20.0,2238481198-19822.jpg,2862689306-285912.jpg,2.0,,,,AE9KNJZWDCDSE_2022-11-24_10h25.25.804.csv
476,41,,1.0,21.0,2446759347-347016.jpg,2446760362-347305.jpg,3.0,,,,AE9KNJZWDCDSE_2022-11-24_10h25.25.804.csv
477,42,,1.0,22.0,2460547467-349421.jpg,2981235446-294901.jpg,2.0,,,,AE9KNJZWDCDSE_2022-11-24_10h25.25.804.csv
478,43,,1.0,23.0,2898635428-69104.jpg,2446759803-49250.jpg,1.0,,,,AE9KNJZWDCDSE_2022-11-24_10h25.25.804.csv
479,44,,1.0,24.0,2883268412-365898.jpg,2984626312-370849.jpg,1.0,,,,AE9KNJZWDCDSE_2022-11-24_10h25.25.804.csv
480,45,,1.0,25.0,2460547467-349422.jpg,2898631394-142727.jpg,1.0,,,,AE9KNJZWDCDSE_2022-11-24_10h25.25.804.csv
481,46,left,1.0,26.0,left.jpg,,,left,2.2272,,AE9KNJZWDCDSE_2022-11-24_10h25.25.804.csv
482,47,,1.0,27.0,2874302418-65978.jpg,2238577555-185462.jpg,2.0,,,,AE9KNJZWDCDSE_2022-11-24_10h25.25.804.csv
483,48,,1.0,28.0,2238425482-313537.jpg,2981244403-72215.jpg,2.0,,,,AE9KNJZWDCDSE_2022-11-24_10h25.25.804.csv
484,49,,1.0,29.0,2901947423-70311.jpg,2860312398-62572.jpg,1.0,,,,AE9KNJZWDCDSE_2022-11-24_10h25.25.804.csv
485,50,,1.0,30.0,2512875899-126682.jpg,2512875899-126681.jpg,3.0,,,,AE9KNJZWDCDSE_2022-11-24_10h25.25.804.csv
486,51,,1.0,31.0,2449442529-124446.jpg,2452380171-273112.jpg,1.0,,,,AE9KNJZWDCDSE_2022-11-24_10h25.25.804.csv
487,52,,1.0,32.0,2864910426-287204.jpg,2898632427-367006.jpg,3.0,,,,AE9KNJZWDCDSE_2022-11-24_10h25.25.804.csv
488,53,,1.0,33.0,2898635427-367120.jpg,2898624426-291545.jpg,3.0,,,,AE9KNJZWDCDSE_2022-11-24_10h25.25.804.csv
489,54,,1.0,34.0,2446759803-49249.jpg,2238499155-170911.jpg,2.0,,,,AE9KNJZWDCDSE_2022-11-24_10h25.25.804.csv
490,55,,1.0,35.0,2901948350-218459.jpg,2898629328-68806.jpg,2.0,,,,AE9KNJZWDCDSE_2022-11-24_10h25.25.804.csv
491,56,,1.0,36.0,2981231403-71642.jpg,2238574878-36413.jpg,3.0,,,,AE9KNJZWDCDSE_2022-11-24_10h25.25.804.csv
492,57,,1.0,37.0,2452380832-348593.jpg,2238328478-11678.jpg,1.0,,,,AE9KNJZWDCDSE_2022-11-24_10h25.25.804.csv
493,58,,1.0,38.0,2901952513-70703.jpg,2238537701-251773.jpg,3.0,,,,AE9KNJZWDCDSE_2022-11-24_10h25.25.804.csv
494,59,,1.0,39.0,2238572663-35822.jpg,2984615361-295510.jpg,2.0,,,,AE9KNJZWDCDSE_2022-11-24_10h25.25.804.csv
495,60,,1.0,40.0,2449442529-124445.jpg,2452380166-273109.jpg,1.0,,,,AE9KNJZWDCDSE_2022-11-24_10h25.25.804.csv
496,61,,1.0,41.0,2874302418-65979.jpg,2238470808-18373.jpg,3.0,,,,AE9KNJZWDCDSE_2022-11-24_10h25.25.804.csv
497,62,,1.0,42.0,2446758985-197609.jpg,2981240424-145795.jpg,1.0,,,,AE9KNJZWDCDSE_2022-11-24_10h25.25.804.csv
498,63,,1.0,43.0,2898617468-68274.jpg,2864906345-212360.jpg,1.0,,,,AE9KNJZWDCDSE_2022-11-24_10h25.25.804.csv
499,64,right,1.0,44.0,right.jpg,,,right,1.4388,,AE9KNJZWDCDSE_2022-11-24_10h25.25.804.csv
500,65,,1.0,45.0,2883268471-290842.jpg,2898623398-68538.jpg,2.0,,,,AE9KNJZWDCDSE_2022-11-24_10h25.25.804.csv
501,66,right,1.0,46.0,right.jpg,,,right,1.163,,AE9KNJZWDCDSE_2022-11-24_10h25.25.804.csv
502,67,,1.0,47.0,2898634397-367080.jpg,2446759306-271735.jpg,3.0,,,,AE9KNJZWDCDSE_2022-11-24_10h25.25.804.csv
503,68,,1.0,48.0,2460547508-51571.jpg,2898633480-217189.jpg,2.0,,,,AE9KNJZWDCDSE_2022-11-24_10h25.25.804.csv
504,69,,1.0,49.0,2452381505-199546.jpg,2898622392-366513.jpg,3.0,,,,AE9KNJZWDCDSE_2022-11-24_10h25.25.804.csv
505,70,,1.0,50.0,2883256307-365057.jpg,2864901420-212148.jpg,2.0,,,,AE9KNJZWDCDSE_2022-11-24_10h25.25.804.csv
506,71,,1.0,51.0,2981241414-145842.jpg,2238427023-15948.jpg,3.0,,,,AE9KNJZWDCDSE_2022-11-24_10h25.25.804.csv
507,72,,1.0,52.0,2575120738-55529.jpg,2898632385-217137.jpg,1.0,,,,AE9KNJZWDCDSE_2022-11-24_10h25.25.804.csv
508,73,,1.0,53.0,2964218374-144967.jpg,2898633476-291993.jpg,3.0,,,,AE9KNJZWDCDSE_2022-11-24_10h25.25.804.csv
509,74,,1.0,54.0,2449441881-272368.jpg,2238576222-334523.jpg,3.0,,,,AE9KNJZWDCDSE_2022-11-24_10h25.25.804.csv
510,75,,1.0,55.0,2874303365-214262.jpg,2512875685-200826.jpg,2.0,,,,AE9KNJZWDCDSE_2022-11-24_10h25.25.804.csv
511,76,,1.0,56.0,2964223381-294447.jpg,2427874231-269884.jpg,1.0,,,,AE9KNJZWDCDSE_2022-11-24_10h25.25.804.csv
512,77,,1.0,57.0,2901939379-143479.jpg,2901938398-69594.jpg,2.0,,,,AE9KNJZWDCDSE_2022-11-24_10h25.25.804.csv
513,78,,1.0,58.0,2238480677-317399.jpg,2238573546-258454.jpg,3.0,,,,AE9KNJZWDCDSE_2022-11-24_10h25.25.804.csv
514,79,,1.0,59.0,2883254439-140941.jpg,2883255450-215311.jpg,1.0,,,,AE9KNJZWDCDSE_2022-11-24_10h25.25.804.csv
515,80,,1.0,60.0,2238580740-186218.jpg,2238550816-254000.jpg,1.0,,,,AE9KNJZWDCDSE_2022-11-24_10h25.25.804.csv
516,81,,1.0,61.0,2868475410-213219.jpg,2862700345-211776.jpg,2.0,,,,AE9KNJZWDCDSE_2022-11-24_10h25.25.804.csv
517,82,,1.0,62.0,2964216465-219242.jpg,2238544191-252422.jpg,1.0,,,,AE9KNJZWDCDSE_2022-11-24_10h25.25.804.csv
518,83,,1.0,63.0,2874299429-139695.jpg,2883266388-67750.jpg,1.0,,,,AE9KNJZWDCDSE_2022-11-24_10h25.25.804.csv
519,84,,1.0,64.0,2901939379-143480.jpg,2981229442-369621.jpg,1.0,,,,AE9KNJZWDCDSE_2022-11-24_10h25.25.804.csv
520,20,,1.0,0.0,2901939379-143479.jpg,2446759803-49251.jpg,1.0,,,,A1JLSWEISM2DWE__2022-11-24_10h28.33.736.csv
521,21,,1.0,1.0,2883256307-365057.jpg,2864901420-212148.jpg,2.0,,,,A1JLSWEISM2DWE__2022-11-24_10h28.33.736.csv
522,22,,1.0,2.0,2449442529-124446.jpg,2460547536-274179.jpg,3.0,,,,A1JLSWEISM2DWE__2022-11-24_10h28.33.736.csv
523,23,,1.0,3.0,2964223381-294447.jpg,2427874231-269884.jpg,1.0,,,,A1JLSWEISM2DWE__2022-11-24_10h28.33.736.csv
524,24,,1.0,4.0,2898634397-367080.jpg,2237944827-301472.jpg,1.0,,,,A1JLSWEISM2DWE__2022-11-24_10h28.33.736.csv
525,25,,1.0,5.0,2238481198-19822.jpg,2864908448-64141.jpg,1.0,,,,A1JLSWEISM2DWE__2022-11-24_10h28.33.736.csv
526,26,,1.0,6.0,2901948350-218459.jpg,2238482369-94216.jpg,3.0,,,,A1JLSWEISM2DWE__2022-11-24_10h28.33.736.csv
527,27,,1.0,7.0,2874302418-65979.jpg,2413147898-43548.jpg,1.0,,,,A1JLSWEISM2DWE__2022-11-24_10h28.33.736.csv
528,28,,1.0,8.0,2874307433-66280.jpg,2446759396-271761.jpg,3.0,,,,A1JLSWEISM2DWE__2022-11-24_10h28.33.736.csv
529,29,,1.0,9.0,2238580740-186218.jpg,2575121108-55628.jpg,2.0,,,,A1JLSWEISM2DWE__2022-11-24_10h28.33.736.csv
530,30,,1.0,10.0,2452380832-348593.jpg,2238515978-25479.jpg,2.0,,,,A1JLSWEISM2DWE__2022-11-24_10h28.33.736.csv
531,31,,0.0,11.0,left.jpg,,,left,,,A1JLSWEISM2DWE__2022-11-24_10h28.33.736.csv
532,32,,1.0,12.0,2592380177-354629.jpg,2847210303-60991.jpg,3.0,,,,A1JLSWEISM2DWE__2022-11-24_10h28.33.736.csv
533,33,,1.0,13.0,2874301407-363895.jpg,2883264368-67631.jpg,1.0,,,,A1JLSWEISM2DWE__2022-11-24_10h28.33.736.csv
534,34,,1.0,14.0,2964218374-144967.jpg,2446758985-197610.jpg,2.0,,,,A1JLSWEISM2DWE__2022-11-24_10h28.33.736.csv
535,35,,1.0,15.0,2986451363-73599.jpg,2901939327-367669.jpg,1.0,,,,A1JLSWEISM2DWE__2022-11-24_10h28.33.736.csv
536,36,,1.0,16.0,2874303365-214262.jpg,2512875685-200826.jpg,2.0,,,,A1JLSWEISM2DWE__2022-11-24_10h28.33.736.csv
537,37,,1.0,17.0,2449442529-124445.jpg,2901948476-293423.jpg,2.0,,,,A1JLSWEISM2DWE__2022-11-24_10h28.33.736.csv
538,38,,1.0,18.0,2964213381-294060.jpg,2883254439-140940.jpg,3.0,,,,A1JLSWEISM2DWE__2022-11-24_10h28.33.736.csv
539,39,,1.0,19.0,2898617468-68274.jpg,2981243399-145923.jpg,3.0,,,,A1JLSWEISM2DWE__2022-11-24_10h28.33.736.csv
540,40,,1.0,20.0,2238572663-35822.jpg,2984615361-295510.jpg,2.0,,,,A1JLSWEISM2DWE__2022-11-24_10h28.33.736.csv
541,41,,0.0,21.0,right.jpg,,,right,,,A1JLSWEISM2DWE__2022-11-24_10h28.33.736.csv
542,42,,1.0,22.0,2981231403-71642.jpg,2864900358-63717.jpg,2.0,,,,A1JLSWEISM2DWE__2022-11-24_10h28.33.736.csv
543,43,,1.0,23.0,2901947423-70311.jpg,2860312398-62572.jpg,1.0,,,,A1JLSWEISM2DWE__2022-11-24_10h28.33.736.csv
544,44,,1.0,24.0,2446759347-347016.jpg,2446760362-347305.jpg,3.0,,,,A1JLSWEISM2DWE__2022-11-24_10h28.33.736.csv
545,45,,1.0,25.0,2238480677-317399.jpg,2238573546-258454.jpg,3.0,,,,A1JLSWEISM2DWE__2022-11-24_10h28.33.736.csv
546,46,,1.0,26.0,2446758985-197609.jpg,2452380166-273110.jpg,2.0,,,,A1JLSWEISM2DWE__2022-11-24_10h28.33.736.csv
547,47,right,1.0,27.0,right.jpg,,,right,1.3559,,A1JLSWEISM2DWE__2022-11-24_10h28.33.736.csv
548,48,,1.0,28.0,2868474407-362883.jpg,2238516618-25604.jpg,1.0,,,,A1JLSWEISM2DWE__2022-11-24_10h28.33.736.csv
549,49,,1.0,29.0,2901939379-143480.jpg,2981229442-369621.jpg,1.0,,,,A1JLSWEISM2DWE__2022-11-24_10h28.33.736.csv
550,50,,1.0,30.0,2575120738-55529.jpg,2460547859-126142.jpg,3.0,,,,A1JLSWEISM2DWE__2022-11-24_10h28.33.736.csv
551,51,,1.0,31.0,2898633421-291973.jpg,2989730319-147821.jpg,3.0,,,,A1JLSWEISM2DWE__2022-11-24_10h28.33.736.csv
552,52,,1.0,32.0,2238560245-182099.jpg,2549106624-127823.jpg,1.0,,,,A1JLSWEISM2DWE__2022-11-24_10h28.33.736.csv
553,53,,1.0,33.0,2592379964-131054.jpg,2575963989-130576.jpg,1.0,,,,A1JLSWEISM2DWE__2022-11-24_10h28.33.736.csv
554,54,,1.0,34.0,2864907432-362042.jpg,2898626395-216900.jpg,3.0,,,,A1JLSWEISM2DWE__2022-11-24_10h28.33.736.csv
555,55,,1.0,35.0,2901941401-292798.jpg,2238577590-185467.jpg,1.0,,,,A1JLSWEISM2DWE__2022-11-24_10h28.33.736.csv
556,56,,1.0,36.0,2898618444-142233.jpg,2804906319-133082.jpg,3.0,,,,A1JLSWEISM2DWE__2022-11-24_10h28.33.736.csv
557,57,,1.0,37.0,2460547508-51571.jpg,2898633480-217189.jpg,2.0,,,,A1JLSWEISM2DWE__2022-11-24_10h28.33.736.csv
558,58,,1.0,38.0,2460547467-349422.jpg,2989721311-296963.jpg,2.0,,,,A1JLSWEISM2DWE__2022-11-24_10h28.33.736.csv
559,59,,1.0,39.0,2512875899-126682.jpg,2512875899-126681.jpg,3.0,,,,A1JLSWEISM2DWE__2022-11-24_10h28.33.736.csv
560,60,,1.0,40.0,2898635427-367120.jpg,2964221435-219434.jpg,1.0,,,,A1JLSWEISM2DWE__2022-11-24_10h28.33.736.csv
561,61,,1.0,41.0,2898624426-291546.jpg,2898626395-216901.jpg,2.0,,,,A1JLSWEISM2DWE__2022-11-24_10h28.33.736.csv
562,62,,1.0,42.0,2981241414-145842.jpg,2856919327-359676.jpg,1.0,,,,A1JLSWEISM2DWE__2022-11-24_10h28.33.736.csv
563,63,,1.0,43.0,2883254439-140941.jpg,2460548070-200336.jpg,2.0,,,,A1JLSWEISM2DWE__2022-11-24_10h28.33.736.csv
564,64,left,1.0,44.0,left.jpg,,,left,1.3404,,A1JLSWEISM2DWE__2022-11-24_10h28.33.736.csv
565,65,,1.0,45.0,2238481928-19949.jpg,2989726338-74002.jpg,2.0,,,,A1JLSWEISM2DWE__2022-11-24_10h28.33.736.csv
566,66,,1.0,46.0,2592380177-354626.jpg,2579432708-56392.jpg,3.0,,,,A1JLSWEISM2DWE__2022-11-24_10h28.33.736.csv
567,67,right,1.0,47.0,right.jpg,,,right,1.9471,,A1JLSWEISM2DWE__2022-11-24_10h28.33.736.csv
568,68,,1.0,48.0,2452381505-199546.jpg,2898622392-366513.jpg,3.0,,,,A1JLSWEISM2DWE__2022-11-24_10h28.33.736.csv
569,69,,1.0,49.0,2238425482-313537.jpg,2864901352-361731.jpg,3.0,,,,A1JLSWEISM2DWE__2022-11-24_10h28.33.736.csv
570,70,,1.0,50.0,2864910426-287204.jpg,2864903351-286874.jpg,2.0,,,,A1JLSWEISM2DWE__2022-11-24_10h28.33.736.csv
571,71,,1.0,51.0,2901952513-70703.jpg,2864907361-287062.jpg,1.0,,,,A1JLSWEISM2DWE__2022-11-24_10h28.33.736.csv
572,72,,1.0,52.0,2449441881-272368.jpg,2984615361-295509.jpg,1.0,,,,A1JLSWEISM2DWE__2022-11-24_10h28.33.736.csv
573,73,,1.0,53.0,2458347385-199723.jpg,2512875824-126658.jpg,2.0,,,,A1JLSWEISM2DWE__2022-11-24_10h28.33.736.csv
574,74,,1.0,54.0,2874299429-139695.jpg,2874313394-140557.jpg,3.0,,,,A1JLSWEISM2DWE__2022-11-24_10h28.33.736.csv
575,75,,1.0,55.0,2868475410-213219.jpg,2901946465-218350.jpg,1.0,,,,A1JLSWEISM2DWE__2022-11-24_10h28.33.736.csv
576,76,,1.0,56.0,2883268471-290842.jpg,2898623398-68538.jpg,2.0,,,,A1JLSWEISM2DWE__2022-11-24_10h28.33.736.csv
577,77,,1.0,57.0,2460547467-349421.jpg,2981235446-294901.jpg,2.0,,,,A1JLSWEISM2DWE__2022-11-24_10h28.33.736.csv
578,78,,1.0,58.0,2898618390-216538.jpg,2238550049-105691.jpg,1.0,,,,A1JLSWEISM2DWE__2022-11-24_10h28.33.736.csv
579,79,,1.0,59.0,2446759803-49249.jpg,2238499155-170911.jpg,2.0,,,,A1JLSWEISM2DWE__2022-11-24_10h28.33.736.csv
580,80,,1.0,60.0,2883268412-365898.jpg,2984626312-370849.jpg,1.0,,,,A1JLSWEISM2DWE__2022-11-24_10h28.33.736.csv
581,81,,1.0,61.0,2238428357-313623.jpg,2984616310-220514.jpg,2.0,,,,A1JLSWEISM2DWE__2022-11-24_10h28.33.736.csv
582,82,,1.0,62.0,2964216465-219242.jpg,2981231403-71641.jpg,3.0,,,,A1JLSWEISM2DWE__2022-11-24_10h28.33.736.csv
583,83,,1.0,63.0,2874302418-65978.jpg,2238567130-183315.jpg,3.0,,,,A1JLSWEISM2DWE__2022-11-24_10h28.33.736.csv
584,84,,1.0,64.0,2898635428-69104.jpg,2901942428-69919.jpg,3.0,,,,A1JLSWEISM2DWE__2022-11-24_10h28.33.736.csv
585,20,,1.0,0.0,2238572663-35822.jpg,2575118671-277663.jpg,1.0,,,,A137V1J5GNNZTH_2022-11-24_14h32.35.842.csv
586,21,,1.0,1.0,2883256307-365057.jpg,2864901420-212148.jpg,2.0,,,,A137V1J5GNNZTH_2022-11-24_14h32.35.842.csv
587,22,,1.0,2.0,2868474407-362883.jpg,2898634332-367068.jpg,3.0,,,,A137V1J5GNNZTH_2022-11-24_14h32.35.842.csv
588,23,,1.0,3.0,2901941401-292798.jpg,2883273443-68192.jpg,3.0,,,,A137V1J5GNNZTH_2022-11-24_14h32.35.842.csv
589,24,,1.0,4.0,2898633421-291973.jpg,2989730319-147821.jpg,3.0,,,,A137V1J5GNNZTH_2022-11-24_14h32.35.842.csv
590,25,,1.0,5.0,2898634397-367080.jpg,2898636423-69152.jpg,2.0,,,,A137V1J5GNNZTH_2022-11-24_14h32.35.842.csv
591,26,,1.0,6.0,2575120738-55529.jpg,2898632385-217137.jpg,1.0,,,,A137V1J5GNNZTH_2022-11-24_14h32.35.842.csv
592,27,,1.0,7.0,2460547467-349421.jpg,2981235446-294901.jpg,2.0,,,,A137V1J5GNNZTH_2022-11-24_14h32.35.842.csv
593,28,right,1.0,8.0,right.jpg,,,right,1.638,,A137V1J5GNNZTH_2022-11-24_14h32.35.842.csv
594,29,,1.0,9.0,2898635428-69104.jpg,2446759803-49250.jpg,1.0,,,,A137V1J5GNNZTH_2022-11-24_14h32.35.842.csv
595,30,,1.0,10.0,2592380177-354629.jpg,2847210303-60991.jpg,3.0,,,,A137V1J5GNNZTH_2022-11-24_14h32.35.842.csv
596,31,,1.0,11.0,2864907432-362042.jpg,2864901420-212147.jpg,1.0,,,,A137V1J5GNNZTH_2022-11-24_14h32.35.842.csv
597,32,,1.0,12.0,2874302418-65978.jpg,2238567130-183315.jpg,3.0,,,,A137V1J5GNNZTH_2022-11-24_14h32.35.842.csv
598,33,,1.0,13.0,2238480677-317399.jpg,2238573546-258454.jpg,3.0,,,,A137V1J5GNNZTH_2022-11-24_14h32.35.842.csv
599,34,,1.0,14.0,2898624426-291546.jpg,2964207374-144577.jpg,1.0,,,,A137V1J5GNNZTH_2022-11-24_14h32.35.842.csv
600,35,,1.0,15.0,2238481928-19949.jpg,2883264367-365620.jpg,1.0,,,,A137V1J5GNNZTH_2022-11-24_14h32.35.842.csv
601,36,,1.0,16.0,2238560245-182099.jpg,2238467949-92250.jpg,2.0,,,,A137V1J5GNNZTH_2022-11-24_14h32.35.842.csv
602,37,,1.0,17.0,2446758985-197609.jpg,2238087237-303447.jpg,3.0,,,,A137V1J5GNNZTH_2022-11-24_14h32.35.842.csv
603,38,,1.0,18.0,2898618444-142233.jpg,2862691449-137104.jpg,2.0,,,,A137V1J5GNNZTH_2022-11-24_14h32.35.842.csv
604,39,,1.0,19.0,2901939379-143480.jpg,2981229442-369621.jpg,1.0,,,,A137V1J5GNNZTH_2022-11-24_14h32.35.842.csv
605,40,,1.0,20.0,2874307433-66280.jpg,2446759396-271761.jpg,3.0,,,,A137V1J5GNNZTH_2022-11-24_14h32.35.842.csv
606,41,,1.0,21.0,2446759347-347016.jpg,2864904415-212294.jpg,2.0,,,,A137V1J5GNNZTH_2022-11-24_14h32.35.842.csv
607,42,right,1.0,22.0,right.jpg,,,right,1.117,,A137V1J5GNNZTH_2022-11-24_14h32.35.842.csv
608,43,,1.0,23.0,2874303365-214262.jpg,2424124794-120289.jpg,3.0,,,,A137V1J5GNNZTH_2022-11-24_14h32.35.842.csv
609,44,,1.0,24.0,2446759803-49249.jpg,2446760601-272099.jpg,1.0,,,,A137V1J5GNNZTH_2022-11-24_14h32.35.842.csv
610,45,,1.0,25.0,2238580740-186218.jpg,2238550816-254000.jpg,1.0,,,,A137V1J5GNNZTH_2022-11-24_14h32.35.842.csv
611,46,,1.0,26.0,2592380177-354626.jpg,2579432708-56392.jpg,3.0,,,,A137V1J5GNNZTH_2022-11-24_14h32.35.842.csv
612,47,,1.0,27.0,2901952513-70703.jpg,2864907361-287062.jpg,1.0,,,,A137V1J5GNNZTH_2022-11-24_14h32.35.842.csv
613,48,,1.0,28.0,2868475410-213219.jpg,2901946465-218350.jpg,1.0,,,,A137V1J5GNNZTH_2022-11-24_14h32.35.842.csv
614,49,right,1.0,29.0,right.jpg,,,right,1.114,,A137V1J5GNNZTH_2022-11-24_14h32.35.842.csv
615,50,,1.0,30.0,2901939379-143479.jpg,2446759803-49251.jpg,1.0,,,,A137V1J5GNNZTH_2022-11-24_14h32.35.842.csv
616,51,,1.0,31.0,2592379964-131054.jpg,2427875694-122097.jpg,2.0,,,,A137V1J5GNNZTH_2022-11-24_14h32.35.842.csv
617,52,,1.0,32.0,2449442529-124445.jpg,2901946439-144040.jpg,3.0,,,,A137V1J5GNNZTH_2022-11-24_14h32.35.842.csv
618,53,,1.0,33.0,2238428357-313623.jpg,2856919327-359675.jpg,3.0,,,,A137V1J5GNNZTH_2022-11-24_14h32.35.842.csv
619,54,,1.0,34.0,2883268412-365898.jpg,2984626312-370849.jpg,1.0,,,,A137V1J5GNNZTH_2022-11-24_14h32.35.842.csv
620,55,,1.0,35.0,2460547467-349422.jpg,2989721311-296963.jpg,2.0,,,,A137V1J5GNNZTH_2022-11-24_14h32.35.842.csv
621,56,,1.0,36.0,2981231403-71642.jpg,2238574878-36413.jpg,3.0,,,,A137V1J5GNNZTH_2022-11-24_14h32.35.842.csv
622,57,,1.0,37.0,2512875899-126682.jpg,2512875899-126681.jpg,3.0,,,,A137V1J5GNNZTH_2022-11-24_14h32.35.842.csv
623,58,,1.0,38.0,2986451363-73599.jpg,2238571930-184142.jpg,2.0,,,,A137V1J5GNNZTH_2022-11-24_14h32.35.842.csv
624,59,left,1.0,39.0,left.jpg,,,left,1.087,,A137V1J5GNNZTH_2022-11-24_14h32.35.842.csv
625,60,,1.0,40.0,2238481198-19822.jpg,2901941438-69835.jpg,3.0,,,,A137V1J5GNNZTH_2022-11-24_14h32.35.842.csv
626,61,,1.0,41.0,2898618390-216538.jpg,2864910427-362199.jpg,2.0,,,,A137V1J5GNNZTH_2022-11-24_14h32.35.842.csv
627,62,,1.0,42.0,2238425482-313537.jpg,2238471391-240918.jpg,1.0,,,,A137V1J5GNNZTH_2022-11-24_14h32.35.842.csv
628,63,,1.0,43.0,2964223381-294447.jpg,2964217461-294238.jpg,2.0,,,,A137V1J5GNNZTH_2022-11-24_14h32.35.842.csv
629,64,,1.0,44.0,2452381505-199546.jpg,2901938432-367627.jpg,1.0,,,,A137V1J5GNNZTH_2022-11-24_14h32.35.842.csv
630,65,,1.0,45.0,2874301407-363895.jpg,2901949316-293452.jpg,2.0,,,,A137V1J5GNNZTH_2022-11-24_14h32.35.842.csv
631,66,,1.0,46.0,2901948350-218459.jpg,2868487415-213922.jpg,1.0,,,,A137V1J5GNNZTH_2022-11-24_14h32.35.842.csv
632,67,,1.0,47.0,2864910426-287204.jpg,2898632427-367006.jpg,3.0,,,,A137V1J5GNNZTH_2022-11-24_14h32.35.842.csv
633,68,,1.0,48.0,2898617468-68274.jpg,2238433340-164524.jpg,2.0,,,,A137V1J5GNNZTH_2022-11-24_14h32.35.842.csv
634,69,,1.0,49.0,2898635427-367120.jpg,2898624426-291545.jpg,3.0,,,,A137V1J5GNNZTH_2022-11-24_14h32.35.842.csv
635,70,,1.0,50.0,2449442529-124446.jpg,2964216376-294181.jpg,2.0,,,,A137V1J5GNNZTH_2022-11-24_14h32.35.842.csv
636,71,,1.0,51.0,2874299429-139695.jpg,2238571930-184143.jpg,2.0,,,,A137V1J5GNNZTH_2022-11-24_14h32.35.842.csv
637,72,,1.0,52.0,2883268471-290842.jpg,2883266367-365742.jpg,3.0,,,,A137V1J5GNNZTH_2022-11-24_14h32.35.842.csv
638,73,,1.0,53.0,2460547508-51571.jpg,2898633480-217189.jpg,2.0,,,,A137V1J5GNNZTH_2022-11-24_14h32.35.842.csv
639,74,right,1.0,54.0,right.jpg,,,right,1.064,,A137V1J5GNNZTH_2022-11-24_14h32.35.842.csv
640,75,,1.0,55.0,2964213381-294060.jpg,2598726160-205998.jpg,2.0,,,,A137V1J5GNNZTH_2022-11-24_14h32.35.842.csv
641,76,,1.0,56.0,2901947423-70311.jpg,2874301385-214137.jpg,3.0,,,,A137V1J5GNNZTH_2022-11-24_14h32.35.842.csv
642,77,,1.0,57.0,2452380832-348593.jpg,2238515978-25479.jpg,2.0,,,,A137V1J5GNNZTH_2022-11-24_14h32.35.842.csv
643,78,,1.0,58.0,2458347385-199723.jpg,2512875824-126658.jpg,2.0,,,,A137V1J5GNNZTH_2022-11-24_14h32.35.842.csv
644,79,,1.0,59.0,2964218374-144967.jpg,2964218374-144968.jpg,1.0,,,,A137V1J5GNNZTH_2022-11-24_14h32.35.842.csv
645,80,,1.0,60.0,2449441881-272368.jpg,2898617374-142166.jpg,2.0,,,,A137V1J5GNNZTH_2022-11-24_14h32.35.842.csv
646,81,,1.0,61.0,2964216465-219242.jpg,2238544191-252422.jpg,1.0,,,,A137V1J5GNNZTH_2022-11-24_14h32.35.842.csv
647,82,,1.0,62.0,2883254439-140941.jpg,2883255450-215311.jpg,1.0,,,,A137V1J5GNNZTH_2022-11-24_14h32.35.842.csv
648,83,,1.0,63.0,2981241414-145842.jpg,2238427023-15948.jpg,3.0,,,,A137V1J5GNNZTH_2022-11-24_14h32.35.842.csv
649,84,,1.0,64.0,2874302418-65979.jpg,2413147898-43548.jpg,1.0,,,,A137V1J5GNNZTH_2022-11-24_14h32.35.842.csv
650,20,,1.0,0.0,2238480677-317399.jpg,2238481630-168218.jpg,1.0,,,,A1K4FKVCBTX1RN_2022-11-24_07h36.54.075.csv
651,21,,1.0,1.0,2898618444-142233.jpg,2862691449-137104.jpg,2.0,,,,A1K4FKVCBTX1RN_2022-11-24_07h36.54.075.csv
652,22,,1.0,2.0,2874299429-139695.jpg,2238571930-184143.jpg,2.0,,,,A1K4FKVCBTX1RN_2022-11-24_07h36.54.075.csv
653,23,,1.0,3.0,2901948350-218459.jpg,2238482369-94216.jpg,3.0,,,,A1K4FKVCBTX1RN_2022-11-24_07h36.54.075.csv
654,24,,1.0,4.0,2512875899-126682.jpg,2512875899-126681.jpg,3.0,,,,A1K4FKVCBTX1RN_2022-11-24_07h36.54.075.csv
655,25,,1.0,5.0,2981241414-145842.jpg,2868469411-287540.jpg,2.0,,,,A1K4FKVCBTX1RN_2022-11-24_07h36.54.075.csv
656,26,,1.0,6.0,2460547467-349421.jpg,2981235446-294901.jpg,2.0,,,,A1K4FKVCBTX1RN_2022-11-24_07h36.54.075.csv
657,27,,1.0,7.0,2883268412-365898.jpg,2984626312-370849.jpg,1.0,,,,A1K4FKVCBTX1RN_2022-11-24_07h36.54.075.csv
658,28,,1.0,8.0,2964218374-144967.jpg,2898633476-291993.jpg,3.0,,,,A1K4FKVCBTX1RN_2022-11-24_07h36.54.075.csv
659,29,,1.0,9.0,2898618390-216538.jpg,2238574968-36441.jpg,3.0,,,,A1K4FKVCBTX1RN_2022-11-24_07h36.54.075.csv
660,30,,1.0,10.0,2874307433-66280.jpg,2446759396-271761.jpg,3.0,,,,A1K4FKVCBTX1RN_2022-11-24_07h36.54.075.csv
661,31,,1.0,11.0,2238572663-35822.jpg,2238375825-162206.jpg,3.0,,,,A1K4FKVCBTX1RN_2022-11-24_07h36.54.075.csv
662,32,,1.0,12.0,2898635428-69104.jpg,2864904390-212289.jpg,2.0,,,,A1K4FKVCBTX1RN_2022-11-24_07h36.54.075.csv
663,33,left,1.0,13.0,left.jpg,,,left,0.78,,A1K4FKVCBTX1RN_2022-11-24_07h36.54.075.csv
664,34,,1.0,14.0,2449442529-124446.jpg,2460547536-274179.jpg,3.0,,,,A1K4FKVCBTX1RN_2022-11-24_07h36.54.075.csv
665,35,,1.0,15.0,2592379964-131054.jpg,2427875694-122097.jpg,2.0,,,,A1K4FKVCBTX1RN_2022-11-24_07h36.54.075.csv
666,36,,1.0,16.0,2238425482-313537.jpg,2238471391-240918.jpg,1.0,,,,A1K4FKVCBTX1RN_2022-11-24_07h36.54.075.csv
667,37,,1.0,17.0,2592380177-354629.jpg,2847210303-60991.jpg,3.0,,,,A1K4FKVCBTX1RN_2022-11-24_07h36.54.075.csv
668,38,,1.0,18.0,2898635427-367120.jpg,2964221435-219434.jpg,1.0,,,,A1K4FKVCBTX1RN_2022-11-24_07h36.54.075.csv
669,39,,1.0,19.0,2883256307-365057.jpg,2611628310-206388.jpg,1.0,,,,A1K4FKVCBTX1RN_2022-11-24_07h36.54.075.csv
670,40,,1.0,20.0,2883268471-290842.jpg,2883266367-365742.jpg,3.0,,,,A1K4FKVCBTX1RN_2022-11-24_07h36.54.075.csv
671,41,right,1.0,21.0,right.jpg,,,right,0.709,,A1K4FKVCBTX1RN_2022-11-24_07h36.54.075.csv
672,42,,1.0,22.0,2592380177-354626.jpg,2986408339-146952.jpg,1.0,,,,A1K4FKVCBTX1RN_2022-11-24_07h36.54.075.csv
673,43,,1.0,23.0,2238560245-182099.jpg,2901943480-218116.jpg,3.0,,,,A1K4FKVCBTX1RN_2022-11-24_07h36.54.075.csv
674,44,,1.0,24.0,2898617468-68274.jpg,2238433340-164524.jpg,2.0,,,,A1K4FKVCBTX1RN_2022-11-24_07h36.54.075.csv
675,45,,1.0,25.0,2575120738-55529.jpg,2460547859-126142.jpg,3.0,,,,A1K4FKVCBTX1RN_2022-11-24_07h36.54.075.csv
676,46,,1.0,26.0,2986451363-73599.jpg,2898630381-291834.jpg,3.0,,,,A1K4FKVCBTX1RN_2022-11-24_07h36.54.075.csv
677,47,,1.0,27.0,2446759347-347016.jpg,2864904415-212294.jpg,2.0,,,,A1K4FKVCBTX1RN_2022-11-24_07h36.54.075.csv
678,48,,1.0,28.0,2964213381-294060.jpg,2598726160-205998.jpg,2.0,,,,A1K4FKVCBTX1RN_2022-11-24_07h36.54.075.csv
679,49,left,1.0,29.0,left.jpg,,,left,0.5856,,A1K4FKVCBTX1RN_2022-11-24_07h36.54.075.csv
680,50,,1.0,30.0,2874303365-214262.jpg,2424124794-120289.jpg,3.0,,,,A1K4FKVCBTX1RN_2022-11-24_07h36.54.075.csv
681,51,,1.0,31.0,2238580740-186218.jpg,2238550816-254000.jpg,1.0,,,,A1K4FKVCBTX1RN_2022-11-24_07h36.54.075.csv
682,52,,1.0,32.0,2981231403-71642.jpg,2274829821-263682.jpg,1.0,,,,A1K4FKVCBTX1RN_2022-11-24_07h36.54.075.csv
683,53,,1.0,33.0,2901952513-70703.jpg,2864907361-287062.jpg,1.0,,,,A1K4FKVCBTX1RN_2022-11-24_07h36.54.075.csv
684,54,,1.0,34.0,2238481928-19949.jpg,2989726338-74002.jpg,2.0,,,,A1K4FKVCBTX1RN_2022-11-24_07h36.54.075.csv
685,55,,1.0,35.0,2868475410-213219.jpg,2862700345-211776.jpg,2.0,,,,A1K4FKVCBTX1RN_2022-11-24_07h36.54.075.csv
686,56,,1.0,36.0,2964223381-294447.jpg,2901938432-367628.jpg,3.0,,,,A1K4FKVCBTX1RN_2022-11-24_07h36.54.075.csv
687,57,,1.0,37.0,2452380832-348593.jpg,2237856283-1014.jpg,3.0,,,,A1K4FKVCBTX1RN_2022-11-24_07h36.54.075.csv
688,58,left,1.0,38.0,left.jpg,,,left,0.552,,A1K4FKVCBTX1RN_2022-11-24_07h36.54.075.csv
689,59,,1.0,39.0,2238428357-313623.jpg,2856919327-359675.jpg,3.0,,,,A1K4FKVCBTX1RN_2022-11-24_07h36.54.075.csv
690,60,,1.0,40.0,2864907432-362042.jpg,2864901420-212147.jpg,1.0,,,,A1K4FKVCBTX1RN_2022-11-24_07h36.54.075.csv
691,61,,1.0,41.0,2874302418-65979.jpg,2238470808-18373.jpg,3.0,,,,A1K4FKVCBTX1RN_2022-11-24_07h36.54.075.csv
692,62,,1.0,42.0,2898624426-291546.jpg,2964207374-144577.jpg,1.0,,,,A1K4FKVCBTX1RN_2022-11-24_07h36.54.075.csv
693,63,,1.0,43.0,2874302418-65978.jpg,2898626385-216899.jpg,1.0,,,,A1K4FKVCBTX1RN_2022-11-24_07h36.54.075.csv
694,64,,1.0,44.0,2864910426-287204.jpg,2864903351-286874.jpg,2.0,,,,A1K4FKVCBTX1RN_2022-11-24_07h36.54.075.csv
695,65,,1.0,45.0,2901939379-143479.jpg,2446759803-49251.jpg,1.0,,,,A1K4FKVCBTX1RN_2022-11-24_07h36.54.075.csv
696,66,,1.0,46.0,2898633421-291973.jpg,2238580922-335631.jpg,2.0,,,,A1K4FKVCBTX1RN_2022-11-24_07h36.54.075.csv
697,67,,1.0,47.0,2964216465-219242.jpg,2238544191-252422.jpg,1.0,,,,A1K4FKVCBTX1RN_2022-11-24_07h36.54.075.csv
698,68,,1.0,48.0,2460547467-349422.jpg,2989721311-296963.jpg,2.0,,,,A1K4FKVCBTX1RN_2022-11-24_07h36.54.075.csv
699,69,left,1.0,49.0,left.jpg,,,left,0.5428,,A1K4FKVCBTX1RN_2022-11-24_07h36.54.075.csv
700,70,,1.0,50.0,2883254439-140941.jpg,2964219379-144996.jpg,3.0,,,,A1K4FKVCBTX1RN_2022-11-24_07h36.54.075.csv
701,71,,1.0,51.0,2901939379-143480.jpg,2964218373-71170.jpg,2.0,,,,A1K4FKVCBTX1RN_2022-11-24_07h36.54.075.csv
702,72,,1.0,52.0,2898634397-367080.jpg,2237944827-301472.jpg,1.0,,,,A1K4FKVCBTX1RN_2022-11-24_07h36.54.075.csv
703,73,,1.0,53.0,2452381505-199546.jpg,2901938432-367627.jpg,1.0,,,,A1K4FKVCBTX1RN_2022-11-24_07h36.54.075.csv
704,74,,1.0,54.0,2901947423-70311.jpg,2860312398-62572.jpg,1.0,,,,A1K4FKVCBTX1RN_2022-11-24_07h36.54.075.csv
705,75,,1.0,55.0,2458347385-199723.jpg,2238480434-93829.jpg,1.0,,,,A1K4FKVCBTX1RN_2022-11-24_07h36.54.075.csv
706,76,,1.0,56.0,2901941401-292798.jpg,2238577590-185467.jpg,1.0,,,,A1K4FKVCBTX1RN_2022-11-24_07h36.54.075.csv
707,77,,1.0,57.0,2868474407-362883.jpg,2874305405-214397.jpg,2.0,,,,A1K4FKVCBTX1RN_2022-11-24_07h36.54.075.csv
708,78,,1.0,58.0,2449442529-124445.jpg,2901948476-293423.jpg,2.0,,,,A1K4FKVCBTX1RN_2022-11-24_07h36.54.075.csv
709,79,,1.0,59.0,2446758985-197609.jpg,2452380166-273110.jpg,2.0,,,,A1K4FKVCBTX1RN_2022-11-24_07h36.54.075.csv
710,80,,1.0,60.0,2874301407-363895.jpg,2901949316-293452.jpg,2.0,,,,A1K4FKVCBTX1RN_2022-11-24_07h36.54.075.csv
711,81,,1.0,61.0,2238481198-19822.jpg,2864908448-64141.jpg,1.0,,,,A1K4FKVCBTX1RN_2022-11-24_07h36.54.075.csv
712,82,,1.0,62.0,2460547508-51571.jpg,2901941438-69836.jpg,3.0,,,,A1K4FKVCBTX1RN_2022-11-24_07h36.54.075.csv
713,83,,1.0,63.0,2449441881-272368.jpg,2898617374-142166.jpg,2.0,,,,A1K4FKVCBTX1RN_2022-11-24_07h36.54.075.csv
714,84,,1.0,64.0,2446759803-49249.jpg,2446760844-124088.jpg,3.0,,,,A1K4FKVCBTX1RN_2022-11-24_07h36.54.075.csv
715,20,,1.0,0.0,2901939379-143480.jpg,2964218373-71170.jpg,2.0,,,,AIEKCWYZTS41V_2022-11-24_10h31.00.383.csv
716,21,,1.0,1.0,2446758985-197609.jpg,2981240424-145795.jpg,1.0,,,,AIEKCWYZTS41V_2022-11-24_10h31.00.383.csv
717,22,,1.0,2.0,2575120738-55529.jpg,2901946413-70227.jpg,2.0,,,,AIEKCWYZTS41V_2022-11-24_10h31.00.383.csv
718,23,,1.0,3.0,2238428357-313623.jpg,2856919327-359675.jpg,3.0,,,,AIEKCWYZTS41V_2022-11-24_10h31.00.383.csv
719,24,,1.0,4.0,2449442529-124445.jpg,2901946439-144040.jpg,3.0,,,,AIEKCWYZTS41V_2022-11-24_10h31.00.383.csv
720,25,,1.0,5.0,2883256307-365057.jpg,2864901420-212148.jpg,2.0,,,,AIEKCWYZTS41V_2022-11-24_10h31.00.383.csv
721,26,,1.0,6.0,2898635427-367120.jpg,2964221435-219434.jpg,1.0,,,,AIEKCWYZTS41V_2022-11-24_10h31.00.383.csv
722,27,left,1.0,7.0,left.jpg,,,left,0.4903,,AIEKCWYZTS41V_2022-11-24_10h31.00.383.csv
723,28,,1.0,8.0,2446759347-347016.jpg,2964224310-219528.jpg,1.0,,,,AIEKCWYZTS41V_2022-11-24_10h31.00.383.csv
724,29,,1.0,9.0,2238580740-186218.jpg,2575121108-55628.jpg,2.0,,,,AIEKCWYZTS41V_2022-11-24_10h31.00.383.csv
725,30,,1.0,10.0,2238481928-19949.jpg,2864910427-362200.jpg,3.0,,,,AIEKCWYZTS41V_2022-11-24_10h31.00.383.csv
726,31,,1.0,11.0,2592380177-354626.jpg,2986408339-146952.jpg,1.0,,,,AIEKCWYZTS41V_2022-11-24_10h31.00.383.csv
727,32,,1.0,12.0,2981231403-71642.jpg,2238574878-36413.jpg,3.0,,,,AIEKCWYZTS41V_2022-11-24_10h31.00.383.csv
728,33,,1.0,13.0,2964218374-144967.jpg,2964218374-144968.jpg,1.0,,,,AIEKCWYZTS41V_2022-11-24_10h31.00.383.csv
729,34,,1.0,14.0,2238560245-182099.jpg,2549106624-127823.jpg,1.0,,,,AIEKCWYZTS41V_2022-11-24_10h31.00.383.csv
730,35,,1.0,15.0,2449441881-272368.jpg,2984615361-295509.jpg,1.0,,,,AIEKCWYZTS41V_2022-11-24_10h31.00.383.csv
731,36,,1.0,16.0,2238480677-317399.jpg,2446761173-49643.jpg,2.0,,,,AIEKCWYZTS41V_2022-11-24_10h31.00.383.csv
732,37,,1.0,17.0,2981241414-145842.jpg,2868469411-287540.jpg,2.0,,,,AIEKCWYZTS41V_2022-11-24_10h31.00.383.csv
733,38,,1.0,18.0,2883268471-290842.jpg,2883268471-290843.jpg,1.0,,,,AIEKCWYZTS41V_2022-11-24_10h31.00.383.csv
734,39,,1.0,19.0,2874301407-363895.jpg,2901949316-293452.jpg,2.0,,,,AIEKCWYZTS41V_2022-11-24_10h31.00.383.csv
735,40,,1.0,20.0,2901952513-70703.jpg,2238537701-251773.jpg,3.0,,,,AIEKCWYZTS41V_2022-11-24_10h31.00.383.csv
736,41,,1.0,21.0,2592379964-131054.jpg,2575963989-130576.jpg,1.0,,,,AIEKCWYZTS41V_2022-11-24_10h31.00.383.csv
737,42,right,1.0,22.0,right.jpg,,,right,0.9273,,AIEKCWYZTS41V_2022-11-24_10h31.00.383.csv
738,43,,1.0,23.0,2901939379-143479.jpg,2446759306-271734.jpg,3.0,,,,AIEKCWYZTS41V_2022-11-24_10h31.00.383.csv
739,44,,1.0,24.0,2458347385-199723.jpg,2238436632-314070.jpg,3.0,,,,AIEKCWYZTS41V_2022-11-24_10h31.00.383.csv
740,45,,1.0,25.0,2452381505-199546.jpg,2901938432-367627.jpg,1.0,,,,AIEKCWYZTS41V_2022-11-24_10h31.00.383.csv
741,46,left,1.0,26.0,left.jpg,,,left,0.9722,,AIEKCWYZTS41V_2022-11-24_10h31.00.383.csv
742,47,,1.0,27.0,2898633421-291973.jpg,2512876023-52283.jpg,1.0,,,,AIEKCWYZTS41V_2022-11-24_10h31.00.383.csv
743,48,,1.0,28.0,2874299429-139695.jpg,2238571930-184143.jpg,2.0,,,,AIEKCWYZTS41V_2022-11-24_10h31.00.383.csv
744,49,,1.0,29.0,2901941401-292798.jpg,2883273443-68192.jpg,3.0,,,,AIEKCWYZTS41V_2022-11-24_10h31.00.383.csv
745,50,,1.0,30.0,2446759803-49249.jpg,2446760601-272099.jpg,1.0,,,,AIEKCWYZTS41V_2022-11-24_10h31.00.383.csv
746,51,,1.0,31.0,2964213381-294060.jpg,2981244394-145974.jpg,1.0,,,,AIEKCWYZTS41V_2022-11-24_10h31.00.383.csv
747,52,,1.0,32.0,2901947423-70311.jpg,2446759065-197639.jpg,2.0,,,,AIEKCWYZTS41V_2022-11-24_10h31.00.383.csv
748,53,,1.0,33.0,2238572663-35822.jpg,2238375825-162206.jpg,3.0,,,,AIEKCWYZTS41V_2022-11-24_10h31.00.383.csv
749,54,,1.0,34.0,2898624426-291546.jpg,2964207374-144577.jpg,1.0,,,,AIEKCWYZTS41V_2022-11-24_10h31.00.383.csv
750,55,,1.0,35.0,2874302418-65979.jpg,2238470808-18373.jpg,3.0,,,,AIEKCWYZTS41V_2022-11-24_10h31.00.383.csv
751,56,,1.0,36.0,2874307433-66280.jpg,2986447306-296584.jpg,1.0,,,,AIEKCWYZTS41V_2022-11-24_10h31.00.383.csv
752,57,right,1.0,37.0,right.jpg,,,right,1.0703,,AIEKCWYZTS41V_2022-11-24_10h31.00.383.csv
753,58,,1.0,38.0,2986451363-73599.jpg,2901939327-367669.jpg,1.0,,,,AIEKCWYZTS41V_2022-11-24_10h31.00.383.csv
754,59,,1.0,39.0,2868474407-362883.jpg,2898634332-367068.jpg,3.0,,,,AIEKCWYZTS41V_2022-11-24_10h31.00.383.csv
755,60,,1.0,40.0,2898617468-68274.jpg,2238433340-164524.jpg,2.0,,,,AIEKCWYZTS41V_2022-11-24_10h31.00.383.csv
756,61,,1.0,41.0,2452380832-348593.jpg,2237856283-1014.jpg,3.0,,,,AIEKCWYZTS41V_2022-11-24_10h31.00.383.csv
757,62,,1.0,42.0,2898618390-216538.jpg,2864910427-362199.jpg,2.0,,,,AIEKCWYZTS41V_2022-11-24_10h31.00.383.csv
758,63,,1.0,43.0,2460547467-349422.jpg,2898635428-69106.jpg,3.0,,,,AIEKCWYZTS41V_2022-11-24_10h31.00.383.csv
759,64,,1.0,44.0,2964223381-294447.jpg,2964217461-294238.jpg,2.0,,,,AIEKCWYZTS41V_2022-11-24_10h31.00.383.csv
760,65,,1.0,45.0,2449442529-124446.jpg,2460547536-274179.jpg,3.0,,,,AIEKCWYZTS41V_2022-11-24_10h31.00.383.csv
761,66,,1.0,46.0,2592380177-354629.jpg,2901945495-218294.jpg,2.0,,,,AIEKCWYZTS41V_2022-11-24_10h31.00.383.csv
762,67,,1.0,47.0,2874303365-214262.jpg,2512875685-200826.jpg,2.0,,,,AIEKCWYZTS41V_2022-11-24_10h31.00.383.csv
763,68,,1.0,48.0,2901948350-218459.jpg,2868487415-213922.jpg,1.0,,,,AIEKCWYZTS41V_2022-11-24_10h31.00.383.csv
764,69,,1.0,49.0,2238425482-313537.jpg,2981244403-72215.jpg,2.0,,,,AIEKCWYZTS41V_2022-11-24_10h31.00.383.csv
765,70,,1.0,50.0,2868475410-213219.jpg,2862700345-211776.jpg,2.0,,,,AIEKCWYZTS41V_2022-11-24_10h31.00.383.csv
766,71,,1.0,51.0,2898634397-367080.jpg,2446759306-271735.jpg,3.0,,,,AIEKCWYZTS41V_2022-11-24_10h31.00.383.csv
767,72,,1.0,52.0,2460547508-51571.jpg,2446760917-347439.jpg,1.0,,,,AIEKCWYZTS41V_2022-11-24_10h31.00.383.csv
768,73,,1.0,53.0,2874302418-65978.jpg,2238567130-183315.jpg,3.0,,,,AIEKCWYZTS41V_2022-11-24_10h31.00.383.csv
769,74,right,1.0,54.0,right.jpg,,,right,0.9627,,AIEKCWYZTS41V_2022-11-24_10h31.00.383.csv
770,75,,1.0,55.0,2883254439-140941.jpg,2883255450-215311.jpg,1.0,,,,AIEKCWYZTS41V_2022-11-24_10h31.00.383.csv
771,76,,1.0,56.0,2898618444-142233.jpg,2898631359-142721.jpg,1.0,,,,AIEKCWYZTS41V_2022-11-24_10h31.00.383.csv
772,77,,1.0,57.0,2864910426-287204.jpg,2898632427-367006.jpg,3.0,,,,AIEKCWYZTS41V_2022-11-24_10h31.00.383.csv
773,78,,1.0,58.0,2864907432-362042.jpg,2883264367-365621.jpg,2.0,,,,AIEKCWYZTS41V_2022-11-24_10h31.00.383.csv
774,79,,1.0,59.0,2512875899-126682.jpg,2512875899-126681.jpg,3.0,,,,AIEKCWYZTS41V_2022-11-24_10h31.00.383.csv
775,80,,1.0,60.0,2238481198-19822.jpg,2862689306-285912.jpg,2.0,,,,AIEKCWYZTS41V_2022-11-24_10h31.00.383.csv
776,81,,1.0,61.0,2883268412-365898.jpg,2862687418-62786.jpg,3.0,,,,AIEKCWYZTS41V_2022-11-24_10h31.00.383.csv
777,82,,1.0,62.0,2460547467-349421.jpg,2981235446-294901.jpg,2.0,,,,AIEKCWYZTS41V_2022-11-24_10h31.00.383.csv
778,83,,1.0,63.0,2964216465-219242.jpg,2981231403-71641.jpg,3.0,,,,AIEKCWYZTS41V_2022-11-24_10h31.00.383.csv
779,84,,1.0,64.0,2898635428-69104.jpg,2864904390-212289.jpg,2.0,,,,AIEKCWYZTS41V_2022-11-24_10h31.00.383.csv
780,20,,1.0,0.0,2898618444-142233.jpg,2898631359-142721.jpg,1.0,,,,AREYIJXFMXZL0_2022-11-24_12h22.58.913.csv
781,21,,1.0,1.0,2460547467-349422.jpg,2898631394-142727.jpg,1.0,,,,AREYIJXFMXZL0_2022-11-24_12h22.58.913.csv
782,22,,1.0,2.0,2901952513-70703.jpg,2238537701-251773.jpg,3.0,,,,AREYIJXFMXZL0_2022-11-24_12h22.58.913.csv
783,23,,1.0,3.0,2238572663-35822.jpg,2984615361-295510.jpg,2.0,,,,AREYIJXFMXZL0_2022-11-24_12h22.58.913.csv
784,24,,1.0,4.0,2449442529-124446.jpg,2964216376-294181.jpg,2.0,,,,AREYIJXFMXZL0_2022-11-24_12h22.58.913.csv
785,25,,1.0,5.0,2452381505-199546.jpg,2901938432-367627.jpg,1.0,,,,AREYIJXFMXZL0_2022-11-24_12h22.58.913.csv
786,26,,1.0,6.0,2883268471-290842.jpg,2883266367-365742.jpg,3.0,,,,AREYIJXFMXZL0_2022-11-24_12h22.58.913.csv
787,27,,1.0,7.0,2986451363-73599.jpg,2901939327-367669.jpg,1.0,,,,AREYIJXFMXZL0_2022-11-24_12h22.58.913.csv
788,28,,1.0,8.0,2446759347-347016.jpg,2864904415-212294.jpg,2.0,,,,AREYIJXFMXZL0_2022-11-24_12h22.58.913.csv
789,29,right,1.0,9.0,right.jpg,,,right,1.628,,AREYIJXFMXZL0_2022-11-24_12h22.58.913.csv
790,30,,1.0,10.0,2883268412-365898.jpg,2984626312-370849.jpg,1.0,,,,AREYIJXFMXZL0_2022-11-24_12h22.58.913.csv
791,31,,1.0,11.0,2901947423-70311.jpg,2446759065-197639.jpg,2.0,,,,AREYIJXFMXZL0_2022-11-24_12h22.58.913.csv
792,32,,1.0,12.0,2238481198-19822.jpg,2901941438-69835.jpg,3.0,,,,AREYIJXFMXZL0_2022-11-24_12h22.58.913.csv
793,33,,1.0,13.0,2898624426-291546.jpg,2898625336-291572.jpg,3.0,,,,AREYIJXFMXZL0_2022-11-24_12h22.58.913.csv
794,34,,1.0,14.0,2874307433-66280.jpg,2864900357-361688.jpg,2.0,,,,AREYIJXFMXZL0_2022-11-24_12h22.58.913.csv
795,35,,1.0,15.0,2964218374-144967.jpg,2898633476-291993.jpg,3.0,,,,AREYIJXFMXZL0_2022-11-24_12h22.58.913.csv
796,36,,1.0,16.0,2575120738-55529.jpg,2460547859-126142.jpg,3.0,,,,AREYIJXFMXZL0_2022-11-24_12h22.58.913.csv
797,37,,1.0,17.0,2238481928-19949.jpg,2864910427-362200.jpg,3.0,,,,AREYIJXFMXZL0_2022-11-24_12h22.58.913.csv
798,38,,1.0,18.0,2898635427-367120.jpg,2964221435-219434.jpg,1.0,,,,AREYIJXFMXZL0_2022-11-24_12h22.58.913.csv
799,39,,1.0,19.0,2964223381-294447.jpg,2964217461-294238.jpg,2.0,,,,AREYIJXFMXZL0_2022-11-24_12h22.58.913.csv
800,40,,1.0,20.0,2874301407-363895.jpg,2883264368-67631.jpg,1.0,,,,AREYIJXFMXZL0_2022-11-24_12h22.58.913.csv
801,41,left,1.0,21.0,left.jpg,,,left,2.156,,AREYIJXFMXZL0_2022-11-24_12h22.58.913.csv
802,42,,1.0,22.0,2981231403-71642.jpg,2864900358-63717.jpg,2.0,,,,AREYIJXFMXZL0_2022-11-24_12h22.58.913.csv
803,43,,1.0,23.0,2964213381-294060.jpg,2598726160-205998.jpg,2.0,,,,AREYIJXFMXZL0_2022-11-24_12h22.58.913.csv
804,44,,1.0,24.0,2449441881-272368.jpg,2238576222-334523.jpg,3.0,,,,AREYIJXFMXZL0_2022-11-24_12h22.58.913.csv
805,45,,1.0,25.0,2874303365-214262.jpg,2512875685-200826.jpg,2.0,,,,AREYIJXFMXZL0_2022-11-24_12h22.58.913.csv
806,46,,1.0,26.0,2446759803-49249.jpg,2446760844-124088.jpg,3.0,,,,AREYIJXFMXZL0_2022-11-24_12h22.58.913.csv
807,47,,1.0,27.0,2592379964-131054.jpg,2424122686-268072.jpg,3.0,,,,AREYIJXFMXZL0_2022-11-24_12h22.58.913.csv
808,48,,1.0,28.0,2981241414-145842.jpg,2868469411-287540.jpg,2.0,,,,AREYIJXFMXZL0_2022-11-24_12h22.58.913.csv
809,49,,1.0,29.0,2898633421-291973.jpg,2512876023-52283.jpg,1.0,,,,AREYIJXFMXZL0_2022-11-24_12h22.58.913.csv
810,50,,1.0,30.0,2883254439-140941.jpg,2964219379-144996.jpg,3.0,,,,AREYIJXFMXZL0_2022-11-24_12h22.58.913.csv
811,51,,1.0,31.0,2592380177-354629.jpg,2901945495-218294.jpg,2.0,,,,AREYIJXFMXZL0_2022-11-24_12h22.58.913.csv
812,52,,1.0,32.0,2238560245-182099.jpg,2901943480-218116.jpg,3.0,,,,AREYIJXFMXZL0_2022-11-24_12h22.58.913.csv
813,53,right,1.0,33.0,right.jpg,,,right,1.312,,AREYIJXFMXZL0_2022-11-24_12h22.58.913.csv
814,54,,1.0,34.0,2901948350-218459.jpg,2898629328-68806.jpg,2.0,,,,AREYIJXFMXZL0_2022-11-24_12h22.58.913.csv
815,55,,1.0,35.0,2898617468-68274.jpg,2864906345-212360.jpg,1.0,,,,AREYIJXFMXZL0_2022-11-24_12h22.58.913.csv
816,56,,1.0,36.0,2874299429-139695.jpg,2238571930-184143.jpg,2.0,,,,AREYIJXFMXZL0_2022-11-24_12h22.58.913.csv
817,57,,1.0,37.0,2883256307-365057.jpg,2901947448-70315.jpg,3.0,,,,AREYIJXFMXZL0_2022-11-24_12h22.58.913.csv
818,58,,1.0,38.0,2898635428-69104.jpg,2901942428-69919.jpg,3.0,,,,AREYIJXFMXZL0_2022-11-24_12h22.58.913.csv
819,59,,1.0,39.0,2874302418-65979.jpg,2901939433-69673.jpg,2.0,,,,AREYIJXFMXZL0_2022-11-24_12h22.58.913.csv
820,60,,1.0,40.0,2901939379-143480.jpg,2981229442-369621.jpg,1.0,,,,AREYIJXFMXZL0_2022-11-24_12h22.58.913.csv
821,61,,1.0,41.0,2864907432-362042.jpg,2898626395-216900.jpg,3.0,,,,AREYIJXFMXZL0_2022-11-24_12h22.58.913.csv
822,62,left,1.0,42.0,left.jpg,,,left,1.461,,AREYIJXFMXZL0_2022-11-24_12h22.58.913.csv
823,63,,1.0,43.0,2452380832-348593.jpg,2238328478-11678.jpg,1.0,,,,AREYIJXFMXZL0_2022-11-24_12h22.58.913.csv
824,64,,1.0,44.0,2512875899-126682.jpg,2238547107-328393.jpg,2.0,,,,AREYIJXFMXZL0_2022-11-24_12h22.58.913.csv
825,65,,1.0,45.0,2238428357-313623.jpg,2984616310-220514.jpg,2.0,,,,AREYIJXFMXZL0_2022-11-24_12h22.58.913.csv
826,66,,1.0,46.0,2864910426-287204.jpg,2864902304-137862.jpg,1.0,,,,AREYIJXFMXZL0_2022-11-24_12h22.58.913.csv
827,67,left,0.0,47.0,right.jpg,,,right,0.292,,AREYIJXFMXZL0_2022-11-24_12h22.58.913.csv
828,68,,1.0,48.0,2449442529-124445.jpg,2452380166-273109.jpg,1.0,,,,AREYIJXFMXZL0_2022-11-24_12h22.58.913.csv
829,69,,1.0,49.0,2460547508-51571.jpg,2446760917-347439.jpg,1.0,,,,AREYIJXFMXZL0_2022-11-24_12h22.58.913.csv
830,70,,1.0,50.0,2458347385-199723.jpg,2512875824-126658.jpg,2.0,,,,AREYIJXFMXZL0_2022-11-24_12h22.58.913.csv
831,71,,1.0,51.0,2868475410-213219.jpg,2901946465-218350.jpg,1.0,,,,AREYIJXFMXZL0_2022-11-24_12h22.58.913.csv
832,72,,1.0,52.0,2898634397-367080.jpg,2446759306-271735.jpg,3.0,,,,AREYIJXFMXZL0_2022-11-24_12h22.58.913.csv
833,73,,1.0,53.0,2874302418-65978.jpg,2898626385-216899.jpg,1.0,,,,AREYIJXFMXZL0_2022-11-24_12h22.58.913.csv
834,74,,1.0,54.0,2901941401-292798.jpg,2238577590-185467.jpg,1.0,,,,AREYIJXFMXZL0_2022-11-24_12h22.58.913.csv
835,75,,1.0,55.0,2238480677-317399.jpg,2446761173-49643.jpg,2.0,,,,AREYIJXFMXZL0_2022-11-24_12h22.58.913.csv
836,76,,1.0,56.0,2901939379-143479.jpg,2446759803-49251.jpg,1.0,,,,AREYIJXFMXZL0_2022-11-24_12h22.58.913.csv
837,77,,1.0,57.0,2446758985-197609.jpg,2452380166-273110.jpg,2.0,,,,AREYIJXFMXZL0_2022-11-24_12h22.58.913.csv
838,78,,1.0,58.0,2964216465-219242.jpg,2981231403-71641.jpg,3.0,,,,AREYIJXFMXZL0_2022-11-24_12h22.58.913.csv
839,79,,1.0,59.0,2592380177-354626.jpg,2986408339-146952.jpg,1.0,,,,AREYIJXFMXZL0_2022-11-24_12h22.58.913.csv
840,80,,1.0,60.0,2460547467-349421.jpg,2898619327-366362.jpg,3.0,,,,AREYIJXFMXZL0_2022-11-24_12h22.58.913.csv
841,81,,1.0,61.0,2238580740-186218.jpg,2575121108-55628.jpg,2.0,,,,AREYIJXFMXZL0_2022-11-24_12h22.58.913.csv
842,82,,1.0,62.0,2238425482-313537.jpg,2864901352-361731.jpg,3.0,,,,AREYIJXFMXZL0_2022-11-24_12h22.58.913.csv
843,83,,1.0,63.0,2868474407-362883.jpg,2238516618-25604.jpg,1.0,,,,AREYIJXFMXZL0_2022-11-24_12h22.58.913.csv
844,84,,1.0,64.0,2898618390-216538.jpg,2238574968-36441.jpg,3.0,,,,AREYIJXFMXZL0_2022-11-24_12h22.58.913.csv
845,20,,1.0,0.0,2874302418-65978.jpg,2898626385-216899.jpg,1.0,,,,A1UEHTBS0LZAA0_2022-11-24_10h24.18.973.csv
846,21,,1.0,1.0,2898618390-216538.jpg,2238574968-36441.jpg,3.0,,,,A1UEHTBS0LZAA0_2022-11-24_10h24.18.973.csv
847,22,,1.0,2.0,2458347385-199723.jpg,2238436632-314070.jpg,3.0,,,,A1UEHTBS0LZAA0_2022-11-24_10h24.18.973.csv
848,23,,1.0,3.0,2883254439-140941.jpg,2460548070-200336.jpg,2.0,,,,A1UEHTBS0LZAA0_2022-11-24_10h24.18.973.csv
849,24,,1.0,4.0,2874307433-66280.jpg,2986447306-296584.jpg,1.0,,,,A1UEHTBS0LZAA0_2022-11-24_10h24.18.973.csv
850,25,,1.0,5.0,2898634397-367080.jpg,2237944827-301472.jpg,1.0,,,,A1UEHTBS0LZAA0_2022-11-24_10h24.18.973.csv
851,26,,1.0,6.0,2449442529-124445.jpg,2901946439-144040.jpg,3.0,,,,A1UEHTBS0LZAA0_2022-11-24_10h24.18.973.csv
852,27,,1.0,7.0,2868475410-213219.jpg,2901946465-218350.jpg,1.0,,,,A1UEHTBS0LZAA0_2022-11-24_10h24.18.973.csv
853,28,,1.0,8.0,2238480677-317399.jpg,2238573546-258454.jpg,3.0,,,,A1UEHTBS0LZAA0_2022-11-24_10h24.18.973.csv
854,29,,1.0,9.0,2452380832-348593.jpg,2237856283-1014.jpg,3.0,,,,A1UEHTBS0LZAA0_2022-11-24_10h24.18.973.csv
855,30,,1.0,10.0,2883268471-290842.jpg,2898623398-68538.jpg,2.0,,,,A1UEHTBS0LZAA0_2022-11-24_10h24.18.973.csv
856,31,right,1.0,11.0,right.jpg,,,right,2.5554,,A1UEHTBS0LZAA0_2022-11-24_10h24.18.973.csv
857,32,,1.0,12.0,2964223381-294447.jpg,2901938432-367628.jpg,3.0,,,,A1UEHTBS0LZAA0_2022-11-24_10h24.18.973.csv
858,33,,1.0,13.0,2901947423-70311.jpg,2446759065-197639.jpg,2.0,,,,A1UEHTBS0LZAA0_2022-11-24_10h24.18.973.csv
859,34,,1.0,14.0,2964216465-219242.jpg,2238482539-94244.jpg,2.0,,,,A1UEHTBS0LZAA0_2022-11-24_10h24.18.973.csv
860,35,,1.0,15.0,2981241414-145842.jpg,2238427023-15948.jpg,3.0,,,,A1UEHTBS0LZAA0_2022-11-24_10h24.18.973.csv
861,36,,1.0,16.0,2883268412-365898.jpg,2984626312-370849.jpg,1.0,,,,A1UEHTBS0LZAA0_2022-11-24_10h24.18.973.csv
862,37,,1.0,17.0,2901939379-143479.jpg,2901938398-69594.jpg,2.0,,,,A1UEHTBS0LZAA0_2022-11-24_10h24.18.973.csv
863,38,,1.0,18.0,2460547508-51571.jpg,2898633480-217189.jpg,2.0,,,,A1UEHTBS0LZAA0_2022-11-24_10h24.18.973.csv
864,39,,1.0,19.0,2238572663-35822.jpg,2984615361-295510.jpg,2.0,,,,A1UEHTBS0LZAA0_2022-11-24_10h24.18.973.csv
865,40,right,1.0,20.0,right.jpg,,,right,2.1642,,A1UEHTBS0LZAA0_2022-11-24_10h24.18.973.csv
866,41,,1.0,21.0,2981231403-71642.jpg,2864900358-63717.jpg,2.0,,,,A1UEHTBS0LZAA0_2022-11-24_10h24.18.973.csv
867,42,,1.0,22.0,2964213381-294060.jpg,2883254439-140940.jpg,3.0,,,,A1UEHTBS0LZAA0_2022-11-24_10h24.18.973.csv
868,43,,1.0,23.0,2452381505-199546.jpg,2449442621-272560.jpg,2.0,,,,A1UEHTBS0LZAA0_2022-11-24_10h24.18.973.csv
869,44,,1.0,24.0,2898635428-69104.jpg,2446759803-49250.jpg,1.0,,,,A1UEHTBS0LZAA0_2022-11-24_10h24.18.973.csv
870,45,,1.0,25.0,2901952513-70703.jpg,2901949316-293454.jpg,2.0,,,,A1UEHTBS0LZAA0_2022-11-24_10h24.18.973.csv
871,46,,1.0,26.0,2986451363-73599.jpg,2238571930-184142.jpg,2.0,,,,A1UEHTBS0LZAA0_2022-11-24_10h24.18.973.csv
872,47,,1.0,27.0,2874303365-214262.jpg,2609793677-355397.jpg,1.0,,,,A1UEHTBS0LZAA0_2022-11-24_10h24.18.973.csv
873,48,,1.0,28.0,2446758985-197609.jpg,2238087237-303447.jpg,3.0,,,,A1UEHTBS0LZAA0_2022-11-24_10h24.18.973.csv
874,49,,1.0,29.0,2449441881-272368.jpg,2898617374-142166.jpg,2.0,,,,A1UEHTBS0LZAA0_2022-11-24_10h24.18.973.csv
875,50,,1.0,30.0,2864910426-287204.jpg,2898632427-367006.jpg,3.0,,,,A1UEHTBS0LZAA0_2022-11-24_10h24.18.973.csv
876,51,,1.0,31.0,2883256307-365057.jpg,2611628310-206388.jpg,1.0,,,,A1UEHTBS0LZAA0_2022-11-24_10h24.18.973.csv
877,52,,1.0,32.0,2868474407-362883.jpg,2898634332-367068.jpg,3.0,,,,A1UEHTBS0LZAA0_2022-11-24_10h24.18.973.csv
878,53,,1.0,33.0,2864907432-362042.jpg,2864901420-212147.jpg,1.0,,,,A1UEHTBS0LZAA0_2022-11-24_10h24.18.973.csv
879,54,,0.0,34.0,right.jpg,,,right,,,A1UEHTBS0LZAA0_2022-11-24_10h24.18.973.csv
880,55,,1.0,35.0,2238425482-313537.jpg,2238471391-240918.jpg,1.0,,,,A1UEHTBS0LZAA0_2022-11-24_10h24.18.973.csv
881,56,,1.0,36.0,2449442529-124446.jpg,2964216376-294181.jpg,2.0,,,,A1UEHTBS0LZAA0_2022-11-24_10h24.18.973.csv
882,57,right,1.0,37.0,right.jpg,,,right,1.6866,,A1UEHTBS0LZAA0_2022-11-24_10h24.18.973.csv
883,58,,1.0,38.0,2901948350-218459.jpg,2898629328-68806.jpg,2.0,,,,A1UEHTBS0LZAA0_2022-11-24_10h24.18.973.csv
884,59,,1.0,39.0,2898635427-367120.jpg,2898624426-291545.jpg,3.0,,,,A1UEHTBS0LZAA0_2022-11-24_10h24.18.973.csv
885,60,,1.0,40.0,2901939379-143480.jpg,2901933403-69214.jpg,3.0,,,,A1UEHTBS0LZAA0_2022-11-24_10h24.18.973.csv
886,61,,1.0,41.0,2238481928-19949.jpg,2883264367-365620.jpg,1.0,,,,A1UEHTBS0LZAA0_2022-11-24_10h24.18.973.csv
887,62,,1.0,42.0,2874301407-363895.jpg,2989715317-371697.jpg,3.0,,,,A1UEHTBS0LZAA0_2022-11-24_10h24.18.973.csv
888,63,,1.0,43.0,2446759803-49249.jpg,2446760601-272099.jpg,1.0,,,,A1UEHTBS0LZAA0_2022-11-24_10h24.18.973.csv
889,64,,1.0,44.0,2874302418-65979.jpg,2901939433-69673.jpg,2.0,,,,A1UEHTBS0LZAA0_2022-11-24_10h24.18.973.csv
890,65,,1.0,45.0,2460547467-349422.jpg,2898635428-69106.jpg,3.0,,,,A1UEHTBS0LZAA0_2022-11-24_10h24.18.973.csv
891,66,,1.0,46.0,2575120738-55529.jpg,2898632385-217137.jpg,1.0,,,,A1UEHTBS0LZAA0_2022-11-24_10h24.18.973.csv
892,67,,1.0,47.0,2238560245-182099.jpg,2549106624-127823.jpg,1.0,,,,A1UEHTBS0LZAA0_2022-11-24_10h24.18.973.csv
893,68,,1.0,48.0,2874299429-139695.jpg,2883266388-67750.jpg,1.0,,,,A1UEHTBS0LZAA0_2022-11-24_10h24.18.973.csv
894,69,,1.0,49.0,2512875899-126682.jpg,2238547107-328393.jpg,2.0,,,,A1UEHTBS0LZAA0_2022-11-24_10h24.18.973.csv
895,70,,1.0,50.0,2592380177-354626.jpg,2579432708-56392.jpg,3.0,,,,A1UEHTBS0LZAA0_2022-11-24_10h24.18.973.csv
896,71,,1.0,51.0,2238481198-19822.jpg,2901941438-69835.jpg,3.0,,,,A1UEHTBS0LZAA0_2022-11-24_10h24.18.973.csv
897,72,left,1.0,52.0,left.jpg,,,left,1.6952,,A1UEHTBS0LZAA0_2022-11-24_10h24.18.973.csv
898,73,,1.0,53.0,2898617468-68274.jpg,2238433340-164524.jpg,2.0,,,,A1UEHTBS0LZAA0_2022-11-24_10h24.18.973.csv
899,74,,1.0,54.0,2898624426-291546.jpg,2964207374-144577.jpg,1.0,,,,A1UEHTBS0LZAA0_2022-11-24_10h24.18.973.csv
900,75,,1.0,55.0,2446759347-347016.jpg,2864904415-212294.jpg,2.0,,,,A1UEHTBS0LZAA0_2022-11-24_10h24.18.973.csv
901,76,,1.0,56.0,2898633421-291973.jpg,2238580922-335631.jpg,2.0,,,,A1UEHTBS0LZAA0_2022-11-24_10h24.18.973.csv
902,77,,1.0,57.0,2460547467-349421.jpg,2898619327-366362.jpg,3.0,,,,A1UEHTBS0LZAA0_2022-11-24_10h24.18.973.csv
903,78,,1.0,58.0,2964218374-144967.jpg,2898633476-291993.jpg,3.0,,,,A1UEHTBS0LZAA0_2022-11-24_10h24.18.973.csv
904,79,,1.0,59.0,2901941401-292798.jpg,2238577590-185467.jpg,1.0,,,,A1UEHTBS0LZAA0_2022-11-24_10h24.18.973.csv
905,80,,1.0,60.0,2592379964-131054.jpg,2427875694-122097.jpg,2.0,,,,A1UEHTBS0LZAA0_2022-11-24_10h24.18.973.csv
906,81,,1.0,61.0,2898618444-142233.jpg,2898631359-142721.jpg,1.0,,,,A1UEHTBS0LZAA0_2022-11-24_10h24.18.973.csv
907,82,,1.0,62.0,2238428357-313623.jpg,2238499057-320266.jpg,1.0,,,,A1UEHTBS0LZAA0_2022-11-24_10h24.18.973.csv
908,83,,1.0,63.0,2238580740-186218.jpg,2874312404-140477.jpg,3.0,,,,A1UEHTBS0LZAA0_2022-11-24_10h24.18.973.csv
909,84,,1.0,64.0,2592380177-354629.jpg,2898633421-291974.jpg,1.0,,,,A1UEHTBS0LZAA0_2022-11-24_10h24.18.973.csv
910,20,,1.0,0.0,2874307433-66280.jpg,2864900357-361688.jpg,2.0,,,,A2FQVRBXJZQAWT_2022-11-24_07h31.51.430.csv
911,21,,1.0,1.0,2868475410-213219.jpg,2238558380-181702.jpg,3.0,,,,A2FQVRBXJZQAWT_2022-11-24_07h31.51.430.csv
912,22,,1.0,2.0,2901952513-70703.jpg,2238537701-251773.jpg,3.0,,,,A2FQVRBXJZQAWT_2022-11-24_07h31.51.430.csv
913,23,,1.0,3.0,2898633421-291973.jpg,2989730319-147821.jpg,3.0,,,,A2FQVRBXJZQAWT_2022-11-24_07h31.51.430.csv
914,24,,1.0,4.0,2449442529-124445.jpg,2901948476-293423.jpg,2.0,,,,A2FQVRBXJZQAWT_2022-11-24_07h31.51.430.csv
915,25,,1.0,5.0,2901947423-70311.jpg,2860312398-62572.jpg,1.0,,,,A2FQVRBXJZQAWT_2022-11-24_07h31.51.430.csv
916,26,,1.0,6.0,2898624426-291546.jpg,2964207374-144577.jpg,1.0,,,,A2FQVRBXJZQAWT_2022-11-24_07h31.51.430.csv
917,27,,1.0,7.0,2883268412-365898.jpg,2862687418-62786.jpg,3.0,,,,A2FQVRBXJZQAWT_2022-11-24_07h31.51.430.csv
918,28,,1.0,8.0,2901941401-292798.jpg,2883273443-68192.jpg,3.0,,,,A2FQVRBXJZQAWT_2022-11-24_07h31.51.430.csv
919,29,,1.0,9.0,2868474407-362883.jpg,2898634332-367068.jpg,3.0,,,,A2FQVRBXJZQAWT_2022-11-24_07h31.51.430.csv
920,30,,1.0,10.0,2901939379-143479.jpg,2901938398-69594.jpg,2.0,,,,A2FQVRBXJZQAWT_2022-11-24_07h31.51.430.csv
