,index,demo_encoding_loop.thisTrialN,DemoImage,DemoCorrect,demo_encoding_response.rt,demo_encoding_response.keys,index,demo_test_response.keys,demo_test_response.corr,demo_test_response.rt,demo_test_loop.thisTrialN,DemoImage1,DemoImage2,DemoCorrectTest,subject
0,4,0.0,flower1.jpg,,,,12.0,left,1.0,2.2812,0.0,flower1.jpg,flower1_pair.jpg,left,A3H1A5PGLBBWR0_2022-11-24_10h22.56.476.csv
1,5,1.0,flower2.jpg,,,,13.0,right,1.0,2.1715,1.0,flower2_pair.jpg,flower2.jpg,right,A3H1A5PGLBBWR0_2022-11-24_10h22.56.476.csv
2,6,2.0,left.jpg,left,1.2616,left,14.0,right,0.0,0.6536,2.0,flower3.jpg,flower3_pair.jpg,left,A3H1A5PGLBBWR0_2022-11-24_10h22.56.476.csv
3,7,3.0,flower3.jpg,,,,15.0,left,1.0,0.473,3.0,flower4.jpg,flower4_pair.jpg,left,A3H1A5PGLBBWR0_2022-11-24_10h22.56.476.csv
4,8,4.0,flower4.jpg,,,,16.0,right,1.0,1.0061,4.0,flower5_pair.jpg,flower5.jpg,right,A3H1A5PGLBBWR0_2022-11-24_10h22.56.476.csv
5,9,5.0,flower5.jpg,,,,17.0,right,0.0,1.1455,5.0,flower6.jpg,flower6_pair.jpg,left,A3H1A5PGLBBWR0_2022-11-24_10h22.56.476.csv
6,10,6.0,flower6.jpg,,,,,,,,,,,,A3H1A5PGLBBWR0_2022-11-24_10h22.56.476.csv
7,4,0.0,flower1.jpg,,,,12.0,left,1.0,1.7589,0.0,flower1.jpg,flower1_pair.jpg,left,A5SHVX15AQJQF_2022-11-24_10h24.01.860.csv
8,5,1.0,flower2.jpg,,,,13.0,right,1.0,1.5839,1.0,flower2_pair.jpg,flower2.jpg,right,A5SHVX15AQJQF_2022-11-24_10h24.01.860.csv
9,6,2.0,left.jpg,left,1.6596,left,14.0,left,1.0,1.699,2.0,flower3.jpg,flower3_pair.jpg,left,A5SHVX15AQJQF_2022-11-24_10h24.01.860.csv
10,7,3.0,flower3.jpg,,,,15.0,right,0.0,1.4037,3.0,flower4.jpg,flower4_pair.jpg,left,A5SHVX15AQJQF_2022-11-24_10h24.01.860.csv
11,8,4.0,flower4.jpg,,,,16.0,left,0.0,1.4771,4.0,flower5_pair.jpg,flower5.jpg,right,A5SHVX15AQJQF_2022-11-24_10h24.01.860.csv
12,9,5.0,flower5.jpg,,,,17.0,right,0.0,1.1868,5.0,flower6.jpg,flower6_pair.jpg,left,A5SHVX15AQJQF_2022-11-24_10h24.01.860.csv
13,10,6.0,flower6.jpg,,,,,,,,,,,,A5SHVX15AQJQF_2022-11-24_10h24.01.860.csv
14,4,0.0,flower1.jpg,,,,12.0,right,0.0,26.513,0.0,flower1.jpg,flower1_pair.jpg,left,A3KVIZLKSASAES_2022-11-24_10h37.14.539.csv
15,5,1.0,flower2.jpg,,,,13.0,left,0.0,7.804,1.0,flower2_pair.jpg,flower2.jpg,right,A3KVIZLKSASAES_2022-11-24_10h37.14.539.csv
16,6,2.0,left.jpg,left,2.193,left,14.0,left,1.0,4.199,2.0,flower3.jpg,flower3_pair.jpg,left,A3KVIZLKSASAES_2022-11-24_10h37.14.539.csv
17,7,3.0,flower3.jpg,,,,15.0,left,1.0,7.275,3.0,flower4.jpg,flower4_pair.jpg,left,A3KVIZLKSASAES_2022-11-24_10h37.14.539.csv
18,8,4.0,flower4.jpg,,,,16.0,right,1.0,4.57,4.0,flower5_pair.jpg,flower5.jpg,right,A3KVIZLKSASAES_2022-11-24_10h37.14.539.csv
19,9,5.0,flower5.jpg,,,,17.0,left,1.0,6.473,5.0,flower6.jpg,flower6_pair.jpg,left,A3KVIZLKSASAES_2022-11-24_10h37.14.539.csv
20,10,6.0,flower6.jpg,,,,,,,,,,,,A3KVIZLKSASAES_2022-11-24_10h37.14.539.csv
21,4,0.0,flower1.jpg,,,,12.0,left,1.0,3.0595,0.0,flower1.jpg,flower1_pair.jpg,left,A1T90U2KNBZZR5_2022-11-24_10h30.26.864.csv
22,5,1.0,flower2.jpg,,,,13.0,right,1.0,1.7781,1.0,flower2_pair.jpg,flower2.jpg,right,A1T90U2KNBZZR5_2022-11-24_10h30.26.864.csv
23,6,2.0,left.jpg,left,0.7481,left,14.0,left,1.0,1.9411,2.0,flower3.jpg,flower3_pair.jpg,left,A1T90U2KNBZZR5_2022-11-24_10h30.26.864.csv
24,7,3.0,flower3.jpg,,,,15.0,left,1.0,2.2975,3.0,flower4.jpg,flower4_pair.jpg,left,A1T90U2KNBZZR5_2022-11-24_10h30.26.864.csv
25,8,4.0,flower4.jpg,,,,16.0,right,1.0,1.3997,4.0,flower5_pair.jpg,flower5.jpg,right,A1T90U2KNBZZR5_2022-11-24_10h30.26.864.csv
26,9,5.0,flower5.jpg,,,,17.0,right,0.0,1.4879,5.0,flower6.jpg,flower6_pair.jpg,left,A1T90U2KNBZZR5_2022-11-24_10h30.26.864.csv
27,10,6.0,flower6.jpg,,,,,,,,,,,,A1T90U2KNBZZR5_2022-11-24_10h30.26.864.csv
28,4,0.0,flower1.jpg,,,,12.0,left,1.0,1.4835,0.0,flower1.jpg,flower1_pair.jpg,left,A1VSEDABJFNUVQ_2022-11-24_10h31.40.849.csv
29,5,1.0,flower2.jpg,,,,13.0,right,1.0,1.6537,1.0,flower2_pair.jpg,flower2.jpg,right,A1VSEDABJFNUVQ_2022-11-24_10h31.40.849.csv
30,6,2.0,left.jpg,left,1.421,left,14.0,right,0.0,0.9741,2.0,flower3.jpg,flower3_pair.jpg,left,A1VSEDABJFNUVQ_2022-11-24_10h31.40.849.csv
31,7,3.0,flower3.jpg,,,,15.0,left,1.0,0.5607,3.0,flower4.jpg,flower4_pair.jpg,left,A1VSEDABJFNUVQ_2022-11-24_10h31.40.849.csv
32,8,4.0,flower4.jpg,,,,16.0,left,0.0,0.8393,4.0,flower5_pair.jpg,flower5.jpg,right,A1VSEDABJFNUVQ_2022-11-24_10h31.40.849.csv
33,9,5.0,flower5.jpg,,,,17.0,right,0.0,0.8173,5.0,flower6.jpg,flower6_pair.jpg,left,A1VSEDABJFNUVQ_2022-11-24_10h31.40.849.csv
34,10,6.0,flower6.jpg,,,,,,,,,,,,A1VSEDABJFNUVQ_2022-11-24_10h31.40.849.csv
35,4,0.0,flower1.jpg,,,,12.0,left,1.0,6.1481,0.0,flower1.jpg,flower1_pair.jpg,left,A3EFT5ETMGRUC2_2022-11-24_10h38.21.210.csv
36,5,1.0,flower2.jpg,,,,13.0,left,0.0,1.779,1.0,flower2_pair.jpg,flower2.jpg,right,A3EFT5ETMGRUC2_2022-11-24_10h38.21.210.csv
37,6,2.0,left.jpg,left,0.9055,left,14.0,left,1.0,1.7122,2.0,flower3.jpg,flower3_pair.jpg,left,A3EFT5ETMGRUC2_2022-11-24_10h38.21.210.csv
38,7,3.0,flower3.jpg,,,,15.0,left,1.0,2.4645,3.0,flower4.jpg,flower4_pair.jpg,left,A3EFT5ETMGRUC2_2022-11-24_10h38.21.210.csv
39,8,4.0,flower4.jpg,,,,16.0,right,1.0,2.0254,4.0,flower5_pair.jpg,flower5.jpg,right,A3EFT5ETMGRUC2_2022-11-24_10h38.21.210.csv
40,9,5.0,flower5.jpg,,,,17.0,right,0.0,1.5038,5.0,flower6.jpg,flower6_pair.jpg,left,A3EFT5ETMGRUC2_2022-11-24_10h38.21.210.csv
41,10,6.0,flower6.jpg,,,,,,,,,,,,A3EFT5ETMGRUC2_2022-11-24_10h38.21.210.csv
42,4,0.0,flower1.jpg,,,,12.0,left,1.0,1.8256,0.0,flower1.jpg,flower1_pair.jpg,left,A3HZFB2JLF3JMY_2022-11-24_10h28.21.791.csv
43,5,1.0,flower2.jpg,,,,13.0,right,1.0,1.61,1.0,flower2_pair.jpg,flower2.jpg,right,A3HZFB2JLF3JMY_2022-11-24_10h28.21.791.csv
44,6,2.0,left.jpg,left,1.1825,left,14.0,left,1.0,1.343,2.0,flower3.jpg,flower3_pair.jpg,left,A3HZFB2JLF3JMY_2022-11-24_10h28.21.791.csv
45,7,3.0,flower3.jpg,,,,15.0,left,1.0,1.4765,3.0,flower4.jpg,flower4_pair.jpg,left,A3HZFB2JLF3JMY_2022-11-24_10h28.21.791.csv
46,8,4.0,flower4.jpg,,,,16.0,right,1.0,1.5218,4.0,flower5_pair.jpg,flower5.jpg,right,A3HZFB2JLF3JMY_2022-11-24_10h28.21.791.csv
47,9,5.0,flower5.jpg,,,,17.0,left,1.0,1.3916,5.0,flower6.jpg,flower6_pair.jpg,left,A3HZFB2JLF3JMY_2022-11-24_10h28.21.791.csv
48,10,6.0,flower6.jpg,,,,,,,,,,,,A3HZFB2JLF3JMY_2022-11-24_10h28.21.791.csv
49,4,0.0,flower1.jpg,,,,12.0,left,1.0,4.3932,0.0,flower1.jpg,flower1_pair.jpg,left,AE9KNJZWDCDSE_2022-11-24_10h25.25.804.csv
50,5,1.0,flower2.jpg,,,,13.0,left,0.0,5.3499,1.0,flower2_pair.jpg,flower2.jpg,right,AE9KNJZWDCDSE_2022-11-24_10h25.25.804.csv
51,6,2.0,left.jpg,left,1.6511,left,14.0,left,1.0,2.8692,2.0,flower3.jpg,flower3_pair.jpg,left,AE9KNJZWDCDSE_2022-11-24_10h25.25.804.csv
52,7,3.0,flower3.jpg,,,,15.0,left,1.0,2.204,3.0,flower4.jpg,flower4_pair.jpg,left,AE9KNJZWDCDSE_2022-11-24_10h25.25.804.csv
53,8,4.0,flower4.jpg,,,,16.0,left,0.0,1.6391,4.0,flower5_pair.jpg,flower5.jpg,right,AE9KNJZWDCDSE_2022-11-24_10h25.25.804.csv
54,9,5.0,flower5.jpg,,,,17.0,right,0.0,1.8709,5.0,flower6.jpg,flower6_pair.jpg,left,AE9KNJZWDCDSE_2022-11-24_10h25.25.804.csv
55,10,6.0,flower6.jpg,,,,,,,,,,,,AE9KNJZWDCDSE_2022-11-24_10h25.25.804.csv
56,4,0.0,flower1.jpg,,,,12.0,left,1.0,10.1363,0.0,flower1.jpg,flower1_pair.jpg,left,A1JLSWEISM2DWE__2022-11-24_10h28.33.736.csv
57,5,1.0,flower2.jpg,,,,13.0,right,1.0,8.1325,1.0,flower2_pair.jpg,flower2.jpg,right,A1JLSWEISM2DWE__2022-11-24_10h28.33.736.csv
58,6,2.0,left.jpg,left,1.936400002,left,14.0,left,1.0,51.6867,2.0,flower3.jpg,flower3_pair.jpg,left,A1JLSWEISM2DWE__2022-11-24_10h28.33.736.csv
59,7,3.0,flower3.jpg,,,,15.0,right,0.0,40.2471,3.0,flower4.jpg,flower4_pair.jpg,left,A1JLSWEISM2DWE__2022-11-24_10h28.33.736.csv
60,8,4.0,flower4.jpg,,,,16.0,right,1.0,34.8545,4.0,flower5_pair.jpg,flower5.jpg,right,A1JLSWEISM2DWE__2022-11-24_10h28.33.736.csv
61,9,5.0,flower5.jpg,,,,17.0,right,0.0,0.010199999,5.0,flower6.jpg,flower6_pair.jpg,left,A1JLSWEISM2DWE__2022-11-24_10h28.33.736.csv
62,10,6.0,flower6.jpg,,,,,,,,,,,,A1JLSWEISM2DWE__2022-11-24_10h28.33.736.csv
63,4,0.0,flower1.jpg,,,,12.0,left,1.0,6.24,0.0,flower1.jpg,flower1_pair.jpg,left,A137V1J5GNNZTH_2022-11-24_14h32.35.842.csv
64,5,1.0,flower2.jpg,,,,13.0,right,1.0,6.53,1.0,flower2_pair.jpg,flower2.jpg,right,A137V1J5GNNZTH_2022-11-24_14h32.35.842.csv
65,6,2.0,left.jpg,left,1.017,left,14.0,left,1.0,3.547,2.0,flower3.jpg,flower3_pair.jpg,left,A137V1J5GNNZTH_2022-11-24_14h32.35.842.csv
66,7,3.0,flower3.jpg,,,,15.0,left,1.0,3.674,3.0,flower4.jpg,flower4_pair.jpg,left,A137V1J5GNNZTH_2022-11-24_14h32.35.842.csv
67,8,4.0,flower4.jpg,,,,16.0,right,1.0,3.294,4.0,flower5_pair.jpg,flower5.jpg,right,A137V1J5GNNZTH_2022-11-24_14h32.35.842.csv
68,9,5.0,flower5.jpg,,,,17.0,left,1.0,3.004,5.0,flower6.jpg,flower6_pair.jpg,left,A137V1J5GNNZTH_2022-11-24_14h32.35.842.csv
69,10,6.0,flower6.jpg,,,,,,,,,,,,A137V1J5GNNZTH_2022-11-24_14h32.35.842.csv
70,4,0.0,flower1.jpg,,,,12.0,left,1.0,6.0034,0.0,flower1.jpg,flower1_pair.jpg,left,A1K4FKVCBTX1RN_2022-11-24_07h36.54.075.csv
71,5,1.0,flower2.jpg,,,,13.0,right,1.0,1.7126,1.0,flower2_pair.jpg,flower2.jpg,right,A1K4FKVCBTX1RN_2022-11-24_07h36.54.075.csv
72,6,2.0,left.jpg,left,0.5308,left,14.0,left,1.0,1.623,2.0,flower3.jpg,flower3_pair.jpg,left,A1K4FKVCBTX1RN_2022-11-24_07h36.54.075.csv
73,7,3.0,flower3.jpg,,,,15.0,right,0.0,1.2467,3.0,flower4.jpg,flower4_pair.jpg,left,A1K4FKVCBTX1RN_2022-11-24_07h36.54.075.csv
74,8,4.0,flower4.jpg,,,,16.0,left,0.0,0.9745,4.0,flower5_pair.jpg,flower5.jpg,right,A1K4FKVCBTX1RN_2022-11-24_07h36.54.075.csv
75,9,5.0,flower5.jpg,,,,17.0,right,0.0,0.4636,5.0,flower6.jpg,flower6_pair.jpg,left,A1K4FKVCBTX1RN_2022-11-24_07h36.54.075.csv
76,10,6.0,flower6.jpg,,,,,,,,,,,,A1K4FKVCBTX1RN_2022-11-24_07h36.54.075.csv
77,4,0.0,flower1.jpg,,,,12.0,left,1.0,1.5818,0.0,flower1.jpg,flower1_pair.jpg,left,AIEKCWYZTS41V_2022-11-24_10h31.00.383.csv
78,5,1.0,flower2.jpg,,,,13.0,left,0.0,1.3006,1.0,flower2_pair.jpg,flower2.jpg,right,AIEKCWYZTS41V_2022-11-24_10h31.00.383.csv
79,6,2.0,left.jpg,left,0.9935,left,14.0,left,1.0,1.3411,2.0,flower3.jpg,flower3_pair.jpg,left,AIEKCWYZTS41V_2022-11-24_10h31.00.383.csv
80,7,3.0,flower3.jpg,,,,15.0,left,1.0,1.4535,3.0,flower4.jpg,flower4_pair.jpg,left,AIEKCWYZTS41V_2022-11-24_10h31.00.383.csv
81,8,4.0,flower4.jpg,,,,16.0,right,1.0,1.6149,4.0,flower5_pair.jpg,flower5.jpg,right,AIEKCWYZTS41V_2022-11-24_10h31.00.383.csv
82,9,5.0,flower5.jpg,,,,17.0,left,1.0,1.3507,5.0,flower6.jpg,flower6_pair.jpg,left,AIEKCWYZTS41V_2022-11-24_10h31.00.383.csv
83,10,6.0,flower6.jpg,,,,,,,,,,,,AIEKCWYZTS41V_2022-11-24_10h31.00.383.csv
84,4,0.0,flower1.jpg,,,,12.0,left,1.0,4.379,0.0,flower1.jpg,flower1_pair.jpg,left,AREYIJXFMXZL0_2022-11-24_12h22.58.913.csv
85,5,1.0,flower2.jpg,,,,13.0,right,1.0,6.229,1.0,flower2_pair.jpg,flower2.jpg,right,AREYIJXFMXZL0_2022-11-24_12h22.58.913.csv
86,6,2.0,left.jpg,left,2.152,left,14.0,left,1.0,2.947,2.0,flower3.jpg,flower3_pair.jpg,left,AREYIJXFMXZL0_2022-11-24_12h22.58.913.csv
87,7,3.0,flower3.jpg,,,,15.0,left,1.0,3.346,3.0,flower4.jpg,flower4_pair.jpg,left,AREYIJXFMXZL0_2022-11-24_12h22.58.913.csv
88,8,4.0,flower4.jpg,,,,16.0,right,1.0,2.612,4.0,flower5_pair.jpg,flower5.jpg,right,AREYIJXFMXZL0_2022-11-24_12h22.58.913.csv
89,9,5.0,flower5.jpg,,,,17.0,left,1.0,3.426,5.0,flower6.jpg,flower6_pair.jpg,left,AREYIJXFMXZL0_2022-11-24_12h22.58.913.csv
90,10,6.0,flower6.jpg,,,,,,,,,,,,AREYIJXFMXZL0_2022-11-24_12h22.58.913.csv
91,4,0.0,flower1.jpg,,,,12.0,left,1.0,7.0914,0.0,flower1.jpg,flower1_pair.jpg,left,A1UEHTBS0LZAA0_2022-11-24_10h24.18.973.csv
92,5,1.0,flower2.jpg,,,,13.0,right,1.0,5.718,1.0,flower2_pair.jpg,flower2.jpg,right,A1UEHTBS0LZAA0_2022-11-24_10h24.18.973.csv
93,6,2.0,left.jpg,left,2.5613,left,14.0,left,1.0,9.1848,2.0,flower3.jpg,flower3_pair.jpg,left,A1UEHTBS0LZAA0_2022-11-24_10h24.18.973.csv
94,7,3.0,flower3.jpg,,,,15.0,left,1.0,4.0962,3.0,flower4.jpg,flower4_pair.jpg,left,A1UEHTBS0LZAA0_2022-11-24_10h24.18.973.csv
95,8,4.0,flower4.jpg,,,,16.0,right,1.0,2.5876,4.0,flower5_pair.jpg,flower5.jpg,right,A1UEHTBS0LZAA0_2022-11-24_10h24.18.973.csv
96,9,5.0,flower5.jpg,,,,17.0,left,1.0,4.0174,5.0,flower6.jpg,flower6_pair.jpg,left,A1UEHTBS0LZAA0_2022-11-24_10h24.18.973.csv
97,10,6.0,flower6.jpg,,,,,,,,,,,,A1UEHTBS0LZAA0_2022-11-24_10h24.18.973.csv
98,4,0.0,flower1.jpg,,,,12.0,right,0.0,11.442,0.0,flower1.jpg,flower1_pair.jpg,left,A2FQVRBXJZQAWT_2022-11-24_07h31.51.430.csv
99,5,1.0,flower2.jpg,,,,13.0,right,1.0,3.884,1.0,flower2_pair.jpg,flower2.jpg,right,A2FQVRBXJZQAWT_2022-11-24_07h31.51.430.csv
100,6,2.0,left.jpg,left,0.755,left,14.0,right,0.0,3.586,2.0,flower3.jpg,flower3_pair.jpg,left,A2FQVRBXJZQAWT_2022-11-24_07h31.51.430.csv
101,7,3.0,flower3.jpg,,,,15.0,right,0.0,4.162,3.0,flower4.jpg,flower4_pair.jpg,left,A2FQVRBXJZQAWT_2022-11-24_07h31.51.430.csv
102,8,4.0,flower4.jpg,,,,16.0,right,1.0,2.77,4.0,flower5_pair.jpg,flower5.jpg,right,A2FQVRBXJZQAWT_2022-11-24_07h31.51.430.csv
103,9,5.0,flower5.jpg,,,,17.0,right,0.0,2.67,5.0,flower6.jpg,flower6_pair.jpg,left,A2FQVRBXJZQAWT_2022-11-24_07h31.51.430.csv
104,10,6.0,flower6.jpg,,,,,,,,,,,,A2FQVRBXJZQAWT_2022-11-24_07h31.51.430.csv
105,4,0.0,flower1.jpg,,,,12.0,left,1.0,4.1881,0.0,flower1.jpg,flower1_pair.jpg,left,A2EFMN1AFPRCL_2022-11-24_07h37.50.567.csv
106,5,1.0,flower2.jpg,,,,13.0,right,1.0,6.0608,1.0,flower2_pair.jpg,flower2.jpg,right,A2EFMN1AFPRCL_2022-11-24_07h37.50.567.csv
107,6,2.0,left.jpg,left,1.3625,left,14.0,left,1.0,4.0375,2.0,flower3.jpg,flower3_pair.jpg,left,A2EFMN1AFPRCL_2022-11-24_07h37.50.567.csv
108,7,3.0,flower3.jpg,,,,15.0,left,1.0,3.5991,3.0,flower4.jpg,flower4_pair.jpg,left,A2EFMN1AFPRCL_2022-11-24_07h37.50.567.csv
109,8,4.0,flower4.jpg,,,,16.0,right,1.0,3.7021,4.0,flower5_pair.jpg,flower5.jpg,right,A2EFMN1AFPRCL_2022-11-24_07h37.50.567.csv
110,9,5.0,flower5.jpg,,,,17.0,left,1.0,3.2621,5.0,flower6.jpg,flower6_pair.jpg,left,A2EFMN1AFPRCL_2022-11-24_07h37.50.567.csv
111,10,6.0,flower6.jpg,,,,,,,,,,,,A2EFMN1AFPRCL_2022-11-24_07h37.50.567.csv
112,4,0.0,flower1.jpg,,,,12.0,right,0.0,0.921,0.0,flower1.jpg,flower1_pair.jpg,left,ALDAL97WR0CYZ_2022-11-24_10h56.53.144.csv
113,5,1.0,flower2.jpg,,,,13.0,left,0.0,0.005,1.0,flower2_pair.jpg,flower2.jpg,right,ALDAL97WR0CYZ_2022-11-24_10h56.53.144.csv
114,6,2.0,left.jpg,left,1.941,left,14.0,right,0.0,0.007,2.0,flower3.jpg,flower3_pair.jpg,left,ALDAL97WR0CYZ_2022-11-24_10h56.53.144.csv
115,7,3.0,flower3.jpg,,,,15.0,right,0.0,0.005,3.0,flower4.jpg,flower4_pair.jpg,left,ALDAL97WR0CYZ_2022-11-24_10h56.53.144.csv
116,8,4.0,flower4.jpg,,,,16.0,left,0.0,0.008,4.0,flower5_pair.jpg,flower5.jpg,right,ALDAL97WR0CYZ_2022-11-24_10h56.53.144.csv
117,9,5.0,flower5.jpg,,,,17.0,right,0.0,0.006,5.0,flower6.jpg,flower6_pair.jpg,left,ALDAL97WR0CYZ_2022-11-24_10h56.53.144.csv
118,10,6.0,flower6.jpg,,,,,,,,,,,,ALDAL97WR0CYZ_2022-11-24_10h56.53.144.csv
119,4,0.0,flower1.jpg,,,,12.0,left,1.0,5.644,0.0,flower1.jpg,flower1_pair.jpg,left,A1IGKJ200N82S9_2022-11-24_12h59.40.955.csv
120,5,1.0,flower2.jpg,,,,13.0,left,0.0,7.338,1.0,flower2_pair.jpg,flower2.jpg,right,A1IGKJ200N82S9_2022-11-24_12h59.40.955.csv
121,6,2.0,left.jpg,left,1.018,left,14.0,left,1.0,2.845,2.0,flower3.jpg,flower3_pair.jpg,left,A1IGKJ200N82S9_2022-11-24_12h59.40.955.csv
122,7,3.0,flower3.jpg,,,,15.0,right,0.0,2.082,3.0,flower4.jpg,flower4_pair.jpg,left,A1IGKJ200N82S9_2022-11-24_12h59.40.955.csv
123,8,4.0,flower4.jpg,,,,16.0,right,1.0,2.659,4.0,flower5_pair.jpg,flower5.jpg,right,A1IGKJ200N82S9_2022-11-24_12h59.40.955.csv
124,9,5.0,flower5.jpg,,,,17.0,left,1.0,2.33,5.0,flower6.jpg,flower6_pair.jpg,left,A1IGKJ200N82S9_2022-11-24_12h59.40.955.csv
125,10,6.0,flower6.jpg,,,,,,,,,,,,A1IGKJ200N82S9_2022-11-24_12h59.40.955.csv
126,4,0.0,flower1.jpg,,,,12.0,left,1.0,2.1388,0.0,flower1.jpg,flower1_pair.jpg,left,A3G8XCOSTGW1CZ_2022-11-24_10h24.32.168.csv
127,5,1.0,flower2.jpg,,,,13.0,left,0.0,2.8737,1.0,flower2_pair.jpg,flower2.jpg,right,A3G8XCOSTGW1CZ_2022-11-24_10h24.32.168.csv
128,6,2.0,left.jpg,left,0.5425,left,14.0,left,1.0,1.326900001,2.0,flower3.jpg,flower3_pair.jpg,left,A3G8XCOSTGW1CZ_2022-11-24_10h24.32.168.csv
129,7,3.0,flower3.jpg,,,,15.0,left,1.0,1.265,3.0,flower4.jpg,flower4_pair.jpg,left,A3G8XCOSTGW1CZ_2022-11-24_10h24.32.168.csv
130,8,4.0,flower4.jpg,,,,16.0,right,1.0,3.3941,4.0,flower5_pair.jpg,flower5.jpg,right,A3G8XCOSTGW1CZ_2022-11-24_10h24.32.168.csv
131,9,5.0,flower5.jpg,,,,17.0,left,1.0,2.296,5.0,flower6.jpg,flower6_pair.jpg,left,A3G8XCOSTGW1CZ_2022-11-24_10h24.32.168.csv
132,10,6.0,flower6.jpg,,,,,,,,,,,,A3G8XCOSTGW1CZ_2022-11-24_10h24.32.168.csv
133,4,0.0,flower1.jpg,,,,12.0,right,0.0,10.0146,0.0,flower1.jpg,flower1_pair.jpg,left,AW4N0JPYAS2I2_2022-11-24_10h24.16.166.csv
134,5,1.0,flower2.jpg,,,,13.0,right,1.0,0.9536,1.0,flower2_pair.jpg,flower2.jpg,right,AW4N0JPYAS2I2_2022-11-24_10h24.16.166.csv
135,6,2.0,left.jpg,left,1.2826,left,14.0,right,0.0,0.5487,2.0,flower3.jpg,flower3_pair.jpg,left,AW4N0JPYAS2I2_2022-11-24_10h24.16.166.csv
136,7,3.0,flower3.jpg,,,,15.0,right,0.0,0.4828,3.0,flower4.jpg,flower4_pair.jpg,left,AW4N0JPYAS2I2_2022-11-24_10h24.16.166.csv
137,8,4.0,flower4.jpg,,,,16.0,right,1.0,0.5511,4.0,flower5_pair.jpg,flower5.jpg,right,AW4N0JPYAS2I2_2022-11-24_10h24.16.166.csv
138,9,5.0,flower5.jpg,,,,17.0,right,0.0,0.9717,5.0,flower6.jpg,flower6_pair.jpg,left,AW4N0JPYAS2I2_2022-11-24_10h24.16.166.csv
139,10,6.0,flower6.jpg,,,,,,,,,,,,AW4N0JPYAS2I2_2022-11-24_10h24.16.166.csv
140,4,0.0,flower1.jpg,,,,12.0,left,1.0,3.071,0.0,flower1.jpg,flower1_pair.jpg,left,A37B4IKMX7A74O_2022-11-24_12h36.25.029.csv
141,5,1.0,flower2.jpg,,,,13.0,left,0.0,0.2,1.0,flower2_pair.jpg,flower2.jpg,right,A37B4IKMX7A74O_2022-11-24_12h36.25.029.csv
142,6,2.0,left.jpg,left,1.889,left,14.0,right,0.0,2.81,2.0,flower3.jpg,flower3_pair.jpg,left,A37B4IKMX7A74O_2022-11-24_12h36.25.029.csv
143,7,3.0,flower3.jpg,,,,15.0,left,1.0,2.845,3.0,flower4.jpg,flower4_pair.jpg,left,A37B4IKMX7A74O_2022-11-24_12h36.25.029.csv
144,8,4.0,flower4.jpg,,,,16.0,right,1.0,2.404,4.0,flower5_pair.jpg,flower5.jpg,right,A37B4IKMX7A74O_2022-11-24_12h36.25.029.csv
145,9,5.0,flower5.jpg,,,,17.0,left,1.0,1.646,5.0,flower6.jpg,flower6_pair.jpg,left,A37B4IKMX7A74O_2022-11-24_12h36.25.029.csv
146,10,6.0,flower6.jpg,,,,,,,,,,,,A37B4IKMX7A74O_2022-11-24_12h36.25.029.csv
147,4,0.0,flower1.jpg,,,,12.0,right,0.0,3.61,0.0,flower1.jpg,flower1_pair.jpg,left,A2PAWE1NW4MD8L_2022-11-24_10h54.24.205.csv
148,5,1.0,flower2.jpg,,,,13.0,left,0.0,0.004,1.0,flower2_pair.jpg,flower2.jpg,right,A2PAWE1NW4MD8L_2022-11-24_10h54.24.205.csv
149,6,2.0,left.jpg,left,2.075,left,14.0,left,1.0,0.004,2.0,flower3.jpg,flower3_pair.jpg,left,A2PAWE1NW4MD8L_2022-11-24_10h54.24.205.csv
150,7,3.0,flower3.jpg,,,,15.0,right,0.0,0.005,3.0,flower4.jpg,flower4_pair.jpg,left,A2PAWE1NW4MD8L_2022-11-24_10h54.24.205.csv
151,8,4.0,flower4.jpg,,,,16.0,right,1.0,0.006,4.0,flower5_pair.jpg,flower5.jpg,right,A2PAWE1NW4MD8L_2022-11-24_10h54.24.205.csv
152,9,5.0,flower5.jpg,,,,17.0,right,0.0,0.005,5.0,flower6.jpg,flower6_pair.jpg,left,A2PAWE1NW4MD8L_2022-11-24_10h54.24.205.csv
153,10,6.0,flower6.jpg,,,,,,,,,,,,A2PAWE1NW4MD8L_2022-11-24_10h54.24.205.csv
154,4,0.0,flower1.jpg,,,,12.0,right,0.0,3.287,0.0,flower1.jpg,flower1_pair.jpg,left,AJ0IUCJ9UKE25_2022-11-24_10h25.15.636.csv
155,5,1.0,flower2.jpg,,,,13.0,right,1.0,1.403,1.0,flower2_pair.jpg,flower2.jpg,right,AJ0IUCJ9UKE25_2022-11-24_10h25.15.636.csv
156,6,2.0,left.jpg,left,1.187,left,14.0,left,1.0,1.292,2.0,flower3.jpg,flower3_pair.jpg,left,AJ0IUCJ9UKE25_2022-11-24_10h25.15.636.csv
157,7,3.0,flower3.jpg,,,,15.0,right,0.0,1.299,3.0,flower4.jpg,flower4_pair.jpg,left,AJ0IUCJ9UKE25_2022-11-24_10h25.15.636.csv
158,8,4.0,flower4.jpg,,,,16.0,left,0.0,3.087,4.0,flower5_pair.jpg,flower5.jpg,right,AJ0IUCJ9UKE25_2022-11-24_10h25.15.636.csv
159,9,5.0,flower5.jpg,,,,17.0,left,1.0,1.632,5.0,flower6.jpg,flower6_pair.jpg,left,AJ0IUCJ9UKE25_2022-11-24_10h25.15.636.csv
160,10,6.0,flower6.jpg,,,,,,,,,,,,AJ0IUCJ9UKE25_2022-11-24_10h25.15.636.csv
161,4,0.0,flower1.jpg,,,,12.0,right,0.0,2.765799999,0.0,flower1.jpg,flower1_pair.jpg,left,AP60DZINXAPCI_2022-11-24_10h33.42.346.csv
162,5,1.0,flower2.jpg,,,,13.0,left,0.0,1.946300001,1.0,flower2_pair.jpg,flower2.jpg,right,AP60DZINXAPCI_2022-11-24_10h33.42.346.csv
163,6,2.0,left.jpg,left,1.432200001,left,14.0,left,1.0,1.540200001,2.0,flower3.jpg,flower3_pair.jpg,left,AP60DZINXAPCI_2022-11-24_10h33.42.346.csv
164,7,3.0,flower3.jpg,,,,15.0,right,0.0,2.9784,3.0,flower4.jpg,flower4_pair.jpg,left,AP60DZINXAPCI_2022-11-24_10h33.42.346.csv
165,8,4.0,flower4.jpg,,,,16.0,right,1.0,2.4615,4.0,flower5_pair.jpg,flower5.jpg,right,AP60DZINXAPCI_2022-11-24_10h33.42.346.csv
166,9,5.0,flower5.jpg,,,,17.0,left,1.0,2.46,5.0,flower6.jpg,flower6_pair.jpg,left,AP60DZINXAPCI_2022-11-24_10h33.42.346.csv
167,10,6.0,flower6.jpg,,,,,,,,,,,,AP60DZINXAPCI_2022-11-24_10h33.42.346.csv
168,4,0.0,flower1.jpg,,,,12.0,left,1.0,9.2996,0.0,flower1.jpg,flower1_pair.jpg,left,AV3SDPGK4SMIM_2022-11-24_10h23.57.118.csv
169,5,1.0,flower2.jpg,,,,13.0,right,1.0,2.8415,1.0,flower2_pair.jpg,flower2.jpg,right,AV3SDPGK4SMIM_2022-11-24_10h23.57.118.csv
170,6,2.0,left.jpg,left,0.4585,left,14.0,left,1.0,3.1099,2.0,flower3.jpg,flower3_pair.jpg,left,AV3SDPGK4SMIM_2022-11-24_10h23.57.118.csv
171,7,3.0,flower3.jpg,,,,15.0,left,1.0,4.1451,3.0,flower4.jpg,flower4_pair.jpg,left,AV3SDPGK4SMIM_2022-11-24_10h23.57.118.csv
172,8,4.0,flower4.jpg,,,,16.0,right,1.0,3.0803,4.0,flower5_pair.jpg,flower5.jpg,right,AV3SDPGK4SMIM_2022-11-24_10h23.57.118.csv
173,9,5.0,flower5.jpg,,,,17.0,left,1.0,3.3788,5.0,flower6.jpg,flower6_pair.jpg,left,AV3SDPGK4SMIM_2022-11-24_10h23.57.118.csv
174,10,6.0,flower6.jpg,,,,,,,,,,,,AV3SDPGK4SMIM_2022-11-24_10h23.57.118.csv
175,4,0.0,flower1.jpg,,,,12.0,left,1.0,6.5748,0.0,flower1.jpg,flower1_pair.jpg,left,A1QG0HL1XSSGNU_2022-11-24_10h39.13.568.csv
176,5,1.0,flower2.jpg,,,,13.0,left,0.0,8.2465,1.0,flower2_pair.jpg,flower2.jpg,right,A1QG0HL1XSSGNU_2022-11-24_10h39.13.568.csv
177,6,2.0,left.jpg,left,1.1418,left,14.0,left,1.0,8.7226,2.0,flower3.jpg,flower3_pair.jpg,left,A1QG0HL1XSSGNU_2022-11-24_10h39.13.568.csv
178,7,3.0,flower3.jpg,,,,15.0,left,1.0,2.9676,3.0,flower4.jpg,flower4_pair.jpg,left,A1QG0HL1XSSGNU_2022-11-24_10h39.13.568.csv
179,8,4.0,flower4.jpg,,,,16.0,left,0.0,5.3271,4.0,flower5_pair.jpg,flower5.jpg,right,A1QG0HL1XSSGNU_2022-11-24_10h39.13.568.csv
180,9,5.0,flower5.jpg,,,,17.0,left,1.0,2.2469,5.0,flower6.jpg,flower6_pair.jpg,left,A1QG0HL1XSSGNU_2022-11-24_10h39.13.568.csv
181,10,6.0,flower6.jpg,,,,,,,,,,,,A1QG0HL1XSSGNU_2022-11-24_10h39.13.568.csv
182,4,0.0,flower1.jpg,,,,12.0,right,0.0,8.092,0.0,flower1.jpg,flower1_pair.jpg,left,AXSBX0MCQNG3A_2022-11-24_12h27.30.526.csv
183,5,1.0,flower2.jpg,,,,13.0,right,1.0,4.705,1.0,flower2_pair.jpg,flower2.jpg,right,AXSBX0MCQNG3A_2022-11-24_12h27.30.526.csv
184,6,2.0,left.jpg,left,2.002,left,14.0,left,1.0,2.544,2.0,flower3.jpg,flower3_pair.jpg,left,AXSBX0MCQNG3A_2022-11-24_12h27.30.526.csv
185,7,3.0,flower3.jpg,,,,15.0,left,1.0,2.065,3.0,flower4.jpg,flower4_pair.jpg,left,AXSBX0MCQNG3A_2022-11-24_12h27.30.526.csv
186,8,4.0,flower4.jpg,,,,16.0,right,1.0,1.868,4.0,flower5_pair.jpg,flower5.jpg,right,AXSBX0MCQNG3A_2022-11-24_12h27.30.526.csv
187,9,5.0,flower5.jpg,,,,17.0,left,1.0,2.173,5.0,flower6.jpg,flower6_pair.jpg,left,AXSBX0MCQNG3A_2022-11-24_12h27.30.526.csv
188,10,6.0,flower6.jpg,,,,,,,,,,,,AXSBX0MCQNG3A_2022-11-24_12h27.30.526.csv
189,4,0.0,flower1.jpg,,,,12.0,right,0.0,1.7779,0.0,flower1.jpg,flower1_pair.jpg,left,A11BAIN13IGWCW_2022-11-24_10h26.55.296.csv
190,5,1.0,flower2.jpg,,,,13.0,left,0.0,2.2882,1.0,flower2_pair.jpg,flower2.jpg,right,A11BAIN13IGWCW_2022-11-24_10h26.55.296.csv
191,6,2.0,left.jpg,left,0.8399,left,14.0,left,1.0,2.0945,2.0,flower3.jpg,flower3_pair.jpg,left,A11BAIN13IGWCW_2022-11-24_10h26.55.296.csv
192,7,3.0,flower3.jpg,,,,15.0,left,1.0,1.4159,3.0,flower4.jpg,flower4_pair.jpg,left,A11BAIN13IGWCW_2022-11-24_10h26.55.296.csv
193,8,4.0,flower4.jpg,,,,16.0,left,0.0,1.4599,4.0,flower5_pair.jpg,flower5.jpg,right,A11BAIN13IGWCW_2022-11-24_10h26.55.296.csv
194,9,5.0,flower5.jpg,,,,17.0,right,0.0,1.2173,5.0,flower6.jpg,flower6_pair.jpg,left,A11BAIN13IGWCW_2022-11-24_10h26.55.296.csv
195,10,6.0,flower6.jpg,,,,,,,,,,,,A11BAIN13IGWCW_2022-11-24_10h26.55.296.csv
196,4,0.0,flower1.jpg,,,,12.0,right,0.0,3.0407,0.0,flower1.jpg,flower1_pair.jpg,left,A1Z6SEA95MEBTN_2022-11-24_10h31.13.744.csv
197,5,1.0,flower2.jpg,,,,13.0,left,0.0,1.1597,1.0,flower2_pair.jpg,flower2.jpg,right,A1Z6SEA95MEBTN_2022-11-24_10h31.13.744.csv
198,6,2.0,left.jpg,left,1.1246,left,14.0,right,0.0,1.3049,2.0,flower3.jpg,flower3_pair.jpg,left,A1Z6SEA95MEBTN_2022-11-24_10h31.13.744.csv
199,7,3.0,flower3.jpg,,,,15.0,left,1.0,1.4517,3.0,flower4.jpg,flower4_pair.jpg,left,A1Z6SEA95MEBTN_2022-11-24_10h31.13.744.csv
200,8,4.0,flower4.jpg,,,,16.0,left,0.0,1.4361,4.0,flower5_pair.jpg,flower5.jpg,right,A1Z6SEA95MEBTN_2022-11-24_10h31.13.744.csv
201,9,5.0,flower5.jpg,,,,17.0,left,1.0,1.3754,5.0,flower6.jpg,flower6_pair.jpg,left,A1Z6SEA95MEBTN_2022-11-24_10h31.13.744.csv
202,10,6.0,flower6.jpg,,,,,,,,,,,,A1Z6SEA95MEBTN_2022-11-24_10h31.13.744.csv
203,4,0.0,flower1.jpg,,,,12.0,left,1.0,2.225,0.0,flower1.jpg,flower1_pair.jpg,left,A33B85TN97HQ33_2022-11-24_09h19.45.486.csv
204,5,1.0,flower2.jpg,,,,13.0,left,0.0,2.443,1.0,flower2_pair.jpg,flower2.jpg,right,A33B85TN97HQ33_2022-11-24_09h19.45.486.csv
205,6,2.0,left.jpg,left,0.714,left,14.0,left,1.0,1.209,2.0,flower3.jpg,flower3_pair.jpg,left,A33B85TN97HQ33_2022-11-24_09h19.45.486.csv
206,7,3.0,flower3.jpg,,,,15.0,right,0.0,1.54,3.0,flower4.jpg,flower4_pair.jpg,left,A33B85TN97HQ33_2022-11-24_09h19.45.486.csv
207,8,4.0,flower4.jpg,,,,16.0,right,1.0,1.894,4.0,flower5_pair.jpg,flower5.jpg,right,A33B85TN97HQ33_2022-11-24_09h19.45.486.csv
208,9,5.0,flower5.jpg,,,,17.0,left,1.0,1.19,5.0,flower6.jpg,flower6_pair.jpg,left,A33B85TN97HQ33_2022-11-24_09h19.45.486.csv
209,10,6.0,flower6.jpg,,,,,,,,,,,,A33B85TN97HQ33_2022-11-24_09h19.45.486.csv
210,4,0.0,flower1.jpg,,,,12.0,right,0.0,21.4248,0.0,flower1.jpg,flower1_pair.jpg,left,A154UU4I2EW2L4_2022-11-24_10h45.11.624.csv
211,5,1.0,flower2.jpg,,,,13.0,left,0.0,0.7556,1.0,flower2_pair.jpg,flower2.jpg,right,A154UU4I2EW2L4_2022-11-24_10h45.11.624.csv
212,6,2.0,left.jpg,left,0.9899,left,14.0,right,0.0,0.6594,2.0,flower3.jpg,flower3_pair.jpg,left,A154UU4I2EW2L4_2022-11-24_10h45.11.624.csv
213,7,3.0,flower3.jpg,,,,15.0,left,1.0,0.1593,3.0,flower4.jpg,flower4_pair.jpg,left,A154UU4I2EW2L4_2022-11-24_10h45.11.624.csv
214,8,4.0,flower4.jpg,,,,16.0,right,1.0,0.1546,4.0,flower5_pair.jpg,flower5.jpg,right,A154UU4I2EW2L4_2022-11-24_10h45.11.624.csv
215,9,5.0,flower5.jpg,,,,17.0,left,1.0,0.1703,5.0,flower6.jpg,flower6_pair.jpg,left,A154UU4I2EW2L4_2022-11-24_10h45.11.624.csv
216,10,6.0,flower6.jpg,,,,,,,,,,,,A154UU4I2EW2L4_2022-11-24_10h45.11.624.csv
217,4,0.0,flower1.jpg,,,,12.0,left,1.0,2.705200001,0.0,flower1.jpg,flower1_pair.jpg,left,A141BEGMEHN31L_2022-11-24_10h59.53.074.csv
218,5,1.0,flower2.jpg,,,,13.0,left,0.0,2.6234,1.0,flower2_pair.jpg,flower2.jpg,right,A141BEGMEHN31L_2022-11-24_10h59.53.074.csv
219,6,2.0,left.jpg,left,1.209300001,left,14.0,right,0.0,2.8689,2.0,flower3.jpg,flower3_pair.jpg,left,A141BEGMEHN31L_2022-11-24_10h59.53.074.csv
220,7,3.0,flower3.jpg,,,,15.0,left,1.0,1.792699999,3.0,flower4.jpg,flower4_pair.jpg,left,A141BEGMEHN31L_2022-11-24_10h59.53.074.csv
221,8,4.0,flower4.jpg,,,,16.0,right,1.0,2.182099998,4.0,flower5_pair.jpg,flower5.jpg,right,A141BEGMEHN31L_2022-11-24_10h59.53.074.csv
222,9,5.0,flower5.jpg,,,,17.0,left,1.0,2.0521,5.0,flower6.jpg,flower6_pair.jpg,left,A141BEGMEHN31L_2022-11-24_10h59.53.074.csv
223,10,6.0,flower6.jpg,,,,,,,,,,,,A141BEGMEHN31L_2022-11-24_10h59.53.074.csv
224,4,0.0,flower1.jpg,,,,12.0,left,1.0,4.719,0.0,flower1.jpg,flower1_pair.jpg,left,A36NPTH2FLH2PA_2022-11-24_10h41.51.729.csv
225,5,1.0,flower2.jpg,,,,13.0,left,0.0,3.388,1.0,flower2_pair.jpg,flower2.jpg,right,A36NPTH2FLH2PA_2022-11-24_10h41.51.729.csv
226,6,2.0,left.jpg,left,1.192,left,14.0,left,1.0,3.274,2.0,flower3.jpg,flower3_pair.jpg,left,A36NPTH2FLH2PA_2022-11-24_10h41.51.729.csv
227,7,3.0,flower3.jpg,,,,15.0,right,0.0,4.954,3.0,flower4.jpg,flower4_pair.jpg,left,A36NPTH2FLH2PA_2022-11-24_10h41.51.729.csv
228,8,4.0,flower4.jpg,,,,16.0,left,0.0,2.845,4.0,flower5_pair.jpg,flower5.jpg,right,A36NPTH2FLH2PA_2022-11-24_10h41.51.729.csv
229,9,5.0,flower5.jpg,,,,17.0,left,1.0,1.778,5.0,flower6.jpg,flower6_pair.jpg,left,A36NPTH2FLH2PA_2022-11-24_10h41.51.729.csv
230,10,6.0,flower6.jpg,,,,,,,,,,,,A36NPTH2FLH2PA_2022-11-24_10h41.51.729.csv
231,4,0.0,flower1.jpg,,,,12.0,left,1.0,3.6403,0.0,flower1.jpg,flower1_pair.jpg,left,A3OZPR0C0LSSZ0_2022-11-24_10h49.32.920.csv
232,5,1.0,flower2.jpg,,,,13.0,left,0.0,2.0571,1.0,flower2_pair.jpg,flower2.jpg,right,A3OZPR0C0LSSZ0_2022-11-24_10h49.32.920.csv
233,6,2.0,left.jpg,left,1.4752,left,14.0,left,1.0,2.0206,2.0,flower3.jpg,flower3_pair.jpg,left,A3OZPR0C0LSSZ0_2022-11-24_10h49.32.920.csv
234,7,3.0,flower3.jpg,,,,15.0,right,0.0,1.7316,3.0,flower4.jpg,flower4_pair.jpg,left,A3OZPR0C0LSSZ0_2022-11-24_10h49.32.920.csv
235,8,4.0,flower4.jpg,,,,16.0,left,0.0,1.6424,4.0,flower5_pair.jpg,flower5.jpg,right,A3OZPR0C0LSSZ0_2022-11-24_10h49.32.920.csv
236,9,5.0,flower5.jpg,,,,17.0,left,1.0,1.4622,5.0,flower6.jpg,flower6_pair.jpg,left,A3OZPR0C0LSSZ0_2022-11-24_10h49.32.920.csv
237,10,6.0,flower6.jpg,,,,,,,,,,,,A3OZPR0C0LSSZ0_2022-11-24_10h49.32.920.csv
238,4,0.0,flower1.jpg,,,,12.0,right,0.0,2.2201,0.0,flower1.jpg,flower1_pair.jpg,left,AV4WEZ2W0KSAJ_2022-11-24_08h21.40.377.csv
239,5,1.0,flower2.jpg,,,,13.0,left,0.0,2.2579,1.0,flower2_pair.jpg,flower2.jpg,right,AV4WEZ2W0KSAJ_2022-11-24_08h21.40.377.csv
240,6,2.0,left.jpg,left,2.3368,left,14.0,left,1.0,1.8202,2.0,flower3.jpg,flower3_pair.jpg,left,AV4WEZ2W0KSAJ_2022-11-24_08h21.40.377.csv
241,7,3.0,flower3.jpg,,,,15.0,right,0.0,2.1315,3.0,flower4.jpg,flower4_pair.jpg,left,AV4WEZ2W0KSAJ_2022-11-24_08h21.40.377.csv
242,8,4.0,flower4.jpg,,,,16.0,right,1.0,2.2258,4.0,flower5_pair.jpg,flower5.jpg,right,AV4WEZ2W0KSAJ_2022-11-24_08h21.40.377.csv
243,9,5.0,flower5.jpg,,,,17.0,left,1.0,2.1104,5.0,flower6.jpg,flower6_pair.jpg,left,AV4WEZ2W0KSAJ_2022-11-24_08h21.40.377.csv
244,10,6.0,flower6.jpg,,,,,,,,,,,,AV4WEZ2W0KSAJ_2022-11-24_08h21.40.377.csv
245,4,0.0,flower1.jpg,,,,12.0,left,1.0,5.932,0.0,flower1.jpg,flower1_pair.jpg,left,A21UA6O7ZFAIQJ_2022-11-24_10h19.49.079.csv
246,5,1.0,flower2.jpg,,,,13.0,right,1.0,1.413,1.0,flower2_pair.jpg,flower2.jpg,right,A21UA6O7ZFAIQJ_2022-11-24_10h19.49.079.csv
247,6,2.0,left.jpg,left,0.906,left,14.0,left,1.0,1.529,2.0,flower3.jpg,flower3_pair.jpg,left,A21UA6O7ZFAIQJ_2022-11-24_10h19.49.079.csv
248,7,3.0,flower3.jpg,,,,15.0,right,0.0,1.629,3.0,flower4.jpg,flower4_pair.jpg,left,A21UA6O7ZFAIQJ_2022-11-24_10h19.49.079.csv
249,8,4.0,flower4.jpg,,,,16.0,left,0.0,2.346,4.0,flower5_pair.jpg,flower5.jpg,right,A21UA6O7ZFAIQJ_2022-11-24_10h19.49.079.csv
250,9,5.0,flower5.jpg,,,,17.0,left,1.0,1.207,5.0,flower6.jpg,flower6_pair.jpg,left,A21UA6O7ZFAIQJ_2022-11-24_10h19.49.079.csv
251,10,6.0,flower6.jpg,,,,,,,,,,,,A21UA6O7ZFAIQJ_2022-11-24_10h19.49.079.csv
252,4,0.0,flower1.jpg,,,,12.0,right,0.0,1.045,0.0,flower1.jpg,flower1_pair.jpg,left,A96TDNBSXG3NJ_2022-11-24_11h09.25.909.csv
253,5,1.0,flower2.jpg,,,,13.0,left,0.0,1.2239,1.0,flower2_pair.jpg,flower2.jpg,right,A96TDNBSXG3NJ_2022-11-24_11h09.25.909.csv
254,6,2.0,left.jpg,left,0.8493,left,14.0,right,0.0,1.4501,2.0,flower3.jpg,flower3_pair.jpg,left,A96TDNBSXG3NJ_2022-11-24_11h09.25.909.csv
255,7,3.0,flower3.jpg,,,,15.0,left,1.0,1.6823,3.0,flower4.jpg,flower4_pair.jpg,left,A96TDNBSXG3NJ_2022-11-24_11h09.25.909.csv
256,8,4.0,flower4.jpg,,,,16.0,left,0.0,1.4597,4.0,flower5_pair.jpg,flower5.jpg,right,A96TDNBSXG3NJ_2022-11-24_11h09.25.909.csv
257,9,5.0,flower5.jpg,,,,17.0,left,1.0,1.6133,5.0,flower6.jpg,flower6_pair.jpg,left,A96TDNBSXG3NJ_2022-11-24_11h09.25.909.csv
258,10,6.0,flower6.jpg,,,,,,,,,,,,A96TDNBSXG3NJ_2022-11-24_11h09.25.909.csv
259,4,0.0,flower1.jpg,,,,12.0,right,0.0,3.232,0.0,flower1.jpg,flower1_pair.jpg,left,A1VLH6ZN45VELT_2022-11-24_10h29.37.462.csv
260,5,1.0,flower2.jpg,,,,13.0,left,0.0,3.522,1.0,flower2_pair.jpg,flower2.jpg,right,A1VLH6ZN45VELT_2022-11-24_10h29.37.462.csv
261,6,2.0,left.jpg,left,1.927,left,14.0,left,1.0,2.128,2.0,flower3.jpg,flower3_pair.jpg,left,A1VLH6ZN45VELT_2022-11-24_10h29.37.462.csv
262,7,3.0,flower3.jpg,,,,15.0,left,1.0,1.601,3.0,flower4.jpg,flower4_pair.jpg,left,A1VLH6ZN45VELT_2022-11-24_10h29.37.462.csv
263,8,4.0,flower4.jpg,,,,16.0,right,1.0,1.759,4.0,flower5_pair.jpg,flower5.jpg,right,A1VLH6ZN45VELT_2022-11-24_10h29.37.462.csv
264,9,5.0,flower5.jpg,,,,17.0,left,1.0,2.037,5.0,flower6.jpg,flower6_pair.jpg,left,A1VLH6ZN45VELT_2022-11-24_10h29.37.462.csv
265,10,6.0,flower6.jpg,,,,,,,,,,,,A1VLH6ZN45VELT_2022-11-24_10h29.37.462.csv
266,4,0.0,flower1.jpg,,,,12.0,left,1.0,1.4358,0.0,flower1.jpg,flower1_pair.jpg,left,A6ZLFXYDXQAKE_2022-11-24_10h23.49.881.csv
267,5,1.0,flower2.jpg,,,,13.0,right,1.0,2.0451,1.0,flower2_pair.jpg,flower2.jpg,right,A6ZLFXYDXQAKE_2022-11-24_10h23.49.881.csv
268,6,2.0,left.jpg,left,0.7412,left,14.0,left,1.0,1.2187,2.0,flower3.jpg,flower3_pair.jpg,left,A6ZLFXYDXQAKE_2022-11-24_10h23.49.881.csv
269,7,3.0,flower3.jpg,,,,15.0,left,1.0,1.2368,3.0,flower4.jpg,flower4_pair.jpg,left,A6ZLFXYDXQAKE_2022-11-24_10h23.49.881.csv
270,8,4.0,flower4.jpg,,,,16.0,left,0.0,1.625,4.0,flower5_pair.jpg,flower5.jpg,right,A6ZLFXYDXQAKE_2022-11-24_10h23.49.881.csv
271,9,5.0,flower5.jpg,,,,17.0,left,1.0,1.183,5.0,flower6.jpg,flower6_pair.jpg,left,A6ZLFXYDXQAKE_2022-11-24_10h23.49.881.csv
272,10,6.0,flower6.jpg,,,,,,,,,,,,A6ZLFXYDXQAKE_2022-11-24_10h23.49.881.csv
273,4,0.0,flower1.jpg,,,,12.0,right,0.0,2.901,0.0,flower1.jpg,flower1_pair.jpg,left,ABICECSTT3MWF_2022-11-24_09h28.01.179.csv
274,5,1.0,flower2.jpg,,,,13.0,left,0.0,2.824,1.0,flower2_pair.jpg,flower2.jpg,right,ABICECSTT3MWF_2022-11-24_09h28.01.179.csv
275,6,2.0,left.jpg,left,1.946,left,14.0,left,1.0,2.004,2.0,flower3.jpg,flower3_pair.jpg,left,ABICECSTT3MWF_2022-11-24_09h28.01.179.csv
276,7,3.0,flower3.jpg,,,,15.0,left,1.0,2.013,3.0,flower4.jpg,flower4_pair.jpg,left,ABICECSTT3MWF_2022-11-24_09h28.01.179.csv
277,8,4.0,flower4.jpg,,,,16.0,right,1.0,2.19,4.0,flower5_pair.jpg,flower5.jpg,right,ABICECSTT3MWF_2022-11-24_09h28.01.179.csv
278,9,5.0,flower5.jpg,,,,17.0,left,1.0,2.143,5.0,flower6.jpg,flower6_pair.jpg,left,ABICECSTT3MWF_2022-11-24_09h28.01.179.csv
279,10,6.0,flower6.jpg,,,,,,,,,,,,ABICECSTT3MWF_2022-11-24_09h28.01.179.csv
280,4,0.0,flower1.jpg,,,,12.0,left,1.0,3.546,0.0,flower1.jpg,flower1_pair.jpg,left,AQKRSW854ATWI_2022-11-24_10h44.12.237.csv
281,5,1.0,flower2.jpg,,,,13.0,left,0.0,6.166,1.0,flower2_pair.jpg,flower2.jpg,right,AQKRSW854ATWI_2022-11-24_10h44.12.237.csv
282,6,2.0,left.jpg,left,1.531,left,14.0,left,1.0,6.984,2.0,flower3.jpg,flower3_pair.jpg,left,AQKRSW854ATWI_2022-11-24_10h44.12.237.csv
283,7,3.0,flower3.jpg,,,,15.0,right,0.0,3.267,3.0,flower4.jpg,flower4_pair.jpg,left,AQKRSW854ATWI_2022-11-24_10h44.12.237.csv
284,8,4.0,flower4.jpg,,,,16.0,left,0.0,2.549,4.0,flower5_pair.jpg,flower5.jpg,right,AQKRSW854ATWI_2022-11-24_10h44.12.237.csv
285,9,5.0,flower5.jpg,,,,17.0,right,0.0,1.767,5.0,flower6.jpg,flower6_pair.jpg,left,AQKRSW854ATWI_2022-11-24_10h44.12.237.csv
286,10,6.0,flower6.jpg,,,,,,,,,,,,AQKRSW854ATWI_2022-11-24_10h44.12.237.csv
287,4,0.0,flower1.jpg,,,,12.0,left,1.0,2.793900001,0.0,flower1.jpg,flower1_pair.jpg,left,A1WVN6S68Y1M45_2022-11-24_10h22.12.070.csv
288,5,1.0,flower2.jpg,,,,13.0,left,0.0,1.796200001,1.0,flower2_pair.jpg,flower2.jpg,right,A1WVN6S68Y1M45_2022-11-24_10h22.12.070.csv
289,6,2.0,left.jpg,left,1.1154,left,14.0,left,1.0,1.4107,2.0,flower3.jpg,flower3_pair.jpg,left,A1WVN6S68Y1M45_2022-11-24_10h22.12.070.csv
290,7,3.0,flower3.jpg,,,,15.0,right,0.0,1.303,3.0,flower4.jpg,flower4_pair.jpg,left,A1WVN6S68Y1M45_2022-11-24_10h22.12.070.csv
291,8,4.0,flower4.jpg,,,,16.0,right,1.0,1.872,4.0,flower5_pair.jpg,flower5.jpg,right,A1WVN6S68Y1M45_2022-11-24_10h22.12.070.csv
292,9,5.0,flower5.jpg,,,,17.0,left,1.0,1.3003,5.0,flower6.jpg,flower6_pair.jpg,left,A1WVN6S68Y1M45_2022-11-24_10h22.12.070.csv
293,10,6.0,flower6.jpg,,,,,,,,,,,,A1WVN6S68Y1M45_2022-11-24_10h22.12.070.csv
294,4,0.0,flower1.jpg,,,,12.0,left,1.0,2.878,0.0,flower1.jpg,flower1_pair.jpg,left,A32BQNJMLMZYG0_2022-11-24_10h11.43.089.csv
295,5,1.0,flower2.jpg,,,,13.0,left,0.0,2.485,1.0,flower2_pair.jpg,flower2.jpg,right,A32BQNJMLMZYG0_2022-11-24_10h11.43.089.csv
296,6,2.0,left.jpg,left,2.11,left,14.0,left,1.0,1.94,2.0,flower3.jpg,flower3_pair.jpg,left,A32BQNJMLMZYG0_2022-11-24_10h11.43.089.csv
297,7,3.0,flower3.jpg,,,,15.0,left,1.0,2.671,3.0,flower4.jpg,flower4_pair.jpg,left,A32BQNJMLMZYG0_2022-11-24_10h11.43.089.csv
298,8,4.0,flower4.jpg,,,,16.0,right,1.0,1.63,4.0,flower5_pair.jpg,flower5.jpg,right,A32BQNJMLMZYG0_2022-11-24_10h11.43.089.csv
299,9,5.0,flower5.jpg,,,,17.0,left,1.0,1.928,5.0,flower6.jpg,flower6_pair.jpg,left,A32BQNJMLMZYG0_2022-11-24_10h11.43.089.csv
300,10,6.0,flower6.jpg,,,,,,,,,,,,A32BQNJMLMZYG0_2022-11-24_10h11.43.089.csv
301,4,0.0,flower1.jpg,,,,12.0,left,1.0,3.7255,0.0,flower1.jpg,flower1_pair.jpg,left,A1IBY7KXFHJ2U2_2022-11-24_10h24.50.120.csv
302,5,1.0,flower2.jpg,,,,13.0,right,1.0,2.0966,1.0,flower2_pair.jpg,flower2.jpg,right,A1IBY7KXFHJ2U2_2022-11-24_10h24.50.120.csv
303,6,2.0,left.jpg,left,1.0193,left,14.0,left,1.0,2.0867,2.0,flower3.jpg,flower3_pair.jpg,left,A1IBY7KXFHJ2U2_2022-11-24_10h24.50.120.csv
304,7,3.0,flower3.jpg,,,,15.0,right,0.0,1.5796,3.0,flower4.jpg,flower4_pair.jpg,left,A1IBY7KXFHJ2U2_2022-11-24_10h24.50.120.csv
305,8,4.0,flower4.jpg,,,,16.0,right,1.0,1.5164,4.0,flower5_pair.jpg,flower5.jpg,right,A1IBY7KXFHJ2U2_2022-11-24_10h24.50.120.csv
306,9,5.0,flower5.jpg,,,,17.0,left,1.0,1.8323,5.0,flower6.jpg,flower6_pair.jpg,left,A1IBY7KXFHJ2U2_2022-11-24_10h24.50.120.csv
307,10,6.0,flower6.jpg,,,,,,,,,,,,A1IBY7KXFHJ2U2_2022-11-24_10h24.50.120.csv
308,4,0.0,flower1.jpg,,,,12.0,left,1.0,67.674,0.0,flower1.jpg,flower1_pair.jpg,left,A2CI4FF8RLXX8X_2022-11-24_11h09.42.678.csv
309,5,1.0,flower2.jpg,,,,13.0,right,1.0,0.007,1.0,flower2_pair.jpg,flower2.jpg,right,A2CI4FF8RLXX8X_2022-11-24_11h09.42.678.csv
310,6,2.0,left.jpg,left,2.085,left,14.0,left,1.0,0.525,2.0,flower3.jpg,flower3_pair.jpg,left,A2CI4FF8RLXX8X_2022-11-24_11h09.42.678.csv
311,7,3.0,flower3.jpg,,,,15.0,left,1.0,0.181,3.0,flower4.jpg,flower4_pair.jpg,left,A2CI4FF8RLXX8X_2022-11-24_11h09.42.678.csv
312,8,4.0,flower4.jpg,,,,16.0,left,0.0,0.266,4.0,flower5_pair.jpg,flower5.jpg,right,A2CI4FF8RLXX8X_2022-11-24_11h09.42.678.csv
313,9,5.0,flower5.jpg,,,,17.0,right,0.0,0.182,5.0,flower6.jpg,flower6_pair.jpg,left,A2CI4FF8RLXX8X_2022-11-24_11h09.42.678.csv
314,10,6.0,flower6.jpg,,,,,,,,,,,,A2CI4FF8RLXX8X_2022-11-24_11h09.42.678.csv
315,4,0.0,flower1.jpg,,,,12.0,left,1.0,2.4402,0.0,flower1.jpg,flower1_pair.jpg,left,A3AHPM404QJS3B_2022-11-24_10h18.38.410.csv
316,5,1.0,flower2.jpg,,,,13.0,right,1.0,1.9699,1.0,flower2_pair.jpg,flower2.jpg,right,A3AHPM404QJS3B_2022-11-24_10h18.38.410.csv
317,6,2.0,left.jpg,left,1.1877,left,14.0,left,1.0,2.2462,2.0,flower3.jpg,flower3_pair.jpg,left,A3AHPM404QJS3B_2022-11-24_10h18.38.410.csv
318,7,3.0,flower3.jpg,,,,15.0,left,1.0,2.4609,3.0,flower4.jpg,flower4_pair.jpg,left,A3AHPM404QJS3B_2022-11-24_10h18.38.410.csv
319,8,4.0,flower4.jpg,,,,16.0,right,1.0,2.3119,4.0,flower5_pair.jpg,flower5.jpg,right,A3AHPM404QJS3B_2022-11-24_10h18.38.410.csv
320,9,5.0,flower5.jpg,,,,17.0,right,0.0,2.5964,5.0,flower6.jpg,flower6_pair.jpg,left,A3AHPM404QJS3B_2022-11-24_10h18.38.410.csv
321,10,6.0,flower6.jpg,,,,,,,,,,,,A3AHPM404QJS3B_2022-11-24_10h18.38.410.csv
322,4,0.0,flower1.jpg,,,,12.0,right,0.0,7.4399,0.0,flower1.jpg,flower1_pair.jpg,left,A38OKN8QAGRENA_2022-11-24_10h29.38.558.csv
323,5,1.0,flower2.jpg,,,,13.0,right,1.0,15.3872,1.0,flower2_pair.jpg,flower2.jpg,right,A38OKN8QAGRENA_2022-11-24_10h29.38.558.csv
324,6,2.0,left.jpg,left,1.7693,left,14.0,right,0.0,1.8648,2.0,flower3.jpg,flower3_pair.jpg,left,A38OKN8QAGRENA_2022-11-24_10h29.38.558.csv
325,7,3.0,flower3.jpg,,,,15.0,right,0.0,1.0686,3.0,flower4.jpg,flower4_pair.jpg,left,A38OKN8QAGRENA_2022-11-24_10h29.38.558.csv
326,8,4.0,flower4.jpg,,,,16.0,right,1.0,1.5474,4.0,flower5_pair.jpg,flower5.jpg,right,A38OKN8QAGRENA_2022-11-24_10h29.38.558.csv
327,9,5.0,flower5.jpg,,,,17.0,right,0.0,0.8705,5.0,flower6.jpg,flower6_pair.jpg,left,A38OKN8QAGRENA_2022-11-24_10h29.38.558.csv
328,10,6.0,flower6.jpg,,,,,,,,,,,,A38OKN8QAGRENA_2022-11-24_10h29.38.558.csv
329,4,0.0,flower1.jpg,,,,12.0,left,1.0,10.7724,0.0,flower1.jpg,flower1_pair.jpg,left,A2LI1OIR4BVJRW_2022-11-24_10h57.37.230.csv
330,5,1.0,flower2.jpg,,,,13.0,right,1.0,2.7724,1.0,flower2_pair.jpg,flower2.jpg,right,A2LI1OIR4BVJRW_2022-11-24_10h57.37.230.csv
331,6,2.0,left.jpg,left,1.535,left,14.0,left,1.0,3.6982,2.0,flower3.jpg,flower3_pair.jpg,left,A2LI1OIR4BVJRW_2022-11-24_10h57.37.230.csv
332,7,3.0,flower3.jpg,,,,15.0,left,1.0,4.1958,3.0,flower4.jpg,flower4_pair.jpg,left,A2LI1OIR4BVJRW_2022-11-24_10h57.37.230.csv
333,8,4.0,flower4.jpg,,,,16.0,right,1.0,4.2061,4.0,flower5_pair.jpg,flower5.jpg,right,A2LI1OIR4BVJRW_2022-11-24_10h57.37.230.csv
334,9,5.0,flower5.jpg,,,,17.0,left,1.0,1.8952,5.0,flower6.jpg,flower6_pair.jpg,left,A2LI1OIR4BVJRW_2022-11-24_10h57.37.230.csv
335,10,6.0,flower6.jpg,,,,,,,,,,,,A2LI1OIR4BVJRW_2022-11-24_10h57.37.230.csv
336,4,0.0,flower1.jpg,,,,12.0,left,1.0,3.4384,0.0,flower1.jpg,flower1_pair.jpg,left,AQTAO3905UV0V_2022-11-24_10h25.42.788.csv
337,5,1.0,flower2.jpg,,,,13.0,right,1.0,3.8657,1.0,flower2_pair.jpg,flower2.jpg,right,AQTAO3905UV0V_2022-11-24_10h25.42.788.csv
338,6,2.0,left.jpg,left,1.6852,left,14.0,left,1.0,2.2601,2.0,flower3.jpg,flower3_pair.jpg,left,AQTAO3905UV0V_2022-11-24_10h25.42.788.csv
339,7,3.0,flower3.jpg,,,,15.0,left,1.0,3.2422,3.0,flower4.jpg,flower4_pair.jpg,left,AQTAO3905UV0V_2022-11-24_10h25.42.788.csv
340,8,4.0,flower4.jpg,,,,16.0,right,1.0,2.4623,4.0,flower5_pair.jpg,flower5.jpg,right,AQTAO3905UV0V_2022-11-24_10h25.42.788.csv
341,9,5.0,flower5.jpg,,,,17.0,left,1.0,2.4453,5.0,flower6.jpg,flower6_pair.jpg,left,AQTAO3905UV0V_2022-11-24_10h25.42.788.csv
342,10,6.0,flower6.jpg,,,,,,,,,,,,AQTAO3905UV0V_2022-11-24_10h25.42.788.csv
343,4,0.0,flower1.jpg,,,,12.0,left,1.0,8.04,0.0,flower1.jpg,flower1_pair.jpg,left,A4H1T35G1RHI3_2022-11-24_12h33.18.785.csv
344,5,1.0,flower2.jpg,,,,13.0,left,0.0,6.084,1.0,flower2_pair.jpg,flower2.jpg,right,A4H1T35G1RHI3_2022-11-24_12h33.18.785.csv
345,6,2.0,left.jpg,left,1.261,left,14.0,left,1.0,3.008,2.0,flower3.jpg,flower3_pair.jpg,left,A4H1T35G1RHI3_2022-11-24_12h33.18.785.csv
346,7,3.0,flower3.jpg,,,,15.0,right,0.0,2.423,3.0,flower4.jpg,flower4_pair.jpg,left,A4H1T35G1RHI3_2022-11-24_12h33.18.785.csv
347,8,4.0,flower4.jpg,,,,16.0,left,0.0,6.468,4.0,flower5_pair.jpg,flower5.jpg,right,A4H1T35G1RHI3_2022-11-24_12h33.18.785.csv
348,9,5.0,flower5.jpg,,,,17.0,left,1.0,2.91,5.0,flower6.jpg,flower6_pair.jpg,left,A4H1T35G1RHI3_2022-11-24_12h33.18.785.csv
349,10,6.0,flower6.jpg,,,,,,,,,,,,A4H1T35G1RHI3_2022-11-24_12h33.18.785.csv
350,4,0.0,flower1.jpg,,,,12.0,left,1.0,1.335800001,0.0,flower1.jpg,flower1_pair.jpg,left,A142FFFX25RI2B_2022-11-24_10h45.40.930.csv
351,5,1.0,flower2.jpg,,,,13.0,right,1.0,1.6524,1.0,flower2_pair.jpg,flower2.jpg,right,A142FFFX25RI2B_2022-11-24_10h45.40.930.csv
352,6,2.0,left.jpg,left,0.803300001,left,14.0,left,1.0,1.252800001,2.0,flower3.jpg,flower3_pair.jpg,left,A142FFFX25RI2B_2022-11-24_10h45.40.930.csv
353,7,3.0,flower3.jpg,,,,15.0,left,1.0,1.6189,3.0,flower4.jpg,flower4_pair.jpg,left,A142FFFX25RI2B_2022-11-24_10h45.40.930.csv
354,8,4.0,flower4.jpg,,,,16.0,right,1.0,1.9385,4.0,flower5_pair.jpg,flower5.jpg,right,A142FFFX25RI2B_2022-11-24_10h45.40.930.csv
355,9,5.0,flower5.jpg,,,,17.0,right,0.0,1.6261,5.0,flower6.jpg,flower6_pair.jpg,left,A142FFFX25RI2B_2022-11-24_10h45.40.930.csv
356,10,6.0,flower6.jpg,,,,,,,,,,,,A142FFFX25RI2B_2022-11-24_10h45.40.930.csv
357,4,0.0,flower1.jpg,,,,12.0,left,1.0,29.1575,0.0,flower1.jpg,flower1_pair.jpg,left,A38PDC36OO9X5J_2022-11-24_10h31.41.535.csv
358,5,1.0,flower2.jpg,,,,13.0,left,0.0,1.9954,1.0,flower2_pair.jpg,flower2.jpg,right,A38PDC36OO9X5J_2022-11-24_10h31.41.535.csv
359,6,2.0,left.jpg,left,2.2104,left,14.0,left,1.0,0.795,2.0,flower3.jpg,flower3_pair.jpg,left,A38PDC36OO9X5J_2022-11-24_10h31.41.535.csv
360,7,3.0,flower3.jpg,,,,15.0,left,1.0,0.7899,3.0,flower4.jpg,flower4_pair.jpg,left,A38PDC36OO9X5J_2022-11-24_10h31.41.535.csv
361,8,4.0,flower4.jpg,,,,16.0,right,1.0,0.7854,4.0,flower5_pair.jpg,flower5.jpg,right,A38PDC36OO9X5J_2022-11-24_10h31.41.535.csv
362,9,5.0,flower5.jpg,,,,17.0,left,1.0,1.5301,5.0,flower6.jpg,flower6_pair.jpg,left,A38PDC36OO9X5J_2022-11-24_10h31.41.535.csv
363,10,6.0,flower6.jpg,,,,,,,,,,,,A38PDC36OO9X5J_2022-11-24_10h31.41.535.csv
364,4,0.0,flower1.jpg,,,,12.0,left,1.0,1.3602,0.0,flower1.jpg,flower1_pair.jpg,left,A2VZBQLSFZC519_2022-11-24_09h26.28.574.csv
365,5,1.0,flower2.jpg,,,,13.0,right,1.0,2.4018,1.0,flower2_pair.jpg,flower2.jpg,right,A2VZBQLSFZC519_2022-11-24_09h26.28.574.csv
366,6,2.0,left.jpg,left,0.6303,left,14.0,left,1.0,1.2754,2.0,flower3.jpg,flower3_pair.jpg,left,A2VZBQLSFZC519_2022-11-24_09h26.28.574.csv
367,7,3.0,flower3.jpg,,,,15.0,left,1.0,1.9237,3.0,flower4.jpg,flower4_pair.jpg,left,A2VZBQLSFZC519_2022-11-24_09h26.28.574.csv
368,8,4.0,flower4.jpg,,,,16.0,right,1.0,2.0788,4.0,flower5_pair.jpg,flower5.jpg,right,A2VZBQLSFZC519_2022-11-24_09h26.28.574.csv
369,9,5.0,flower5.jpg,,,,17.0,left,1.0,1.6086,5.0,flower6.jpg,flower6_pair.jpg,left,A2VZBQLSFZC519_2022-11-24_09h26.28.574.csv
370,10,6.0,flower6.jpg,,,,,,,,,,,,A2VZBQLSFZC519_2022-11-24_09h26.28.574.csv
371,4,0.0,flower1.jpg,,,,12.0,left,1.0,53.954,0.0,flower1.jpg,flower1_pair.jpg,left,A124AKGRZFQ8N9_2022-11-24_10h30.02.374.csv
372,5,1.0,flower2.jpg,,,,13.0,left,0.0,49.924,1.0,flower2_pair.jpg,flower2.jpg,right,A124AKGRZFQ8N9_2022-11-24_10h30.02.374.csv
373,6,2.0,left.jpg,left,2.21,left,14.0,left,1.0,14.813,2.0,flower3.jpg,flower3_pair.jpg,left,A124AKGRZFQ8N9_2022-11-24_10h30.02.374.csv
374,7,3.0,flower3.jpg,,,,15.0,left,1.0,42.851,3.0,flower4.jpg,flower4_pair.jpg,left,A124AKGRZFQ8N9_2022-11-24_10h30.02.374.csv
375,8,4.0,flower4.jpg,,,,16.0,left,0.0,11.651,4.0,flower5_pair.jpg,flower5.jpg,right,A124AKGRZFQ8N9_2022-11-24_10h30.02.374.csv
376,9,5.0,flower5.jpg,,,,17.0,left,1.0,7.224,5.0,flower6.jpg,flower6_pair.jpg,left,A124AKGRZFQ8N9_2022-11-24_10h30.02.374.csv
377,10,6.0,flower6.jpg,,,,,,,,,,,,A124AKGRZFQ8N9_2022-11-24_10h30.02.374.csv
378,4,0.0,flower1.jpg,,,,12.0,left,1.0,2.5232,0.0,flower1.jpg,flower1_pair.jpg,left,AKWAO862UBFU1_2022-11-24_10h34.51.871.csv
379,5,1.0,flower2.jpg,,,,13.0,right,1.0,1.6729,1.0,flower2_pair.jpg,flower2.jpg,right,AKWAO862UBFU1_2022-11-24_10h34.51.871.csv
380,6,2.0,left.jpg,left,0.7338,left,14.0,left,1.0,1.7715,2.0,flower3.jpg,flower3_pair.jpg,left,AKWAO862UBFU1_2022-11-24_10h34.51.871.csv
381,7,3.0,flower3.jpg,,,,15.0,left,1.0,1.589,3.0,flower4.jpg,flower4_pair.jpg,left,AKWAO862UBFU1_2022-11-24_10h34.51.871.csv
382,8,4.0,flower4.jpg,,,,16.0,right,1.0,1.9931,4.0,flower5_pair.jpg,flower5.jpg,right,AKWAO862UBFU1_2022-11-24_10h34.51.871.csv
383,9,5.0,flower5.jpg,,,,17.0,right,0.0,2.4329,5.0,flower6.jpg,flower6_pair.jpg,left,AKWAO862UBFU1_2022-11-24_10h34.51.871.csv
384,10,6.0,flower6.jpg,,,,,,,,,,,,AKWAO862UBFU1_2022-11-24_10h34.51.871.csv
385,4,0.0,flower1.jpg,,,,12.0,right,0.0,1.9073,0.0,flower1.jpg,flower1_pair.jpg,left,A1UTNAK70QH9JS_2022-11-24_10h44.08.238.csv
386,5,1.0,flower2.jpg,,,,13.0,right,1.0,1.833,1.0,flower2_pair.jpg,flower2.jpg,right,A1UTNAK70QH9JS_2022-11-24_10h44.08.238.csv
387,6,2.0,left.jpg,left,1.3003,left,14.0,left,1.0,2.7129,2.0,flower3.jpg,flower3_pair.jpg,left,A1UTNAK70QH9JS_2022-11-24_10h44.08.238.csv
388,7,3.0,flower3.jpg,,,,15.0,left,1.0,1.7908,3.0,flower4.jpg,flower4_pair.jpg,left,A1UTNAK70QH9JS_2022-11-24_10h44.08.238.csv
389,8,4.0,flower4.jpg,,,,16.0,left,0.0,4.584799999,4.0,flower5_pair.jpg,flower5.jpg,right,A1UTNAK70QH9JS_2022-11-24_10h44.08.238.csv
390,9,5.0,flower5.jpg,,,,17.0,left,1.0,4.6827,5.0,flower6.jpg,flower6_pair.jpg,left,A1UTNAK70QH9JS_2022-11-24_10h44.08.238.csv
391,10,6.0,flower6.jpg,,,,,,,,,,,,A1UTNAK70QH9JS_2022-11-24_10h44.08.238.csv
392,4,0.0,flower1.jpg,,,,12.0,right,0.0,3.659,0.0,flower1.jpg,flower1_pair.jpg,left,A9500TJQDB94E_2022-11-24_10h24.09.599.csv
393,5,1.0,flower2.jpg,,,,13.0,right,1.0,1.178,1.0,flower2_pair.jpg,flower2.jpg,right,A9500TJQDB94E_2022-11-24_10h24.09.599.csv
394,6,2.0,left.jpg,left,1.548,left,14.0,right,0.0,0.9,2.0,flower3.jpg,flower3_pair.jpg,left,A9500TJQDB94E_2022-11-24_10h24.09.599.csv
395,7,3.0,flower3.jpg,,,,15.0,left,1.0,0.004,3.0,flower4.jpg,flower4_pair.jpg,left,A9500TJQDB94E_2022-11-24_10h24.09.599.csv
396,8,4.0,flower4.jpg,,,,16.0,left,0.0,0.639,4.0,flower5_pair.jpg,flower5.jpg,right,A9500TJQDB94E_2022-11-24_10h24.09.599.csv
397,9,5.0,flower5.jpg,,,,17.0,right,0.0,0.003,5.0,flower6.jpg,flower6_pair.jpg,left,A9500TJQDB94E_2022-11-24_10h24.09.599.csv
398,10,6.0,flower6.jpg,,,,,,,,,,,,A9500TJQDB94E_2022-11-24_10h24.09.599.csv
399,4,0.0,flower1.jpg,,,,12.0,left,1.0,1.8997,0.0,flower1.jpg,flower1_pair.jpg,left,A1P6LFEAY9MWAY_2022-11-24_10h29.32.562.csv
400,5,1.0,flower2.jpg,,,,13.0,right,1.0,1.1259,1.0,flower2_pair.jpg,flower2.jpg,right,A1P6LFEAY9MWAY_2022-11-24_10h29.32.562.csv
401,6,2.0,left.jpg,left,0.6691,left,14.0,left,1.0,1.2073,2.0,flower3.jpg,flower3_pair.jpg,left,A1P6LFEAY9MWAY_2022-11-24_10h29.32.562.csv
402,7,3.0,flower3.jpg,,,,15.0,left,1.0,1.2359,3.0,flower4.jpg,flower4_pair.jpg,left,A1P6LFEAY9MWAY_2022-11-24_10h29.32.562.csv
403,8,4.0,flower4.jpg,,,,16.0,right,1.0,1.1122,4.0,flower5_pair.jpg,flower5.jpg,right,A1P6LFEAY9MWAY_2022-11-24_10h29.32.562.csv
404,9,5.0,flower5.jpg,,,,17.0,left,1.0,1.1139,5.0,flower6.jpg,flower6_pair.jpg,left,A1P6LFEAY9MWAY_2022-11-24_10h29.32.562.csv
405,10,6.0,flower6.jpg,,,,,,,,,,,,A1P6LFEAY9MWAY_2022-11-24_10h29.32.562.csv
406,4,0.0,flower1.jpg,,,,12.0,right,0.0,4.2105,0.0,flower1.jpg,flower1_pair.jpg,left,A3JMTHRS9M6NJO_2022-11-24_07h35.46.351.csv
407,5,1.0,flower2.jpg,,,,13.0,left,0.0,5.4663,1.0,flower2_pair.jpg,flower2.jpg,right,A3JMTHRS9M6NJO_2022-11-24_07h35.46.351.csv
408,6,2.0,left.jpg,left,1.3259,left,14.0,left,1.0,3.0252,2.0,flower3.jpg,flower3_pair.jpg,left,A3JMTHRS9M6NJO_2022-11-24_07h35.46.351.csv
409,7,3.0,flower3.jpg,,,,15.0,left,1.0,4.3861,3.0,flower4.jpg,flower4_pair.jpg,left,A3JMTHRS9M6NJO_2022-11-24_07h35.46.351.csv
410,8,4.0,flower4.jpg,,,,16.0,left,0.0,5.1711,4.0,flower5_pair.jpg,flower5.jpg,right,A3JMTHRS9M6NJO_2022-11-24_07h35.46.351.csv
411,9,5.0,flower5.jpg,,,,17.0,right,0.0,5.4881,5.0,flower6.jpg,flower6_pair.jpg,left,A3JMTHRS9M6NJO_2022-11-24_07h35.46.351.csv
412,10,6.0,flower6.jpg,,,,,,,,,,,,A3JMTHRS9M6NJO_2022-11-24_07h35.46.351.csv
413,4,0.0,flower1.jpg,,,,12.0,right,0.0,3.926,0.0,flower1.jpg,flower1_pair.jpg,left,A2R99OKTW7QVER_2022-11-24_07h28.00.243.csv
414,5,1.0,flower2.jpg,,,,13.0,right,1.0,2.92,1.0,flower2_pair.jpg,flower2.jpg,right,A2R99OKTW7QVER_2022-11-24_07h28.00.243.csv
415,6,2.0,left.jpg,left,1.418,left,14.0,left,1.0,2.49,2.0,flower3.jpg,flower3_pair.jpg,left,A2R99OKTW7QVER_2022-11-24_07h28.00.243.csv
416,7,3.0,flower3.jpg,,,,15.0,left,1.0,2.652,3.0,flower4.jpg,flower4_pair.jpg,left,A2R99OKTW7QVER_2022-11-24_07h28.00.243.csv
417,8,4.0,flower4.jpg,,,,16.0,right,1.0,2.104,4.0,flower5_pair.jpg,flower5.jpg,right,A2R99OKTW7QVER_2022-11-24_07h28.00.243.csv
418,9,5.0,flower5.jpg,,,,17.0,left,1.0,1.706,5.0,flower6.jpg,flower6_pair.jpg,left,A2R99OKTW7QVER_2022-11-24_07h28.00.243.csv
419,10,6.0,flower6.jpg,,,,,,,,,,,,A2R99OKTW7QVER_2022-11-24_07h28.00.243.csv
420,4,0.0,flower1.jpg,,,,12.0,right,0.0,6.6525,0.0,flower1.jpg,flower1_pair.jpg,left,A3N692NN9S43L9_2022-11-24_10h34.06.793.csv
421,5,1.0,flower2.jpg,,,,13.0,left,0.0,0.1131,1.0,flower2_pair.jpg,flower2.jpg,right,A3N692NN9S43L9_2022-11-24_10h34.06.793.csv
422,6,2.0,left.jpg,left,2.7075,left,14.0,right,0.0,2.0882,2.0,flower3.jpg,flower3_pair.jpg,left,A3N692NN9S43L9_2022-11-24_10h34.06.793.csv
423,7,3.0,flower3.jpg,,,,15.0,left,1.0,0.112,3.0,flower4.jpg,flower4_pair.jpg,left,A3N692NN9S43L9_2022-11-24_10h34.06.793.csv
424,8,4.0,flower4.jpg,,,,16.0,right,1.0,0.008799999,4.0,flower5_pair.jpg,flower5.jpg,right,A3N692NN9S43L9_2022-11-24_10h34.06.793.csv
425,9,5.0,flower5.jpg,,,,17.0,left,1.0,0.1279,5.0,flower6.jpg,flower6_pair.jpg,left,A3N692NN9S43L9_2022-11-24_10h34.06.793.csv
426,10,6.0,flower6.jpg,,,,,,,,,,,,A3N692NN9S43L9_2022-11-24_10h34.06.793.csv
