,layer,correct,test_test_response.keys,test_test_response.corr,test_test_response.rt,trials_2.thisRepN,trials_2.thisTrialN,trials_2.thisN,trials_2.thisIndex,trials_2.ran,image1,image2,subject
0,1.0,left,left,1.0,7.9062,0.0,0.0,0.0,0.0,1.0,2901941401-292798.jpg,2238577590-185467.jpg,A3H1A5PGLBBWR0_2022-11-24_10h22.56.476.csv
1,1.0,right,right,1.0,1.5389,0.0,1.0,1.0,1.0,1.0,2238544191-252422.jpg,2964216465-219242.jpg,A3H1A5PGLBBWR0_2022-11-24_10h22.56.476.csv
2,1.0,left,left,1.0,2.3453,0.0,2.0,2.0,2.0,1.0,2592380177-354629.jpg,2898633421-291974.jpg,A3H1A5PGLBBWR0_2022-11-24_10h22.56.476.csv
3,3.0,right,left,0.0,2.232,0.0,3.0,3.0,3.0,1.0,2901941438-69835.jpg,2238481198-19822.jpg,A3H1A5PGLBBWR0_2022-11-24_10h22.56.476.csv
4,3.0,right,right,1.0,2.3884,0.0,4.0,4.0,4.0,1.0,2901943480-218116.jpg,2238560245-182099.jpg,A3H1A5PGLBBWR0_2022-11-24_10h22.56.476.csv
5,2.0,right,right,1.0,1.999,0.0,5.0,5.0,5.0,1.0,2989721311-296963.jpg,2460547467-349422.jpg,A3H1A5PGLBBWR0_2022-11-24_10h22.56.476.csv
6,1.0,left,left,1.0,1.7287,0.0,6.0,6.0,6.0,1.0,2898635427-367120.jpg,2964221435-219434.jpg,A3H1A5PGLBBWR0_2022-11-24_10h22.56.476.csv
7,3.0,right,left,0.0,2.0379,0.0,7.0,7.0,7.0,1.0,2874312404-140477.jpg,2238580740-186218.jpg,A3H1A5PGLBBWR0_2022-11-24_10h22.56.476.csv
8,3.0,left,right,0.0,4.3387,0.0,8.0,8.0,8.0,1.0,2238425482-313537.jpg,2864901352-361731.jpg,A3H1A5PGLBBWR0_2022-11-24_10h22.56.476.csv
9,3.0,left,left,1.0,3.1272,0.0,9.0,9.0,9.0,1.0,2449442529-124446.jpg,2460547536-274179.jpg,A3H1A5PGLBBWR0_2022-11-24_10h22.56.476.csv
10,2.0,left,left,1.0,2.6669,0.0,10.0,10.0,10.0,1.0,2446758985-197609.jpg,2452380166-273110.jpg,A3H1A5PGLBBWR0_2022-11-24_10h22.56.476.csv
11,1.0,left,left,1.0,2.5649,0.0,11.0,11.0,11.0,1.0,2238572663-35822.jpg,2575118671-277663.jpg,A3H1A5PGLBBWR0_2022-11-24_10h22.56.476.csv
12,2.0,left,left,1.0,3.7592,0.0,12.0,12.0,12.0,1.0,2874303365-214262.jpg,2512875685-200826.jpg,A3H1A5PGLBBWR0_2022-11-24_10h22.56.476.csv
13,3.0,right,left,0.0,2.8073,0.0,13.0,13.0,13.0,1.0,2446759396-271761.jpg,2874307433-66280.jpg,A3H1A5PGLBBWR0_2022-11-24_10h22.56.476.csv
14,2.0,right,right,1.0,3.0962,0.0,14.0,14.0,14.0,1.0,2898636423-69152.jpg,2898634397-367080.jpg,A3H1A5PGLBBWR0_2022-11-24_10h22.56.476.csv
15,1.0,left,left,1.0,2.4205,0.0,15.0,15.0,15.0,1.0,2460547467-349421.jpg,2898618440-216547.jpg,A3H1A5PGLBBWR0_2022-11-24_10h22.56.476.csv
16,2.0,right,right,1.0,2.3977,0.0,16.0,16.0,16.0,1.0,2446761173-49643.jpg,2238480677-317399.jpg,A3H1A5PGLBBWR0_2022-11-24_10h22.56.476.csv
17,2.0,right,left,0.0,3.9913,0.0,17.0,17.0,17.0,1.0,2901949316-293452.jpg,2874301407-363895.jpg,A3H1A5PGLBBWR0_2022-11-24_10h22.56.476.csv
18,3.0,right,right,1.0,3.4219,0.0,18.0,18.0,18.0,1.0,2424122686-268072.jpg,2592379964-131054.jpg,A3H1A5PGLBBWR0_2022-11-24_10h22.56.476.csv
19,3.0,left,left,1.0,2.4201,0.0,19.0,19.0,19.0,1.0,2898618444-142233.jpg,2804906319-133082.jpg,A3H1A5PGLBBWR0_2022-11-24_10h22.56.476.csv
20,1.0,left,left,1.0,3.4238,0.0,20.0,20.0,20.0,1.0,2868475410-213219.jpg,2901946465-218350.jpg,A3H1A5PGLBBWR0_2022-11-24_10h22.56.476.csv
21,1.0,left,left,1.0,2.1466,0.0,21.0,21.0,21.0,1.0,2883268471-290842.jpg,2883268471-290843.jpg,A3H1A5PGLBBWR0_2022-11-24_10h22.56.476.csv
22,3.0,left,right,0.0,2.533,0.0,22.0,22.0,22.0,1.0,2901947423-70311.jpg,2874301385-214137.jpg,A3H1A5PGLBBWR0_2022-11-24_10h22.56.476.csv
23,2.0,left,left,1.0,4.0917,0.0,23.0,23.0,23.0,1.0,2898618390-216538.jpg,2864910427-362199.jpg,A3H1A5PGLBBWR0_2022-11-24_10h22.56.476.csv
24,3.0,right,right,1.0,3.3524,0.0,24.0,24.0,24.0,1.0,2864910427-362200.jpg,2238481928-19949.jpg,A3H1A5PGLBBWR0_2022-11-24_10h22.56.476.csv
25,2.0,left,left,1.0,3.3249,0.0,25.0,25.0,25.0,1.0,2883256307-365057.jpg,2864901420-212148.jpg,A3H1A5PGLBBWR0_2022-11-24_10h22.56.476.csv
26,1.0,left,left,1.0,3.5453,0.0,26.0,26.0,26.0,1.0,2901952513-70703.jpg,2864907361-287062.jpg,A3H1A5PGLBBWR0_2022-11-24_10h22.56.476.csv
27,3.0,left,left,1.0,2.8585,0.0,27.0,27.0,27.0,1.0,2901939379-143480.jpg,2901933403-69214.jpg,A3H1A5PGLBBWR0_2022-11-24_10h22.56.476.csv
28,1.0,left,right,0.0,3.0285,0.0,28.0,28.0,28.0,1.0,2512875899-126682.jpg,2898618440-216545.jpg,A3H1A5PGLBBWR0_2022-11-24_10h22.56.476.csv
29,1.0,right,left,0.0,1.985,0.0,29.0,29.0,29.0,1.0,2964207374-144577.jpg,2898624426-291546.jpg,A3H1A5PGLBBWR0_2022-11-24_10h22.56.476.csv
30,3.0,right,left,0.0,1.4381,0.0,30.0,30.0,30.0,1.0,2883254439-140940.jpg,2964213381-294060.jpg,A3H1A5PGLBBWR0_2022-11-24_10h22.56.476.csv
31,1.0,right,left,0.0,3.2413,0.0,31.0,31.0,31.0,1.0,2883255450-215311.jpg,2883254439-140941.jpg,A3H1A5PGLBBWR0_2022-11-24_10h22.56.476.csv
32,2.0,right,left,0.0,3.0435,0.0,32.0,32.0,32.0,1.0,2864904415-212294.jpg,2446759347-347016.jpg,A3H1A5PGLBBWR0_2022-11-24_10h22.56.476.csv
33,3.0,left,right,0.0,4.5555,0.0,33.0,33.0,33.0,1.0,2460547508-51571.jpg,2901941438-69836.jpg,A3H1A5PGLBBWR0_2022-11-24_10h22.56.476.csv
34,3.0,right,left,0.0,3.174,0.0,34.0,34.0,34.0,1.0,2238576222-334523.jpg,2449441881-272368.jpg,A3H1A5PGLBBWR0_2022-11-24_10h22.56.476.csv
35,1.0,left,left,1.0,2.2748,0.0,35.0,35.0,35.0,1.0,2901948350-218459.jpg,2868487415-213922.jpg,A3H1A5PGLBBWR0_2022-11-24_10h22.56.476.csv
36,2.0,right,right,1.0,3.2784,0.0,36.0,36.0,36.0,1.0,2901939433-69673.jpg,2874302418-65979.jpg,A3H1A5PGLBBWR0_2022-11-24_10h22.56.476.csv
37,1.0,left,left,1.0,2.8628,0.0,37.0,37.0,37.0,1.0,2864910426-287204.jpg,2864902304-137862.jpg,A3H1A5PGLBBWR0_2022-11-24_10h22.56.476.csv
38,1.0,right,right,1.0,2.4633,0.0,38.0,38.0,38.0,1.0,2864906345-212360.jpg,2898617468-68274.jpg,A3H1A5PGLBBWR0_2022-11-24_10h22.56.476.csv
39,3.0,left,right,0.0,2.9962,0.0,39.0,39.0,39.0,1.0,2874299429-139695.jpg,2874313394-140557.jpg,A3H1A5PGLBBWR0_2022-11-24_10h22.56.476.csv
40,2.0,right,right,1.0,3.9526,0.0,40.0,40.0,40.0,1.0,2901938398-69594.jpg,2901939379-143479.jpg,A3H1A5PGLBBWR0_2022-11-24_10h22.56.476.csv
41,3.0,right,left,0.0,2.9339,0.0,41.0,41.0,41.0,1.0,2898626395-216900.jpg,2864907432-362042.jpg,A3H1A5PGLBBWR0_2022-11-24_10h22.56.476.csv
42,2.0,right,right,1.0,1.2213,0.0,42.0,42.0,42.0,1.0,2512875824-126658.jpg,2458347385-199723.jpg,A3H1A5PGLBBWR0_2022-11-24_10h22.56.476.csv
43,2.0,right,right,1.0,0.9573,0.0,43.0,43.0,43.0,1.0,2874305405-214397.jpg,2868474407-362883.jpg,A3H1A5PGLBBWR0_2022-11-24_10h22.56.476.csv
44,2.0,left,left,1.0,3.8034,0.0,44.0,44.0,44.0,1.0,2452380832-348593.jpg,2238515978-25479.jpg,A3H1A5PGLBBWR0_2022-11-24_10h22.56.476.csv
45,2.0,left,left,1.0,2.8891,0.0,45.0,45.0,45.0,1.0,2575120738-55529.jpg,2901946413-70227.jpg,A3H1A5PGLBBWR0_2022-11-24_10h22.56.476.csv
46,3.0,right,right,1.0,3.2705,0.0,46.0,46.0,46.0,1.0,2898630381-291834.jpg,2986451363-73599.jpg,A3H1A5PGLBBWR0_2022-11-24_10h22.56.476.csv
47,2.0,right,left,0.0,3.3381,0.0,47.0,47.0,47.0,1.0,2449442621-272560.jpg,2452381505-199546.jpg,A3H1A5PGLBBWR0_2022-11-24_10h22.56.476.csv
48,1.0,right,right,1.0,2.9368,0.0,48.0,48.0,48.0,1.0,2512876023-52283.jpg,2898633421-291973.jpg,A3H1A5PGLBBWR0_2022-11-24_10h22.56.476.csv
49,1.0,left,left,1.0,2.9926,0.0,49.0,49.0,49.0,1.0,2964218374-144967.jpg,2964218374-144968.jpg,A3H1A5PGLBBWR0_2022-11-24_10h22.56.476.csv
50,3.0,left,left,1.0,2.5922,0.0,50.0,50.0,50.0,1.0,2981241414-145842.jpg,2238427023-15948.jpg,A3H1A5PGLBBWR0_2022-11-24_10h22.56.476.csv
51,1.0,right,right,1.0,2.3235,0.0,51.0,51.0,51.0,1.0,2452380166-273109.jpg,2449442529-124445.jpg,A3H1A5PGLBBWR0_2022-11-24_10h22.56.476.csv
52,2.0,left,left,1.0,3.0494,0.0,52.0,52.0,52.0,1.0,2238428357-313623.jpg,2984616310-220514.jpg,A3H1A5PGLBBWR0_2022-11-24_10h22.56.476.csv
53,1.0,left,left,1.0,4.1731,0.0,53.0,53.0,53.0,1.0,2874302418-65978.jpg,2898626385-216899.jpg,A3H1A5PGLBBWR0_2022-11-24_10h22.56.476.csv
54,2.0,right,right,1.0,3.6918,0.0,54.0,54.0,54.0,1.0,2864904390-212289.jpg,2898635428-69104.jpg,A3H1A5PGLBBWR0_2022-11-24_10h22.56.476.csv
55,1.0,left,left,1.0,3.0978,0.0,55.0,55.0,55.0,1.0,2883268412-365898.jpg,2984626312-370849.jpg,A3H1A5PGLBBWR0_2022-11-24_10h22.56.476.csv
56,2.0,left,left,1.0,3.9464,0.0,56.0,56.0,56.0,1.0,2981231403-71642.jpg,2864900358-63717.jpg,A3H1A5PGLBBWR0_2022-11-24_10h22.56.476.csv
57,2.0,left,right,0.0,2.3927,0.0,57.0,57.0,57.0,1.0,2446759803-49249.jpg,2238499155-170911.jpg,A3H1A5PGLBBWR0_2022-11-24_10h22.56.476.csv
58,3.0,right,left,0.0,0.0126,0.0,58.0,58.0,58.0,1.0,2579432708-56392.jpg,2592380177-354626.jpg,A3H1A5PGLBBWR0_2022-11-24_10h22.56.476.csv
59,3.0,right,left,0.0,2.6647,0.0,59.0,59.0,59.0,1.0,2901938432-367628.jpg,2964223381-294447.jpg,A3H1A5PGLBBWR0_2022-11-24_10h22.56.476.csv
60,2.0,right,left,0.0,1.9587,0.0,0.0,0.0,0.0,1.0,2864900358-63717.jpg,2981231403-71642.jpg,A5SHVX15AQJQF_2022-11-24_10h24.01.860.csv
61,3.0,right,right,1.0,1.5439,0.0,1.0,1.0,1.0,1.0,2901942428-69919.jpg,2898635428-69104.jpg,A5SHVX15AQJQF_2022-11-24_10h24.01.860.csv
62,3.0,left,left,1.0,1.5064,0.0,2.0,2.0,2.0,1.0,2864907432-362042.jpg,2898626395-216900.jpg,A5SHVX15AQJQF_2022-11-24_10h24.01.860.csv
63,1.0,right,right,1.0,1.4572,0.0,3.0,3.0,3.0,1.0,2984626312-370849.jpg,2883268412-365898.jpg,A5SHVX15AQJQF_2022-11-24_10h24.01.860.csv
64,1.0,left,right,0.0,1.2881,0.0,4.0,4.0,4.0,1.0,2874307433-66280.jpg,2986447306-296584.jpg,A5SHVX15AQJQF_2022-11-24_10h24.01.860.csv
65,2.0,left,left,1.0,1.2579,0.0,5.0,5.0,5.0,1.0,2898624426-291546.jpg,2898626395-216901.jpg,A5SHVX15AQJQF_2022-11-24_10h24.01.860.csv
66,2.0,right,left,0.0,1.2421,0.0,6.0,6.0,6.0,1.0,2898623398-68538.jpg,2883268471-290842.jpg,A5SHVX15AQJQF_2022-11-24_10h24.01.860.csv
67,2.0,right,right,1.0,1.7017,0.0,7.0,7.0,7.0,1.0,2238360787-310962.jpg,2592380177-354626.jpg,A5SHVX15AQJQF_2022-11-24_10h24.01.860.csv
68,3.0,left,right,0.0,2.504,0.0,8.0,8.0,8.0,1.0,2964216465-219242.jpg,2981231403-71641.jpg,A5SHVX15AQJQF_2022-11-24_10h24.01.860.csv
69,2.0,right,right,1.0,2.1983,0.0,9.0,9.0,9.0,1.0,2898633480-217189.jpg,2460547508-51571.jpg,A5SHVX15AQJQF_2022-11-24_10h24.01.860.csv
70,1.0,right,right,1.0,2.7202,0.0,10.0,10.0,10.0,1.0,2413147898-43548.jpg,2874302418-65979.jpg,A5SHVX15AQJQF_2022-11-24_10h24.01.860.csv
71,1.0,right,right,1.0,1.7211,0.0,11.0,11.0,11.0,1.0,2609793677-355397.jpg,2874303365-214262.jpg,A5SHVX15AQJQF_2022-11-24_10h24.01.860.csv
72,3.0,right,right,1.0,2.3658,0.0,12.0,12.0,12.0,1.0,2238574968-36441.jpg,2898618390-216538.jpg,A5SHVX15AQJQF_2022-11-24_10h24.01.860.csv
73,3.0,right,right,1.0,2.8818,0.0,13.0,13.0,13.0,1.0,2446759306-271735.jpg,2898634397-367080.jpg,A5SHVX15AQJQF_2022-11-24_10h24.01.860.csv
74,3.0,right,left,0.0,1.3636,0.0,14.0,14.0,14.0,1.0,2901933403-69214.jpg,2901939379-143480.jpg,A5SHVX15AQJQF_2022-11-24_10h24.01.860.csv
75,1.0,right,left,0.0,1.943,0.0,15.0,15.0,15.0,1.0,2238516618-25604.jpg,2868474407-362883.jpg,A5SHVX15AQJQF_2022-11-24_10h24.01.860.csv
76,3.0,left,left,1.0,2.3638,0.0,16.0,16.0,16.0,1.0,2449442529-124445.jpg,2901946439-144040.jpg,A5SHVX15AQJQF_2022-11-24_10h24.01.860.csv
77,2.0,left,left,1.0,4.1932,0.0,17.0,17.0,17.0,1.0,2238480677-317399.jpg,2446761173-49643.jpg,A5SHVX15AQJQF_2022-11-24_10h24.01.860.csv
78,3.0,left,left,1.0,4.8827,0.0,18.0,18.0,18.0,1.0,2238560245-182099.jpg,2901943480-218116.jpg,A5SHVX15AQJQF_2022-11-24_10h24.01.860.csv
79,3.0,right,right,1.0,4.5742,0.0,19.0,19.0,19.0,1.0,2238576222-334523.jpg,2449441881-272368.jpg,A5SHVX15AQJQF_2022-11-24_10h24.01.860.csv
80,2.0,right,left,0.0,4.5399,0.0,20.0,20.0,20.0,1.0,2964223380-219495.jpg,2901941401-292798.jpg,A5SHVX15AQJQF_2022-11-24_10h24.01.860.csv
81,1.0,left,left,1.0,4.5252,0.0,21.0,21.0,21.0,1.0,2883256307-365057.jpg,2611628310-206388.jpg,A5SHVX15AQJQF_2022-11-24_10h24.01.860.csv
82,3.0,right,right,1.0,4.2912,0.0,22.0,22.0,22.0,1.0,2856919327-359675.jpg,2238428357-313623.jpg,A5SHVX15AQJQF_2022-11-24_10h24.01.860.csv
83,2.0,left,right,0.0,7.3492,0.0,23.0,23.0,23.0,1.0,2964223381-294447.jpg,2964217461-294238.jpg,A5SHVX15AQJQF_2022-11-24_10h24.01.860.csv
84,1.0,right,right,1.0,4.3302,0.0,24.0,24.0,24.0,1.0,2238328478-11678.jpg,2452380832-348593.jpg,A5SHVX15AQJQF_2022-11-24_10h24.01.860.csv
85,3.0,left,left,1.0,5.2646,0.0,25.0,25.0,25.0,1.0,2874301407-363895.jpg,2989715317-371697.jpg,A5SHVX15AQJQF_2022-11-24_10h24.01.860.csv
86,2.0,right,right,1.0,5.1588,0.0,26.0,26.0,26.0,1.0,2598726160-205998.jpg,2964213381-294060.jpg,A5SHVX15AQJQF_2022-11-24_10h24.01.860.csv
87,2.0,left,left,1.0,4.3589,0.0,27.0,27.0,27.0,1.0,2981241414-145842.jpg,2868469411-287540.jpg,A5SHVX15AQJQF_2022-11-24_10h24.01.860.csv
88,1.0,left,left,1.0,5.7113,0.0,28.0,28.0,28.0,1.0,2238572663-35822.jpg,2575118671-277663.jpg,A5SHVX15AQJQF_2022-11-24_10h24.01.860.csv
89,2.0,left,right,0.0,5.099,0.0,29.0,29.0,29.0,1.0,2868475410-213219.jpg,2862700345-211776.jpg,A5SHVX15AQJQF_2022-11-24_10h24.01.860.csv
90,2.0,left,right,0.0,3.679,0.0,30.0,30.0,30.0,1.0,2449442529-124446.jpg,2964216376-294181.jpg,A5SHVX15AQJQF_2022-11-24_10h24.01.860.csv
91,3.0,right,left,0.0,4.5947,0.0,31.0,31.0,31.0,1.0,2460547859-126142.jpg,2575120738-55529.jpg,A5SHVX15AQJQF_2022-11-24_10h24.01.860.csv
92,1.0,right,left,0.0,2.6378,0.0,32.0,32.0,32.0,1.0,2512876023-52283.jpg,2898633421-291973.jpg,A5SHVX15AQJQF_2022-11-24_10h24.01.860.csv
93,3.0,right,right,1.0,2.3335,0.0,33.0,33.0,33.0,1.0,2901941438-69835.jpg,2238481198-19822.jpg,A5SHVX15AQJQF_2022-11-24_10h24.01.860.csv
94,2.0,right,right,1.0,2.0641,0.0,34.0,34.0,34.0,1.0,2238433340-164524.jpg,2898617468-68274.jpg,A5SHVX15AQJQF_2022-11-24_10h24.01.860.csv
95,3.0,right,right,1.0,5.3327,0.0,35.0,35.0,35.0,1.0,2446759306-271734.jpg,2901939379-143479.jpg,A5SHVX15AQJQF_2022-11-24_10h24.01.860.csv
96,1.0,left,left,1.0,4.586,0.0,36.0,36.0,36.0,1.0,2898635427-367120.jpg,2964221435-219434.jpg,A5SHVX15AQJQF_2022-11-24_10h24.01.860.csv
97,1.0,left,left,1.0,4.6507,0.0,37.0,37.0,37.0,1.0,2458347385-199723.jpg,2238480434-93829.jpg,A5SHVX15AQJQF_2022-11-24_10h24.01.860.csv
98,3.0,right,left,0.0,5.2567,0.0,38.0,38.0,38.0,1.0,2238482369-94216.jpg,2901948350-218459.jpg,A5SHVX15AQJQF_2022-11-24_10h24.01.860.csv
99,3.0,left,right,0.0,4.593,0.0,39.0,39.0,39.0,1.0,2874299429-139695.jpg,2874313394-140557.jpg,A5SHVX15AQJQF_2022-11-24_10h24.01.860.csv
100,1.0,left,right,0.0,5.1885,0.0,40.0,40.0,40.0,1.0,2898618444-142233.jpg,2898631359-142721.jpg,A5SHVX15AQJQF_2022-11-24_10h24.01.860.csv
101,1.0,left,left,1.0,5.3924,0.0,41.0,41.0,41.0,1.0,2901952513-70703.jpg,2864907361-287062.jpg,A5SHVX15AQJQF_2022-11-24_10h24.01.860.csv
102,2.0,right,right,1.0,4.2038,0.0,42.0,42.0,42.0,1.0,2238547107-328393.jpg,2512875899-126682.jpg,A5SHVX15AQJQF_2022-11-24_10h24.01.860.csv
103,3.0,right,left,0.0,5.8288,0.0,43.0,43.0,43.0,1.0,2847210303-60991.jpg,2592380177-354629.jpg,A5SHVX15AQJQF_2022-11-24_10h24.01.860.csv
104,2.0,left,right,0.0,4.6386,0.0,44.0,44.0,44.0,1.0,2986451363-73599.jpg,2238571930-184142.jpg,A5SHVX15AQJQF_2022-11-24_10h24.01.860.csv
105,2.0,left,right,0.0,5.4474,0.0,45.0,45.0,45.0,1.0,2883254439-140941.jpg,2460548070-200336.jpg,A5SHVX15AQJQF_2022-11-24_10h24.01.860.csv
106,3.0,right,right,1.0,4.9226,0.0,46.0,46.0,46.0,1.0,2238087237-303447.jpg,2446758985-197609.jpg,A5SHVX15AQJQF_2022-11-24_10h24.01.860.csv
107,2.0,left,left,1.0,5.0924,0.0,47.0,47.0,47.0,1.0,2452381505-199546.jpg,2449442621-272560.jpg,A5SHVX15AQJQF_2022-11-24_10h24.01.860.csv
108,1.0,left,left,1.0,4.7948,0.0,48.0,48.0,48.0,1.0,2964218374-144967.jpg,2964218374-144968.jpg,A5SHVX15AQJQF_2022-11-24_10h24.01.860.csv
109,1.0,left,right,0.0,4.2124,0.0,49.0,49.0,49.0,1.0,2874302418-65978.jpg,2898626385-216899.jpg,A5SHVX15AQJQF_2022-11-24_10h24.01.860.csv
110,2.0,left,right,0.0,6.0393,0.0,50.0,50.0,50.0,1.0,2238580740-186218.jpg,2575121108-55628.jpg,A5SHVX15AQJQF_2022-11-24_10h24.01.860.csv
111,3.0,left,right,0.0,4.9827,0.0,51.0,51.0,51.0,1.0,2901947423-70311.jpg,2874301385-214137.jpg,A5SHVX15AQJQF_2022-11-24_10h24.01.860.csv
112,1.0,left,left,1.0,4.2796,0.0,52.0,52.0,52.0,1.0,2864910426-287204.jpg,2864902304-137862.jpg,A5SHVX15AQJQF_2022-11-24_10h24.01.860.csv
113,1.0,left,left,1.0,5.4672,0.0,53.0,53.0,53.0,1.0,2460547467-349421.jpg,2898618440-216547.jpg,A5SHVX15AQJQF_2022-11-24_10h24.01.860.csv
114,1.0,right,left,0.0,5.3447,0.0,54.0,54.0,54.0,1.0,2446760601-272099.jpg,2446759803-49249.jpg,A5SHVX15AQJQF_2022-11-24_10h24.01.860.csv
115,1.0,left,right,0.0,4.2074,0.0,55.0,55.0,55.0,1.0,2238481928-19949.jpg,2883264367-365620.jpg,A5SHVX15AQJQF_2022-11-24_10h24.01.860.csv
116,3.0,right,left,0.0,4.7203,0.0,56.0,56.0,56.0,1.0,2446760362-347305.jpg,2446759347-347016.jpg,A5SHVX15AQJQF_2022-11-24_10h24.01.860.csv
117,2.0,right,right,1.0,4.4542,0.0,57.0,57.0,57.0,1.0,2427875694-122097.jpg,2592379964-131054.jpg,A5SHVX15AQJQF_2022-11-24_10h24.01.860.csv
118,1.0,right,right,1.0,6.59,0.0,58.0,58.0,58.0,1.0,2898631394-142727.jpg,2460547467-349422.jpg,A5SHVX15AQJQF_2022-11-24_10h24.01.860.csv
119,2.0,right,left,0.0,5.591,0.0,59.0,59.0,59.0,1.0,2981244403-72215.jpg,2238425482-313537.jpg,A5SHVX15AQJQF_2022-11-24_10h24.01.860.csv
120,3.0,left,left,1.0,4.684,0.0,0.0,0.0,0.0,1.0,2874299429-139695.jpg,2874313394-140557.jpg,A3KVIZLKSASAES_2022-11-24_10h37.14.539.csv
121,2.0,right,right,1.0,2.782,0.0,1.0,1.0,1.0,1.0,2238577555-185462.jpg,2874302418-65978.jpg,A3KVIZLKSASAES_2022-11-24_10h37.14.539.csv
122,1.0,left,left,1.0,3.381,0.0,2.0,2.0,2.0,1.0,2446758985-197609.jpg,2981240424-145795.jpg,A3KVIZLKSASAES_2022-11-24_10h37.14.539.csv
123,2.0,right,right,1.0,2.527,0.0,3.0,3.0,3.0,1.0,2898633480-217189.jpg,2460547508-51571.jpg,A3KVIZLKSASAES_2022-11-24_10h37.14.539.csv
124,1.0,left,right,0.0,2.731,0.0,4.0,4.0,4.0,1.0,2592380177-354626.jpg,2986408339-146952.jpg,A3KVIZLKSASAES_2022-11-24_10h37.14.539.csv
125,3.0,left,right,0.0,3.429,0.0,5.0,5.0,5.0,1.0,2238580740-186218.jpg,2874312404-140477.jpg,A3KVIZLKSASAES_2022-11-24_10h37.14.539.csv
126,3.0,right,right,1.0,3.119,0.0,6.0,6.0,6.0,1.0,2898630381-291834.jpg,2986451363-73599.jpg,A3KVIZLKSASAES_2022-11-24_10h37.14.539.csv
127,3.0,left,right,0.0,4.047,0.0,7.0,7.0,7.0,1.0,2981231403-71642.jpg,2238574878-36413.jpg,A3KVIZLKSASAES_2022-11-24_10h37.14.539.csv
128,1.0,right,right,1.0,3.168,0.0,8.0,8.0,8.0,1.0,2898618440-216547.jpg,2460547467-349421.jpg,A3KVIZLKSASAES_2022-11-24_10h37.14.539.csv
129,3.0,right,right,1.0,4.04,0.0,9.0,9.0,9.0,1.0,2898626395-216900.jpg,2864907432-362042.jpg,A3KVIZLKSASAES_2022-11-24_10h37.14.539.csv
130,1.0,left,left,1.0,2.861,0.0,10.0,10.0,10.0,1.0,2883268412-365898.jpg,2984626312-370849.jpg,A3KVIZLKSASAES_2022-11-24_10h37.14.539.csv
131,2.0,left,left,1.0,2.679,0.0,11.0,11.0,11.0,1.0,2238428357-313623.jpg,2984616310-220514.jpg,A3KVIZLKSASAES_2022-11-24_10h37.14.539.csv
132,1.0,right,right,1.0,5.149,0.0,12.0,12.0,12.0,1.0,2452380171-273112.jpg,2449442529-124446.jpg,A3KVIZLKSASAES_2022-11-24_10h37.14.539.csv
133,2.0,right,right,1.0,4.379,0.0,13.0,13.0,13.0,1.0,2989726338-74002.jpg,2238481928-19949.jpg,A3KVIZLKSASAES_2022-11-24_10h37.14.539.csv
134,1.0,right,right,1.0,3.737,0.0,14.0,14.0,14.0,1.0,2868487415-213922.jpg,2901948350-218459.jpg,A3KVIZLKSASAES_2022-11-24_10h37.14.539.csv
135,1.0,right,right,1.0,3.726,0.0,15.0,15.0,15.0,1.0,2898618440-216545.jpg,2512875899-126682.jpg,A3KVIZLKSASAES_2022-11-24_10h37.14.539.csv
136,2.0,left,left,1.0,3.089,0.0,16.0,16.0,16.0,1.0,2964218374-144967.jpg,2446758985-197610.jpg,A3KVIZLKSASAES_2022-11-24_10h37.14.539.csv
137,3.0,left,left,1.0,2.308,0.0,17.0,17.0,17.0,1.0,2901939379-143479.jpg,2446759306-271734.jpg,A3KVIZLKSASAES_2022-11-24_10h37.14.539.csv
138,2.0,left,left,1.0,3.228,0.0,18.0,18.0,18.0,1.0,2883254439-140941.jpg,2460548070-200336.jpg,A3KVIZLKSASAES_2022-11-24_10h37.14.539.csv
139,1.0,left,left,1.0,2.894,0.0,19.0,19.0,19.0,1.0,2981241414-145842.jpg,2856919327-359676.jpg,A3KVIZLKSASAES_2022-11-24_10h37.14.539.csv
140,1.0,left,left,1.0,2.761,0.0,20.0,20.0,20.0,1.0,2901939379-143480.jpg,2981229442-369621.jpg,A3KVIZLKSASAES_2022-11-24_10h37.14.539.csv
141,3.0,left,right,0.0,4.654,0.0,21.0,21.0,21.0,1.0,2883268471-290842.jpg,2883266367-365742.jpg,A3KVIZLKSASAES_2022-11-24_10h37.14.539.csv
142,1.0,left,left,1.0,2.855,0.0,22.0,22.0,22.0,1.0,2452380832-348593.jpg,2238328478-11678.jpg,A3KVIZLKSASAES_2022-11-24_10h37.14.539.csv
143,2.0,left,left,1.0,2.59,0.0,23.0,23.0,23.0,1.0,2898618390-216538.jpg,2864910427-362199.jpg,A3KVIZLKSASAES_2022-11-24_10h37.14.539.csv
144,3.0,left,right,0.0,4.217,0.0,24.0,24.0,24.0,1.0,2238425482-313537.jpg,2864901352-361731.jpg,A3KVIZLKSASAES_2022-11-24_10h37.14.539.csv
145,3.0,right,left,0.0,2.989,0.0,25.0,25.0,25.0,1.0,2901947448-70315.jpg,2883256307-365057.jpg,A3KVIZLKSASAES_2022-11-24_10h37.14.539.csv
146,1.0,left,right,0.0,5.826,0.0,26.0,26.0,26.0,1.0,2874302418-65979.jpg,2413147898-43548.jpg,A3KVIZLKSASAES_2022-11-24_10h37.14.539.csv
147,2.0,right,right,1.0,1.806,0.0,27.0,27.0,27.0,1.0,2427875694-122097.jpg,2592379964-131054.jpg,A3KVIZLKSASAES_2022-11-24_10h37.14.539.csv
148,2.0,left,left,1.0,5.004,0.0,28.0,28.0,28.0,1.0,2575120738-55529.jpg,2901946413-70227.jpg,A3KVIZLKSASAES_2022-11-24_10h37.14.539.csv
149,2.0,left,left,1.0,3.62,0.0,29.0,29.0,29.0,1.0,2874307433-66280.jpg,2864900357-361688.jpg,A3KVIZLKSASAES_2022-11-24_10h37.14.539.csv
150,1.0,right,right,1.0,2.316,0.0,30.0,30.0,30.0,1.0,2238481630-168218.jpg,2238480677-317399.jpg,A3KVIZLKSASAES_2022-11-24_10h37.14.539.csv
151,2.0,right,right,1.0,2.515,0.0,31.0,31.0,31.0,1.0,2238499155-170911.jpg,2446759803-49249.jpg,A3KVIZLKSASAES_2022-11-24_10h37.14.539.csv
152,1.0,right,right,1.0,2.644,0.0,32.0,32.0,32.0,1.0,2964207374-144577.jpg,2898624426-291546.jpg,A3KVIZLKSASAES_2022-11-24_10h37.14.539.csv
153,3.0,left,left,1.0,1.967,0.0,33.0,33.0,33.0,1.0,2964213381-294060.jpg,2883254439-140940.jpg,A3KVIZLKSASAES_2022-11-24_10h37.14.539.csv
154,3.0,left,left,1.0,3.044,0.0,34.0,34.0,34.0,1.0,2898633421-291973.jpg,2989730319-147821.jpg,A3KVIZLKSASAES_2022-11-24_10h37.14.539.csv
155,1.0,right,right,1.0,2.946,0.0,35.0,35.0,35.0,1.0,2238516618-25604.jpg,2868474407-362883.jpg,A3KVIZLKSASAES_2022-11-24_10h37.14.539.csv
156,3.0,left,left,1.0,2.537,0.0,36.0,36.0,36.0,1.0,2446759347-347016.jpg,2446760362-347305.jpg,A3KVIZLKSASAES_2022-11-24_10h37.14.539.csv
157,3.0,right,left,0.0,2.103,0.0,37.0,37.0,37.0,1.0,2901938432-367628.jpg,2964223381-294447.jpg,A3KVIZLKSASAES_2022-11-24_10h37.14.539.csv
158,2.0,right,right,1.0,2.642,0.0,38.0,38.0,38.0,1.0,2238482539-94244.jpg,2964216465-219242.jpg,A3KVIZLKSASAES_2022-11-24_10h37.14.539.csv
159,2.0,left,left,1.0,3.563,0.0,39.0,39.0,39.0,1.0,2458347385-199723.jpg,2512875824-126658.jpg,A3KVIZLKSASAES_2022-11-24_10h37.14.539.csv
160,3.0,left,left,1.0,2.345,0.0,40.0,40.0,40.0,1.0,2898635427-367120.jpg,2898624426-291545.jpg,A3KVIZLKSASAES_2022-11-24_10h37.14.539.csv
161,1.0,right,right,1.0,3.407,0.0,41.0,41.0,41.0,1.0,2452380166-273109.jpg,2449442529-124445.jpg,A3KVIZLKSASAES_2022-11-24_10h37.14.539.csv
162,2.0,right,right,1.0,3.492,0.0,42.0,42.0,42.0,1.0,2989721311-296963.jpg,2460547467-349422.jpg,A3KVIZLKSASAES_2022-11-24_10h37.14.539.csv
163,3.0,left,left,1.0,3.29,0.0,43.0,43.0,43.0,1.0,2449441881-272368.jpg,2238576222-334523.jpg,A3KVIZLKSASAES_2022-11-24_10h37.14.539.csv
164,3.0,left,left,1.0,2.757,0.0,44.0,44.0,44.0,1.0,2901947423-70311.jpg,2874301385-214137.jpg,A3KVIZLKSASAES_2022-11-24_10h37.14.539.csv
165,2.0,left,left,1.0,2.767,0.0,45.0,45.0,45.0,1.0,2238560245-182099.jpg,2238467949-92250.jpg,A3KVIZLKSASAES_2022-11-24_10h37.14.539.csv
166,1.0,left,left,1.0,2.697,0.0,46.0,46.0,46.0,1.0,2898617468-68274.jpg,2864906345-212360.jpg,A3KVIZLKSASAES_2022-11-24_10h37.14.539.csv
167,1.0,left,left,1.0,2.482,0.0,47.0,47.0,47.0,1.0,2898618444-142233.jpg,2898631359-142721.jpg,A3KVIZLKSASAES_2022-11-24_10h37.14.539.csv
168,3.0,right,right,1.0,4.122,0.0,48.0,48.0,48.0,1.0,2424124794-120289.jpg,2874303365-214262.jpg,A3KVIZLKSASAES_2022-11-24_10h37.14.539.csv
169,2.0,right,left,0.0,4.554,0.0,49.0,49.0,49.0,1.0,2898636423-69152.jpg,2898634397-367080.jpg,A3KVIZLKSASAES_2022-11-24_10h37.14.539.csv
170,2.0,right,right,1.0,0.634,0.0,50.0,50.0,50.0,1.0,2964223380-219495.jpg,2901941401-292798.jpg,A3KVIZLKSASAES_2022-11-24_10h37.14.539.csv
171,2.0,right,left,0.0,0.963,0.0,51.0,51.0,51.0,1.0,2864904390-212289.jpg,2898635428-69104.jpg,A3KVIZLKSASAES_2022-11-24_10h37.14.539.csv
172,1.0,left,right,0.0,2.897,0.0,52.0,52.0,52.0,1.0,2452381505-199546.jpg,2901938432-367627.jpg,A3KVIZLKSASAES_2022-11-24_10h37.14.539.csv
173,3.0,right,left,0.0,3.958,0.0,53.0,53.0,53.0,1.0,2901941438-69835.jpg,2238481198-19822.jpg,A3KVIZLKSASAES_2022-11-24_10h37.14.539.csv
174,1.0,right,right,1.0,3.105,0.0,54.0,54.0,54.0,1.0,2883264368-67631.jpg,2874301407-363895.jpg,A3KVIZLKSASAES_2022-11-24_10h37.14.539.csv
175,2.0,right,right,1.0,4.658,0.0,55.0,55.0,55.0,1.0,2901949316-293454.jpg,2901952513-70703.jpg,A3KVIZLKSASAES_2022-11-24_10h37.14.539.csv
176,1.0,left,right,0.0,4.328,0.0,56.0,56.0,56.0,1.0,2868475410-213219.jpg,2901946465-218350.jpg,A3KVIZLKSASAES_2022-11-24_10h37.14.539.csv
177,3.0,left,left,1.0,4.003,0.0,57.0,57.0,57.0,1.0,2238572663-35822.jpg,2238375825-162206.jpg,A3KVIZLKSASAES_2022-11-24_10h37.14.539.csv
178,3.0,right,right,1.0,2.112,0.0,58.0,58.0,58.0,1.0,2847210303-60991.jpg,2592380177-354629.jpg,A3KVIZLKSASAES_2022-11-24_10h37.14.539.csv
179,2.0,right,right,1.0,3.797,0.0,59.0,59.0,59.0,1.0,2864903351-286874.jpg,2864910426-287204.jpg,A3KVIZLKSASAES_2022-11-24_10h37.14.539.csv
180,1.0,right,right,1.0,2.459,0.0,0.0,0.0,0.0,1.0,2986447306-296584.jpg,2874307433-66280.jpg,A1T90U2KNBZZR5_2022-11-24_10h30.26.864.csv
181,3.0,right,left,0.0,1.6308,0.0,1.0,1.0,1.0,1.0,2864910427-362200.jpg,2238481928-19949.jpg,A1T90U2KNBZZR5_2022-11-24_10h30.26.864.csv
182,1.0,right,right,1.0,1.7071,0.0,2.0,2.0,2.0,1.0,2452380166-273109.jpg,2449442529-124445.jpg,A1T90U2KNBZZR5_2022-11-24_10h30.26.864.csv
183,2.0,left,right,0.0,1.5159,0.0,3.0,3.0,3.0,1.0,2238480677-317399.jpg,2446761173-49643.jpg,A1T90U2KNBZZR5_2022-11-24_10h30.26.864.csv
184,2.0,left,left,1.0,1.5449,0.0,4.0,4.0,4.0,1.0,2883268471-290842.jpg,2898623398-68538.jpg,A1T90U2KNBZZR5_2022-11-24_10h30.26.864.csv
185,3.0,left,right,0.0,1.3667,0.0,5.0,5.0,5.0,1.0,2964223381-294447.jpg,2901938432-367628.jpg,A1T90U2KNBZZR5_2022-11-24_10h30.26.864.csv
186,1.0,right,right,1.0,1.3015,0.0,6.0,6.0,6.0,1.0,2238480434-93829.jpg,2458347385-199723.jpg,A1T90U2KNBZZR5_2022-11-24_10h30.26.864.csv
187,1.0,left,left,1.0,1.6684,0.0,7.0,7.0,7.0,1.0,2883254439-140941.jpg,2883255450-215311.jpg,A1T90U2KNBZZR5_2022-11-24_10h30.26.864.csv
188,3.0,left,left,1.0,1.7672,0.0,8.0,8.0,8.0,1.0,2901948350-218459.jpg,2238482369-94216.jpg,A1T90U2KNBZZR5_2022-11-24_10h30.26.864.csv
189,2.0,right,right,1.0,1.426,0.0,9.0,9.0,9.0,1.0,2238571930-184143.jpg,2874299429-139695.jpg,A1T90U2KNBZZR5_2022-11-24_10h30.26.864.csv
190,1.0,right,right,1.0,1.7423,0.0,10.0,10.0,10.0,1.0,2238471391-240918.jpg,2238425482-313537.jpg,A1T90U2KNBZZR5_2022-11-24_10h30.26.864.csv
191,1.0,right,right,1.0,1.3957,0.0,11.0,11.0,11.0,1.0,2898631394-142727.jpg,2460547467-349422.jpg,A1T90U2KNBZZR5_2022-11-24_10h30.26.864.csv
192,3.0,left,left,1.0,1.3561,0.0,12.0,12.0,12.0,1.0,2452380832-348593.jpg,2237856283-1014.jpg,A1T90U2KNBZZR5_2022-11-24_10h30.26.864.csv
193,1.0,right,left,0.0,1.9278,0.0,13.0,13.0,13.0,1.0,2981240424-145795.jpg,2446758985-197609.jpg,A1T90U2KNBZZR5_2022-11-24_10h30.26.864.csv
194,1.0,left,left,1.0,1.3096,0.0,14.0,14.0,14.0,1.0,2592379964-131054.jpg,2575963989-130576.jpg,A1T90U2KNBZZR5_2022-11-24_10h30.26.864.csv
195,2.0,left,left,1.0,2.0322,0.0,15.0,15.0,15.0,1.0,2901941401-292798.jpg,2964223380-219495.jpg,A1T90U2KNBZZR5_2022-11-24_10h30.26.864.csv
196,1.0,right,right,1.0,1.2477,0.0,16.0,16.0,16.0,1.0,2575118671-277663.jpg,2238572663-35822.jpg,A1T90U2KNBZZR5_2022-11-24_10h30.26.864.csv
197,2.0,left,left,1.0,1.2961,0.0,17.0,17.0,17.0,1.0,2981241414-145842.jpg,2868469411-287540.jpg,A1T90U2KNBZZR5_2022-11-24_10h30.26.864.csv
198,2.0,left,left,1.0,1.3863,0.0,18.0,18.0,18.0,1.0,2449441881-272368.jpg,2898617374-142166.jpg,A1T90U2KNBZZR5_2022-11-24_10h30.26.864.csv
199,3.0,right,left,0.0,1.5176,0.0,19.0,19.0,19.0,1.0,2579432708-56392.jpg,2592380177-354626.jpg,A1T90U2KNBZZR5_2022-11-24_10h30.26.864.csv
200,2.0,left,left,1.0,1.8696,0.0,20.0,20.0,20.0,1.0,2874302418-65978.jpg,2238577555-185462.jpg,A1T90U2KNBZZR5_2022-11-24_10h30.26.864.csv
201,2.0,right,right,1.0,1.1989,0.0,21.0,21.0,21.0,1.0,2901945495-218294.jpg,2592380177-354629.jpg,A1T90U2KNBZZR5_2022-11-24_10h30.26.864.csv
202,1.0,right,left,0.0,1.4546,0.0,22.0,22.0,22.0,1.0,2549106624-127823.jpg,2238560245-182099.jpg,A1T90U2KNBZZR5_2022-11-24_10h30.26.864.csv
203,2.0,left,left,1.0,1.2243,0.0,23.0,23.0,23.0,1.0,2446759803-49249.jpg,2238499155-170911.jpg,A1T90U2KNBZZR5_2022-11-24_10h30.26.864.csv
204,3.0,right,right,1.0,1.6255,0.0,24.0,24.0,24.0,1.0,2898619327-366362.jpg,2460547467-349421.jpg,A1T90U2KNBZZR5_2022-11-24_10h30.26.864.csv
205,2.0,right,left,0.0,1.4398,0.0,25.0,25.0,25.0,1.0,2864904415-212294.jpg,2446759347-347016.jpg,A1T90U2KNBZZR5_2022-11-24_10h30.26.864.csv
206,1.0,right,right,1.0,1.4245,0.0,26.0,26.0,26.0,1.0,2864902304-137862.jpg,2864910426-287204.jpg,A1T90U2KNBZZR5_2022-11-24_10h30.26.864.csv
207,1.0,right,left,0.0,1.2454,0.0,27.0,27.0,27.0,1.0,2981229442-369621.jpg,2901939379-143480.jpg,A1T90U2KNBZZR5_2022-11-24_10h30.26.864.csv
208,1.0,right,right,1.0,1.5137,0.0,28.0,28.0,28.0,1.0,2512876023-52283.jpg,2898633421-291973.jpg,A1T90U2KNBZZR5_2022-11-24_10h30.26.864.csv
209,3.0,right,right,1.0,1.2337,0.0,29.0,29.0,29.0,1.0,2898633476-291993.jpg,2964218374-144967.jpg,A1T90U2KNBZZR5_2022-11-24_10h30.26.864.csv
210,1.0,right,right,1.0,1.1928,0.0,30.0,30.0,30.0,1.0,2238499057-320266.jpg,2238428357-313623.jpg,A1T90U2KNBZZR5_2022-11-24_10h30.26.864.csv
211,3.0,left,left,1.0,1.4621,0.0,31.0,31.0,31.0,1.0,2883256307-365057.jpg,2901947448-70315.jpg,A1T90U2KNBZZR5_2022-11-24_10h30.26.864.csv
212,1.0,left,left,1.0,1.7226,0.0,32.0,32.0,32.0,1.0,2898618444-142233.jpg,2898631359-142721.jpg,A1T90U2KNBZZR5_2022-11-24_10h30.26.864.csv
213,2.0,right,left,0.0,1.6788,0.0,33.0,33.0,33.0,1.0,2862700345-211776.jpg,2868475410-213219.jpg,A1T90U2KNBZZR5_2022-11-24_10h30.26.864.csv
214,3.0,left,left,1.0,1.2783,0.0,34.0,34.0,34.0,1.0,2238481198-19822.jpg,2901941438-69835.jpg,A1T90U2KNBZZR5_2022-11-24_10h30.26.864.csv
215,3.0,right,left,0.0,1.3427,0.0,35.0,35.0,35.0,1.0,2898625336-291572.jpg,2898624426-291546.jpg,A1T90U2KNBZZR5_2022-11-24_10h30.26.864.csv
216,2.0,left,left,1.0,1.4942,0.0,36.0,36.0,36.0,1.0,2986451363-73599.jpg,2238571930-184142.jpg,A1T90U2KNBZZR5_2022-11-24_10h30.26.864.csv
217,3.0,left,left,1.0,1.2743,0.0,37.0,37.0,37.0,1.0,2460547508-51571.jpg,2901941438-69836.jpg,A1T90U2KNBZZR5_2022-11-24_10h30.26.864.csv
218,3.0,left,right,0.0,1.3894,0.0,38.0,38.0,38.0,1.0,2864907432-362042.jpg,2898626395-216900.jpg,A1T90U2KNBZZR5_2022-11-24_10h30.26.864.csv
219,1.0,left,left,1.0,1.4482,0.0,39.0,39.0,39.0,1.0,2981231403-71642.jpg,2274829821-263682.jpg,A1T90U2KNBZZR5_2022-11-24_10h30.26.864.csv
220,2.0,right,right,1.0,1.6689,0.0,40.0,40.0,40.0,1.0,2864910427-362199.jpg,2898618390-216538.jpg,A1T90U2KNBZZR5_2022-11-24_10h30.26.864.csv
221,2.0,left,left,1.0,1.1875,0.0,41.0,41.0,41.0,1.0,2874301407-363895.jpg,2901949316-293452.jpg,A1T90U2KNBZZR5_2022-11-24_10h30.26.864.csv
222,1.0,right,left,0.0,1.6394,0.0,42.0,42.0,42.0,1.0,2452380171-273112.jpg,2449442529-124446.jpg,A1T90U2KNBZZR5_2022-11-24_10h30.26.864.csv
223,3.0,right,left,0.0,1.2443,0.0,43.0,43.0,43.0,1.0,2874301385-214137.jpg,2901947423-70311.jpg,A1T90U2KNBZZR5_2022-11-24_10h30.26.864.csv
224,2.0,left,left,1.0,1.4336,0.0,44.0,44.0,44.0,1.0,2898617468-68274.jpg,2238433340-164524.jpg,A1T90U2KNBZZR5_2022-11-24_10h30.26.864.csv
225,2.0,left,right,0.0,0.9666,0.0,45.0,45.0,45.0,1.0,2874302418-65979.jpg,2901939433-69673.jpg,A1T90U2KNBZZR5_2022-11-24_10h30.26.864.csv
226,3.0,left,left,1.0,1.5844,0.0,46.0,46.0,46.0,1.0,2883268412-365898.jpg,2862687418-62786.jpg,A1T90U2KNBZZR5_2022-11-24_10h30.26.864.csv
227,2.0,left,right,0.0,0.8789,0.0,47.0,47.0,47.0,1.0,2868474407-362883.jpg,2874305405-214397.jpg,A1T90U2KNBZZR5_2022-11-24_10h30.26.864.csv
228,3.0,right,right,1.0,1.3999,0.0,48.0,48.0,48.0,1.0,2898624426-291545.jpg,2898635427-367120.jpg,A1T90U2KNBZZR5_2022-11-24_10h30.26.864.csv
229,2.0,right,left,0.0,0.9123,0.0,49.0,49.0,49.0,1.0,2238482539-94244.jpg,2964216465-219242.jpg,A1T90U2KNBZZR5_2022-11-24_10h30.26.864.csv
230,2.0,left,right,0.0,0.8801,0.0,50.0,50.0,50.0,1.0,2512875899-126682.jpg,2238547107-328393.jpg,A1T90U2KNBZZR5_2022-11-24_10h30.26.864.csv
231,1.0,left,left,1.0,0.896,0.0,51.0,51.0,51.0,1.0,2901952513-70703.jpg,2864907361-287062.jpg,A1T90U2KNBZZR5_2022-11-24_10h30.26.864.csv
232,1.0,left,right,0.0,0.7907,0.0,52.0,52.0,52.0,1.0,2901939379-143479.jpg,2446759803-49251.jpg,A1T90U2KNBZZR5_2022-11-24_10h30.26.864.csv
233,1.0,right,left,0.0,0.8871,0.0,53.0,53.0,53.0,1.0,2446759803-49250.jpg,2898635428-69104.jpg,A1T90U2KNBZZR5_2022-11-24_10h30.26.864.csv
234,3.0,left,right,0.0,1.1101,0.0,54.0,54.0,54.0,1.0,2898634397-367080.jpg,2446759306-271735.jpg,A1T90U2KNBZZR5_2022-11-24_10h30.26.864.csv
235,3.0,right,left,0.0,0.8997,0.0,55.0,55.0,55.0,1.0,2898622392-366513.jpg,2452381505-199546.jpg,A1T90U2KNBZZR5_2022-11-24_10h30.26.864.csv
236,3.0,right,left,0.0,1.5027,0.0,56.0,56.0,56.0,1.0,2460547859-126142.jpg,2575120738-55529.jpg,A1T90U2KNBZZR5_2022-11-24_10h30.26.864.csv
237,3.0,left,left,1.0,1.4236,0.0,57.0,57.0,57.0,1.0,2964213381-294060.jpg,2883254439-140940.jpg,A1T90U2KNBZZR5_2022-11-24_10h30.26.864.csv
238,2.0,left,right,0.0,1.4569,0.0,58.0,58.0,58.0,1.0,2238580740-186218.jpg,2575121108-55628.jpg,A1T90U2KNBZZR5_2022-11-24_10h30.26.864.csv
239,3.0,right,left,0.0,1.8379,0.0,59.0,59.0,59.0,1.0,2424124794-120289.jpg,2874303365-214262.jpg,A1T90U2KNBZZR5_2022-11-24_10h30.26.864.csv
240,2.0,left,right,0.0,4.9381,0.0,0.0,0.0,0.0,1.0,2901952513-70703.jpg,2901949316-293454.jpg,A1VSEDABJFNUVQ_2022-11-24_10h31.40.849.csv
241,3.0,left,left,1.0,0.0097,0.0,1.0,1.0,1.0,1.0,2868474407-362883.jpg,2898634332-367068.jpg,A1VSEDABJFNUVQ_2022-11-24_10h31.40.849.csv
242,2.0,right,right,1.0,0.6791,0.0,2.0,2.0,2.0,1.0,2898617374-142166.jpg,2449441881-272368.jpg,A1VSEDABJFNUVQ_2022-11-24_10h31.40.849.csv
243,3.0,right,left,0.0,0.6649,0.0,3.0,3.0,3.0,1.0,2804906319-133082.jpg,2898618444-142233.jpg,A1VSEDABJFNUVQ_2022-11-24_10h31.40.849.csv
244,3.0,right,left,0.0,2.9713,0.0,4.0,4.0,4.0,1.0,2898632427-367006.jpg,2864910426-287204.jpg,A1VSEDABJFNUVQ_2022-11-24_10h31.40.849.csv
245,3.0,left,right,0.0,2.6118,0.0,5.0,5.0,5.0,1.0,2901941401-292798.jpg,2883273443-68192.jpg,A1VSEDABJFNUVQ_2022-11-24_10h31.40.849.csv
246,1.0,left,left,1.0,0.894,0.0,6.0,6.0,6.0,1.0,2874302418-65979.jpg,2413147898-43548.jpg,A1VSEDABJFNUVQ_2022-11-24_10h31.40.849.csv
247,1.0,left,right,0.0,1.8732,0.0,7.0,7.0,7.0,1.0,2964213381-294060.jpg,2981244394-145974.jpg,A1VSEDABJFNUVQ_2022-11-24_10h31.40.849.csv
248,1.0,left,right,0.0,0.8173,0.0,8.0,8.0,8.0,1.0,2592380177-354629.jpg,2898633421-291974.jpg,A1VSEDABJFNUVQ_2022-11-24_10h31.40.849.csv
249,3.0,left,left,1.0,1.0389,0.0,9.0,9.0,9.0,1.0,2964218374-144967.jpg,2898633476-291993.jpg,A1VSEDABJFNUVQ_2022-11-24_10h31.40.849.csv
250,3.0,left,left,1.0,0.8092,0.0,10.0,10.0,10.0,1.0,2874301407-363895.jpg,2989715317-371697.jpg,A1VSEDABJFNUVQ_2022-11-24_10h31.40.849.csv
251,3.0,right,right,1.0,1.0961,0.0,11.0,11.0,11.0,1.0,2901941438-69836.jpg,2460547508-51571.jpg,A1VSEDABJFNUVQ_2022-11-24_10h31.40.849.csv
252,3.0,right,left,0.0,0.1325,0.0,12.0,12.0,12.0,1.0,2460547859-126142.jpg,2575120738-55529.jpg,A1VSEDABJFNUVQ_2022-11-24_10h31.40.849.csv
253,1.0,left,left,1.0,0.7998,0.0,13.0,13.0,13.0,1.0,2238480677-317399.jpg,2238481630-168218.jpg,A1VSEDABJFNUVQ_2022-11-24_10h31.40.849.csv
254,3.0,left,right,0.0,0.6657,0.0,14.0,14.0,14.0,1.0,2449442529-124445.jpg,2901946439-144040.jpg,A1VSEDABJFNUVQ_2022-11-24_10h31.40.849.csv
255,3.0,left,left,1.0,0.8326,0.0,15.0,15.0,15.0,1.0,2864907432-362042.jpg,2898626395-216900.jpg,A1VSEDABJFNUVQ_2022-11-24_10h31.40.849.csv
256,2.0,right,left,0.0,0.5245,0.0,16.0,16.0,16.0,1.0,2238571930-184142.jpg,2986451363-73599.jpg,A1VSEDABJFNUVQ_2022-11-24_10h31.40.849.csv
257,1.0,right,left,0.0,0.1365,0.0,17.0,17.0,17.0,1.0,2238471391-240918.jpg,2238425482-313537.jpg,A1VSEDABJFNUVQ_2022-11-24_10h31.40.849.csv
258,1.0,left,left,1.0,0.1532,0.0,18.0,18.0,18.0,1.0,2452381505-199546.jpg,2901938432-367627.jpg,A1VSEDABJFNUVQ_2022-11-24_10h31.40.849.csv
259,1.0,left,right,0.0,0.5238,0.0,19.0,19.0,19.0,1.0,2238428357-313623.jpg,2238499057-320266.jpg,A1VSEDABJFNUVQ_2022-11-24_10h31.40.849.csv
260,2.0,left,right,0.0,0.1346,0.0,20.0,20.0,20.0,1.0,2898635428-69104.jpg,2864904390-212289.jpg,A1VSEDABJFNUVQ_2022-11-24_10h31.40.849.csv
261,1.0,right,right,1.0,0.1378,0.0,21.0,21.0,21.0,1.0,2868487415-213922.jpg,2901948350-218459.jpg,A1VSEDABJFNUVQ_2022-11-24_10h31.40.849.csv
262,2.0,left,left,1.0,0.5344,0.0,22.0,22.0,22.0,1.0,2238572663-35822.jpg,2984615361-295510.jpg,A1VSEDABJFNUVQ_2022-11-24_10h31.40.849.csv
263,1.0,left,left,1.0,1.542,0.0,23.0,23.0,23.0,1.0,2898624426-291546.jpg,2964207374-144577.jpg,A1VSEDABJFNUVQ_2022-11-24_10h31.40.849.csv
264,1.0,right,right,1.0,0.6516,0.0,24.0,24.0,24.0,1.0,2883268471-290843.jpg,2883268471-290842.jpg,A1VSEDABJFNUVQ_2022-11-24_10h31.40.849.csv
265,1.0,right,left,0.0,0.9042,0.0,25.0,25.0,25.0,1.0,2964224310-219528.jpg,2446759347-347016.jpg,A1VSEDABJFNUVQ_2022-11-24_10h31.40.849.csv
266,1.0,right,left,0.0,0.4364,0.0,26.0,26.0,26.0,1.0,2512876023-52283.jpg,2898633421-291973.jpg,A1VSEDABJFNUVQ_2022-11-24_10h31.40.849.csv
267,1.0,left,left,1.0,0.267,0.0,27.0,27.0,27.0,1.0,2981231403-71642.jpg,2274829821-263682.jpg,A1VSEDABJFNUVQ_2022-11-24_10h31.40.849.csv
268,2.0,right,left,0.0,0.6638,0.0,28.0,28.0,28.0,1.0,2238482539-94244.jpg,2964216465-219242.jpg,A1VSEDABJFNUVQ_2022-11-24_10h31.40.849.csv
269,2.0,left,left,1.0,0.382,0.0,29.0,29.0,29.0,1.0,2874307433-66280.jpg,2864900357-361688.jpg,A1VSEDABJFNUVQ_2022-11-24_10h31.40.849.csv
270,2.0,left,left,1.0,0.5522,0.0,30.0,30.0,30.0,1.0,2446758985-197609.jpg,2452380166-273110.jpg,A1VSEDABJFNUVQ_2022-11-24_10h31.40.849.csv
271,2.0,left,left,1.0,0.1492,0.0,31.0,31.0,31.0,1.0,2449442529-124446.jpg,2964216376-294181.jpg,A1VSEDABJFNUVQ_2022-11-24_10h31.40.849.csv
272,3.0,right,right,1.0,0.7823,0.0,32.0,32.0,32.0,1.0,2424124794-120289.jpg,2874303365-214262.jpg,A1VSEDABJFNUVQ_2022-11-24_10h31.40.849.csv
273,2.0,right,left,0.0,0.5396,0.0,33.0,33.0,33.0,1.0,2984615358-72439.jpg,2883268412-365898.jpg,A1VSEDABJFNUVQ_2022-11-24_10h31.40.849.csv
274,3.0,right,left,0.0,1.3797,0.0,34.0,34.0,34.0,1.0,2446760844-124088.jpg,2446759803-49249.jpg,A1VSEDABJFNUVQ_2022-11-24_10h31.40.849.csv
275,3.0,left,right,0.0,0.8197,0.0,35.0,35.0,35.0,1.0,2898617468-68274.jpg,2981243399-145923.jpg,A1VSEDABJFNUVQ_2022-11-24_10h31.40.849.csv
276,3.0,left,right,0.0,1.7151,0.0,36.0,36.0,36.0,1.0,2460547467-349421.jpg,2898619327-366362.jpg,A1VSEDABJFNUVQ_2022-11-24_10h31.40.849.csv
277,1.0,left,left,1.0,0.8362,0.0,37.0,37.0,37.0,1.0,2883256307-365057.jpg,2611628310-206388.jpg,A1VSEDABJFNUVQ_2022-11-24_10h31.40.849.csv
278,2.0,left,left,1.0,2.9484,0.0,38.0,38.0,38.0,1.0,2592379964-131054.jpg,2427875694-122097.jpg,A1VSEDABJFNUVQ_2022-11-24_10h31.40.849.csv
279,2.0,right,left,0.0,1.0764,0.0,39.0,39.0,39.0,1.0,2238577555-185462.jpg,2874302418-65978.jpg,A1VSEDABJFNUVQ_2022-11-24_10h31.40.849.csv
280,2.0,right,right,1.0,2.3728,0.0,40.0,40.0,40.0,1.0,2862700345-211776.jpg,2868475410-213219.jpg,A1VSEDABJFNUVQ_2022-11-24_10h31.40.849.csv
281,1.0,left,left,1.0,0.9462,0.0,41.0,41.0,41.0,1.0,2901939379-143479.jpg,2446759803-49251.jpg,A1VSEDABJFNUVQ_2022-11-24_10h31.40.849.csv
282,3.0,left,left,1.0,2.3792,0.0,42.0,42.0,42.0,1.0,2898618390-216538.jpg,2238574968-36441.jpg,A1VSEDABJFNUVQ_2022-11-24_10h31.40.849.csv
283,3.0,right,left,0.0,0.9722,0.0,43.0,43.0,43.0,1.0,2579432708-56392.jpg,2592380177-354626.jpg,A1VSEDABJFNUVQ_2022-11-24_10h31.40.849.csv
284,2.0,right,left,0.0,5.4114,0.0,44.0,44.0,44.0,1.0,2238571930-184143.jpg,2874299429-139695.jpg,A1VSEDABJFNUVQ_2022-11-24_10h31.40.849.csv
285,1.0,left,left,1.0,3.6434,0.0,45.0,45.0,45.0,1.0,2238481198-19822.jpg,2864908448-64141.jpg,A1VSEDABJFNUVQ_2022-11-24_10h31.40.849.csv
286,3.0,right,left,0.0,2.148,0.0,46.0,46.0,46.0,1.0,2446759306-271735.jpg,2898634397-367080.jpg,A1VSEDABJFNUVQ_2022-11-24_10h31.40.849.csv
287,1.0,right,left,0.0,2.0354,0.0,47.0,47.0,47.0,1.0,2898618440-216545.jpg,2512875899-126682.jpg,A1VSEDABJFNUVQ_2022-11-24_10h31.40.849.csv
288,1.0,right,left,0.0,2.9086,0.0,48.0,48.0,48.0,1.0,2981229442-369621.jpg,2901939379-143480.jpg,A1VSEDABJFNUVQ_2022-11-24_10h31.40.849.csv
289,1.0,right,left,0.0,2.4792,0.0,49.0,49.0,49.0,1.0,2860312398-62572.jpg,2901947423-70311.jpg,A1VSEDABJFNUVQ_2022-11-24_10h31.40.849.csv
290,2.0,right,right,1.0,0.5504,0.0,50.0,50.0,50.0,1.0,2989726338-74002.jpg,2238481928-19949.jpg,A1VSEDABJFNUVQ_2022-11-24_10h31.40.849.csv
291,2.0,right,right,1.0,0.4456,0.0,51.0,51.0,51.0,1.0,2238467949-92250.jpg,2238560245-182099.jpg,A1VSEDABJFNUVQ_2022-11-24_10h31.40.849.csv
292,2.0,right,right,1.0,0.2986,0.0,52.0,52.0,52.0,1.0,2575121108-55628.jpg,2238580740-186218.jpg,A1VSEDABJFNUVQ_2022-11-24_10h31.40.849.csv
293,2.0,right,left,0.0,0.491,0.0,53.0,53.0,53.0,1.0,2460548070-200336.jpg,2883254439-140941.jpg,A1VSEDABJFNUVQ_2022-11-24_10h31.40.849.csv
294,2.0,left,left,1.0,0.2447,0.0,54.0,54.0,54.0,1.0,2898635427-367120.jpg,2449442621-272561.jpg,A1VSEDABJFNUVQ_2022-11-24_10h31.40.849.csv
295,1.0,left,right,0.0,0.0101,0.0,55.0,55.0,55.0,1.0,2460547467-349422.jpg,2898631394-142727.jpg,A1VSEDABJFNUVQ_2022-11-24_10h31.40.849.csv
296,2.0,left,left,1.0,0.424,0.0,56.0,56.0,56.0,1.0,2458347385-199723.jpg,2512875824-126658.jpg,A1VSEDABJFNUVQ_2022-11-24_10h31.40.849.csv
297,3.0,left,right,0.0,0.2686,0.0,57.0,57.0,57.0,1.0,2964223381-294447.jpg,2901938432-367628.jpg,A1VSEDABJFNUVQ_2022-11-24_10h31.40.849.csv
298,3.0,left,left,1.0,0.1315,0.0,58.0,58.0,58.0,1.0,2452380832-348593.jpg,2237856283-1014.jpg,A1VSEDABJFNUVQ_2022-11-24_10h31.40.849.csv
299,3.0,right,right,1.0,0.2676,0.0,59.0,59.0,59.0,1.0,2238427023-15948.jpg,2981241414-145842.jpg,A1VSEDABJFNUVQ_2022-11-24_10h31.40.849.csv
300,1.0,right,left,0.0,1.5592,0.0,0.0,0.0,0.0,1.0,2883268471-290843.jpg,2883268471-290842.jpg,A3EFT5ETMGRUC2_2022-11-24_10h38.21.210.csv
301,3.0,left,right,0.0,1.8129,0.0,1.0,1.0,1.0,1.0,2452381505-199546.jpg,2898622392-366513.jpg,A3EFT5ETMGRUC2_2022-11-24_10h38.21.210.csv
302,2.0,right,right,1.0,1.833599999,0.0,2.0,2.0,2.0,1.0,2238482539-94244.jpg,2964216465-219242.jpg,A3EFT5ETMGRUC2_2022-11-24_10h38.21.210.csv
303,3.0,left,left,1.0,2.2156,0.0,3.0,3.0,3.0,1.0,2446758985-197609.jpg,2238087237-303447.jpg,A3EFT5ETMGRUC2_2022-11-24_10h38.21.210.csv
304,3.0,right,right,1.0,1.451900001,0.0,4.0,4.0,4.0,1.0,2901933403-69214.jpg,2901939379-143480.jpg,A3EFT5ETMGRUC2_2022-11-24_10h38.21.210.csv
305,3.0,right,left,0.0,1.4966,0.0,5.0,5.0,5.0,1.0,2238427023-15948.jpg,2981241414-145842.jpg,A3EFT5ETMGRUC2_2022-11-24_10h38.21.210.csv
306,1.0,left,right,0.0,1.2536,0.0,6.0,6.0,6.0,1.0,2874307433-66280.jpg,2986447306-296584.jpg,A3EFT5ETMGRUC2_2022-11-24_10h38.21.210.csv
307,3.0,right,left,0.0,1.2443,0.0,7.0,7.0,7.0,1.0,2898624426-291545.jpg,2898635427-367120.jpg,A3EFT5ETMGRUC2_2022-11-24_10h38.21.210.csv
308,1.0,right,left,0.0,1.5788,0.0,8.0,8.0,8.0,1.0,2901946465-218350.jpg,2868475410-213219.jpg,A3EFT5ETMGRUC2_2022-11-24_10h38.21.210.csv
309,2.0,right,right,1.0,1.495,0.0,9.0,9.0,9.0,1.0,2238515978-25479.jpg,2452380832-348593.jpg,A3EFT5ETMGRUC2_2022-11-24_10h38.21.210.csv
310,1.0,left,left,1.0,1.218099999,0.0,10.0,10.0,10.0,1.0,2898633421-291973.jpg,2512876023-52283.jpg,A3EFT5ETMGRUC2_2022-11-24_10h38.21.210.csv
311,1.0,left,right,0.0,1.4167,0.0,11.0,11.0,11.0,1.0,2592380177-354626.jpg,2986408339-146952.jpg,A3EFT5ETMGRUC2_2022-11-24_10h38.21.210.csv
312,2.0,left,right,0.0,1.469200001,0.0,12.0,12.0,12.0,1.0,2883268412-365898.jpg,2984615358-72439.jpg,A3EFT5ETMGRUC2_2022-11-24_10h38.21.210.csv
313,1.0,right,right,1.0,1.368599999,0.0,13.0,13.0,13.0,1.0,2413147898-43548.jpg,2874302418-65979.jpg,A3EFT5ETMGRUC2_2022-11-24_10h38.21.210.csv
314,1.0,right,left,0.0,1.3666,0.0,14.0,14.0,14.0,1.0,2864901420-212147.jpg,2864907432-362042.jpg,A3EFT5ETMGRUC2_2022-11-24_10h38.21.210.csv
315,3.0,left,left,1.0,1.3647,0.0,15.0,15.0,15.0,1.0,2964218374-144967.jpg,2898633476-291993.jpg,A3EFT5ETMGRUC2_2022-11-24_10h38.21.210.csv
316,3.0,left,left,1.0,1.4627,0.0,16.0,16.0,16.0,1.0,2238481928-19949.jpg,2864910427-362200.jpg,A3EFT5ETMGRUC2_2022-11-24_10h38.21.210.csv
317,1.0,left,left,1.0,1.2414,0.0,17.0,17.0,17.0,1.0,2238428357-313623.jpg,2238499057-320266.jpg,A3EFT5ETMGRUC2_2022-11-24_10h38.21.210.csv
318,3.0,right,right,1.0,1.473599999,0.0,18.0,18.0,18.0,1.0,2446759306-271734.jpg,2901939379-143479.jpg,A3EFT5ETMGRUC2_2022-11-24_10h38.21.210.csv
319,2.0,right,left,0.0,1.6056,0.0,19.0,19.0,19.0,1.0,2512875824-126658.jpg,2458347385-199723.jpg,A3EFT5ETMGRUC2_2022-11-24_10h38.21.210.csv
320,1.0,right,right,1.0,1.6581,0.0,20.0,20.0,20.0,1.0,2901939327-367669.jpg,2986451363-73599.jpg,A3EFT5ETMGRUC2_2022-11-24_10h38.21.210.csv
321,1.0,left,left,1.0,1.467,0.0,21.0,21.0,21.0,1.0,2874303365-214262.jpg,2609793677-355397.jpg,A3EFT5ETMGRUC2_2022-11-24_10h38.21.210.csv
322,3.0,left,left,1.0,2.0004,0.0,22.0,22.0,22.0,1.0,2238580740-186218.jpg,2874312404-140477.jpg,A3EFT5ETMGRUC2_2022-11-24_10h38.21.210.csv
323,1.0,left,left,1.0,1.482299999,0.0,23.0,23.0,23.0,1.0,2898617468-68274.jpg,2864906345-212360.jpg,A3EFT5ETMGRUC2_2022-11-24_10h38.21.210.csv
324,1.0,left,left,1.0,1.423,0.0,24.0,24.0,24.0,1.0,2901948350-218459.jpg,2868487415-213922.jpg,A3EFT5ETMGRUC2_2022-11-24_10h38.21.210.csv
325,3.0,left,left,1.0,1.642,0.0,25.0,25.0,25.0,1.0,2864910426-287204.jpg,2898632427-367006.jpg,A3EFT5ETMGRUC2_2022-11-24_10h38.21.210.csv
326,3.0,right,left,0.0,1.5048,0.0,26.0,26.0,26.0,1.0,2864901352-361731.jpg,2238425482-313537.jpg,A3EFT5ETMGRUC2_2022-11-24_10h38.21.210.csv
327,2.0,right,right,1.0,1.4971,0.0,27.0,27.0,27.0,1.0,2238467949-92250.jpg,2238560245-182099.jpg,A3EFT5ETMGRUC2_2022-11-24_10h38.21.210.csv
328,1.0,left,right,0.0,1.5514,0.0,28.0,28.0,28.0,1.0,2449441881-272368.jpg,2984615361-295509.jpg,A3EFT5ETMGRUC2_2022-11-24_10h38.21.210.csv
329,3.0,right,left,0.0,1.384,0.0,29.0,29.0,29.0,1.0,2901938432-367628.jpg,2964223381-294447.jpg,A3EFT5ETMGRUC2_2022-11-24_10h38.21.210.csv
330,2.0,right,right,1.0,1.6203,0.0,30.0,30.0,30.0,1.0,2901949316-293454.jpg,2901952513-70703.jpg,A3EFT5ETMGRUC2_2022-11-24_10h38.21.210.csv
331,3.0,left,left,1.0,1.616099999,0.0,31.0,31.0,31.0,1.0,2238572663-35822.jpg,2238375825-162206.jpg,A3EFT5ETMGRUC2_2022-11-24_10h38.21.210.csv
332,3.0,right,right,1.0,1.711099999,0.0,32.0,32.0,32.0,1.0,2512875899-126681.jpg,2512875899-126682.jpg,A3EFT5ETMGRUC2_2022-11-24_10h38.21.210.csv
333,3.0,right,left,0.0,1.715,0.0,33.0,33.0,33.0,1.0,2238574968-36441.jpg,2898618390-216538.jpg,A3EFT5ETMGRUC2_2022-11-24_10h38.21.210.csv
334,2.0,right,left,0.0,1.4665,0.0,34.0,34.0,34.0,1.0,2898626395-216901.jpg,2898624426-291546.jpg,A3EFT5ETMGRUC2_2022-11-24_10h38.21.210.csv
335,2.0,left,left,1.0,1.4648,0.0,35.0,35.0,35.0,1.0,2460547467-349421.jpg,2981235446-294901.jpg,A3EFT5ETMGRUC2_2022-11-24_10h38.21.210.csv
336,2.0,right,left,0.0,1.6782,0.0,36.0,36.0,36.0,1.0,2238571930-184143.jpg,2874299429-139695.jpg,A3EFT5ETMGRUC2_2022-11-24_10h38.21.210.csv
337,1.0,right,right,1.0,1.7022,0.0,37.0,37.0,37.0,1.0,2883264368-67631.jpg,2874301407-363895.jpg,A3EFT5ETMGRUC2_2022-11-24_10h38.21.210.csv
338,2.0,left,left,1.0,1.5197,0.0,38.0,38.0,38.0,1.0,2883254439-140941.jpg,2460548070-200336.jpg,A3EFT5ETMGRUC2_2022-11-24_10h38.21.210.csv
339,3.0,left,left,1.0,1.6944,0.0,39.0,39.0,39.0,1.0,2964213381-294060.jpg,2883254439-140940.jpg,A3EFT5ETMGRUC2_2022-11-24_10h38.21.210.csv
340,2.0,left,left,1.0,1.578,0.0,40.0,40.0,40.0,1.0,2449442529-124445.jpg,2901948476-293423.jpg,A3EFT5ETMGRUC2_2022-11-24_10h38.21.210.csv
341,1.0,right,left,0.0,1.5858,0.0,41.0,41.0,41.0,1.0,2238481630-168218.jpg,2238480677-317399.jpg,A3EFT5ETMGRUC2_2022-11-24_10h38.21.210.csv
342,1.0,right,right,1.0,1.4657,0.0,42.0,42.0,42.0,1.0,2446760917-347439.jpg,2460547508-51571.jpg,A3EFT5ETMGRUC2_2022-11-24_10h38.21.210.csv
343,3.0,right,left,0.0,1.5869,0.0,43.0,43.0,43.0,1.0,2901942428-69919.jpg,2898635428-69104.jpg,A3EFT5ETMGRUC2_2022-11-24_10h38.21.210.csv
344,3.0,right,right,1.0,2.2401,0.0,44.0,44.0,44.0,1.0,2804906319-133082.jpg,2898618444-142233.jpg,A3EFT5ETMGRUC2_2022-11-24_10h38.21.210.csv
345,1.0,left,left,1.0,1.3397,0.0,45.0,45.0,45.0,1.0,2868474407-362883.jpg,2238516618-25604.jpg,A3EFT5ETMGRUC2_2022-11-24_10h38.21.210.csv
346,2.0,left,left,1.0,2.1841,0.0,46.0,46.0,46.0,1.0,2592380177-354629.jpg,2901945495-218294.jpg,A3EFT5ETMGRUC2_2022-11-24_10h38.21.210.csv
347,1.0,left,left,1.0,1.5616,0.0,47.0,47.0,47.0,1.0,2238481198-19822.jpg,2864908448-64141.jpg,A3EFT5ETMGRUC2_2022-11-24_10h38.21.210.csv
348,2.0,right,left,0.0,1.7983,0.0,48.0,48.0,48.0,1.0,2901946413-70227.jpg,2575120738-55529.jpg,A3EFT5ETMGRUC2_2022-11-24_10h38.21.210.csv
349,2.0,right,left,0.0,1.6678,0.0,49.0,49.0,49.0,1.0,2989721311-296963.jpg,2460547467-349422.jpg,A3EFT5ETMGRUC2_2022-11-24_10h38.21.210.csv
350,3.0,right,left,0.0,1.587599999,0.0,50.0,50.0,50.0,1.0,2238567130-183315.jpg,2874302418-65978.jpg,A3EFT5ETMGRUC2_2022-11-24_10h38.21.210.csv
351,1.0,right,left,0.0,2.1307,0.0,51.0,51.0,51.0,1.0,2452380171-273112.jpg,2449442529-124446.jpg,A3EFT5ETMGRUC2_2022-11-24_10h38.21.210.csv
352,2.0,left,left,1.0,1.9656,0.0,52.0,52.0,52.0,1.0,2981231403-71642.jpg,2864900358-63717.jpg,A3EFT5ETMGRUC2_2022-11-24_10h38.21.210.csv
353,2.0,right,left,0.0,1.6384,0.0,53.0,53.0,53.0,1.0,2446759065-197639.jpg,2901947423-70311.jpg,A3EFT5ETMGRUC2_2022-11-24_10h38.21.210.csv
354,2.0,right,left,0.0,1.3989,0.0,54.0,54.0,54.0,1.0,2864904415-212294.jpg,2446759347-347016.jpg,A3EFT5ETMGRUC2_2022-11-24_10h38.21.210.csv
355,2.0,left,right,0.0,1.519599999,0.0,55.0,55.0,55.0,1.0,2898634397-367080.jpg,2898636423-69152.jpg,A3EFT5ETMGRUC2_2022-11-24_10h38.21.210.csv
356,1.0,right,right,1.0,1.2558,0.0,56.0,56.0,56.0,1.0,2238577590-185467.jpg,2901941401-292798.jpg,A3EFT5ETMGRUC2_2022-11-24_10h38.21.210.csv
357,3.0,right,right,1.0,1.407599999,0.0,57.0,57.0,57.0,1.0,2424122686-268072.jpg,2592379964-131054.jpg,A3EFT5ETMGRUC2_2022-11-24_10h38.21.210.csv
358,2.0,left,left,1.0,1.3782,0.0,58.0,58.0,58.0,1.0,2883256307-365057.jpg,2864901420-212148.jpg,A3EFT5ETMGRUC2_2022-11-24_10h38.21.210.csv
359,2.0,left,left,1.0,1.4625,0.0,59.0,59.0,59.0,1.0,2446759803-49249.jpg,2238499155-170911.jpg,A3EFT5ETMGRUC2_2022-11-24_10h38.21.210.csv
360,1.0,left,right,0.0,3.6657,0.0,0.0,0.0,0.0,1.0,2460547508-51571.jpg,2446760917-347439.jpg,A3HZFB2JLF3JMY_2022-11-24_10h28.21.791.csv
361,3.0,left,left,1.0,2.1041,0.0,1.0,1.0,1.0,1.0,2452381505-199546.jpg,2898622392-366513.jpg,A3HZFB2JLF3JMY_2022-11-24_10h28.21.791.csv
362,2.0,left,left,1.0,2.6638,0.0,2.0,2.0,2.0,1.0,2898634397-367080.jpg,2898636423-69152.jpg,A3HZFB2JLF3JMY_2022-11-24_10h28.21.791.csv
363,3.0,right,right,1.0,4.5413,0.0,3.0,3.0,3.0,1.0,2864910427-362200.jpg,2238481928-19949.jpg,A3HZFB2JLF3JMY_2022-11-24_10h28.21.791.csv
364,3.0,right,right,1.0,1.4915,0.0,4.0,4.0,4.0,1.0,2981231403-71641.jpg,2964216465-219242.jpg,A3HZFB2JLF3JMY_2022-11-24_10h28.21.791.csv
365,3.0,left,left,1.0,3.8566,0.0,5.0,5.0,5.0,1.0,2238580740-186218.jpg,2874312404-140477.jpg,A3HZFB2JLF3JMY_2022-11-24_10h28.21.791.csv
366,1.0,right,left,0.0,3.6485,0.0,6.0,6.0,6.0,1.0,2864902304-137862.jpg,2864910426-287204.jpg,A3HZFB2JLF3JMY_2022-11-24_10h28.21.791.csv
367,3.0,left,left,1.0,2.3652,0.0,7.0,7.0,7.0,1.0,2898617468-68274.jpg,2981243399-145923.jpg,A3HZFB2JLF3JMY_2022-11-24_10h28.21.791.csv
368,2.0,left,left,1.0,3.6083,0.0,8.0,8.0,8.0,1.0,2898618444-142233.jpg,2862691449-137104.jpg,A3HZFB2JLF3JMY_2022-11-24_10h28.21.791.csv
369,3.0,left,right,0.0,2.2426,0.0,9.0,9.0,9.0,1.0,2868475410-213219.jpg,2238558380-181702.jpg,A3HZFB2JLF3JMY_2022-11-24_10h28.21.791.csv
370,3.0,right,left,0.0,2.7095,0.0,10.0,10.0,10.0,1.0,2238574878-36413.jpg,2981231403-71642.jpg,A3HZFB2JLF3JMY_2022-11-24_10h28.21.791.csv
371,2.0,left,left,1.0,2.7636,0.0,11.0,11.0,11.0,1.0,2238481198-19822.jpg,2862689306-285912.jpg,A3HZFB2JLF3JMY_2022-11-24_10h28.21.791.csv
372,1.0,right,right,1.0,2.1248,0.0,12.0,12.0,12.0,1.0,2452380166-273109.jpg,2449442529-124445.jpg,A3HZFB2JLF3JMY_2022-11-24_10h28.21.791.csv
373,2.0,left,left,1.0,2.0488,0.0,13.0,13.0,13.0,1.0,2452380832-348593.jpg,2238515978-25479.jpg,A3HZFB2JLF3JMY_2022-11-24_10h28.21.791.csv
374,1.0,left,left,1.0,2.5044,0.0,14.0,14.0,14.0,1.0,2592380177-354629.jpg,2898633421-291974.jpg,A3HZFB2JLF3JMY_2022-11-24_10h28.21.791.csv
375,1.0,right,left,0.0,1.6587,0.0,15.0,15.0,15.0,1.0,2238550049-105691.jpg,2898618390-216538.jpg,A3HZFB2JLF3JMY_2022-11-24_10h28.21.791.csv
376,3.0,right,right,1.0,2.2549,0.0,16.0,16.0,16.0,1.0,2238375825-162206.jpg,2238572663-35822.jpg,A3HZFB2JLF3JMY_2022-11-24_10h28.21.791.csv
377,1.0,left,left,1.0,2.3057,0.0,17.0,17.0,17.0,1.0,2512875899-126682.jpg,2898618440-216545.jpg,A3HZFB2JLF3JMY_2022-11-24_10h28.21.791.csv
378,2.0,right,right,1.0,1.364,0.0,18.0,18.0,18.0,1.0,2989721311-296963.jpg,2460547467-349422.jpg,A3HZFB2JLF3JMY_2022-11-24_10h28.21.791.csv
379,2.0,left,left,1.0,4.1088,0.0,19.0,19.0,19.0,1.0,2868474407-362883.jpg,2874305405-214397.jpg,A3HZFB2JLF3JMY_2022-11-24_10h28.21.791.csv
380,2.0,left,left,1.0,2.5909,0.0,20.0,20.0,20.0,1.0,2460547467-349421.jpg,2981235446-294901.jpg,A3HZFB2JLF3JMY_2022-11-24_10h28.21.791.csv
381,1.0,left,left,1.0,1.4779,0.0,21.0,21.0,21.0,1.0,2449442529-124446.jpg,2452380171-273112.jpg,A3HZFB2JLF3JMY_2022-11-24_10h28.21.791.csv
382,2.0,left,left,1.0,1.056,0.0,22.0,22.0,22.0,1.0,2898624426-291546.jpg,2898626395-216901.jpg,A3HZFB2JLF3JMY_2022-11-24_10h28.21.791.csv
383,2.0,right,left,0.0,2.087,0.0,23.0,23.0,23.0,1.0,2864904390-212289.jpg,2898635428-69104.jpg,A3HZFB2JLF3JMY_2022-11-24_10h28.21.791.csv
384,3.0,left,right,0.0,2.6895,0.0,24.0,24.0,24.0,1.0,2986451363-73599.jpg,2898630381-291834.jpg,A3HZFB2JLF3JMY_2022-11-24_10h28.21.791.csv
385,2.0,left,left,1.0,2.3648,0.0,25.0,25.0,25.0,1.0,2592380177-354626.jpg,2238360787-310962.jpg,A3HZFB2JLF3JMY_2022-11-24_10h28.21.791.csv
386,2.0,left,left,1.0,1.9475,0.0,26.0,26.0,26.0,1.0,2449441881-272368.jpg,2898617374-142166.jpg,A3HZFB2JLF3JMY_2022-11-24_10h28.21.791.csv
387,1.0,left,left,1.0,4.0217,0.0,27.0,27.0,27.0,1.0,2883256307-365057.jpg,2611628310-206388.jpg,A3HZFB2JLF3JMY_2022-11-24_10h28.21.791.csv
388,1.0,left,right,0.0,1.7691,0.0,28.0,28.0,28.0,1.0,2238428357-313623.jpg,2238499057-320266.jpg,A3HZFB2JLF3JMY_2022-11-24_10h28.21.791.csv
389,1.0,left,left,1.0,1.8778,0.0,29.0,29.0,29.0,1.0,2874299429-139695.jpg,2883266388-67750.jpg,A3HZFB2JLF3JMY_2022-11-24_10h28.21.791.csv
390,1.0,right,left,0.0,3.2034,0.0,30.0,30.0,30.0,1.0,2512876023-52283.jpg,2898633421-291973.jpg,A3HZFB2JLF3JMY_2022-11-24_10h28.21.791.csv
391,1.0,left,left,1.0,1.9106,0.0,31.0,31.0,31.0,1.0,2446759803-49249.jpg,2446760601-272099.jpg,A3HZFB2JLF3JMY_2022-11-24_10h28.21.791.csv
392,3.0,right,left,0.0,3.2464,0.0,32.0,32.0,32.0,1.0,2864901352-361731.jpg,2238425482-313537.jpg,A3HZFB2JLF3JMY_2022-11-24_10h28.21.791.csv
393,2.0,left,left,1.0,1.3172,0.0,33.0,33.0,33.0,1.0,2901952513-70703.jpg,2901949316-293454.jpg,A3HZFB2JLF3JMY_2022-11-24_10h28.21.791.csv
394,2.0,right,right,1.0,2.0866,0.0,34.0,34.0,34.0,1.0,2238577555-185462.jpg,2874302418-65978.jpg,A3HZFB2JLF3JMY_2022-11-24_10h28.21.791.csv
395,1.0,right,right,1.0,2.1041,0.0,35.0,35.0,35.0,1.0,2964224310-219528.jpg,2446759347-347016.jpg,A3HZFB2JLF3JMY_2022-11-24_10h28.21.791.csv
396,2.0,left,left,1.0,4.0785,0.0,36.0,36.0,36.0,1.0,2238560245-182099.jpg,2238467949-92250.jpg,A3HZFB2JLF3JMY_2022-11-24_10h28.21.791.csv
397,3.0,left,right,0.0,4.542,0.0,37.0,37.0,37.0,1.0,2874301407-363895.jpg,2989715317-371697.jpg,A3HZFB2JLF3JMY_2022-11-24_10h28.21.791.csv
398,3.0,left,right,0.0,1.3678,0.0,38.0,38.0,38.0,1.0,2901947423-70311.jpg,2874301385-214137.jpg,A3HZFB2JLF3JMY_2022-11-24_10h28.21.791.csv
399,3.0,right,right,1.0,1.4872,0.0,39.0,39.0,39.0,1.0,2446759396-271761.jpg,2874307433-66280.jpg,A3HZFB2JLF3JMY_2022-11-24_10h28.21.791.csv
400,1.0,right,left,0.0,6.3827,0.0,40.0,40.0,40.0,1.0,2964218374-144968.jpg,2964218374-144967.jpg,A3HZFB2JLF3JMY_2022-11-24_10h28.21.791.csv
401,1.0,right,left,0.0,3.5831,0.0,41.0,41.0,41.0,1.0,2964221435-219434.jpg,2898635427-367120.jpg,A3HZFB2JLF3JMY_2022-11-24_10h28.21.791.csv
402,1.0,left,right,0.0,3.8828,0.0,42.0,42.0,42.0,1.0,2458347385-199723.jpg,2238480434-93829.jpg,A3HZFB2JLF3JMY_2022-11-24_10h28.21.791.csv
403,3.0,left,left,1.0,4.0591,0.0,43.0,43.0,43.0,1.0,2981241414-145842.jpg,2238427023-15948.jpg,A3HZFB2JLF3JMY_2022-11-24_10h28.21.791.csv
404,1.0,right,left,0.0,1.7638,0.0,44.0,44.0,44.0,1.0,2898632385-217137.jpg,2575120738-55529.jpg,A3HZFB2JLF3JMY_2022-11-24_10h28.21.791.csv
405,1.0,left,right,0.0,4.1046,0.0,45.0,45.0,45.0,1.0,2901941401-292798.jpg,2238577590-185467.jpg,A3HZFB2JLF3JMY_2022-11-24_10h28.21.791.csv
406,3.0,left,left,1.0,2.1455,0.0,46.0,46.0,46.0,1.0,2874302418-65979.jpg,2238470808-18373.jpg,A3HZFB2JLF3JMY_2022-11-24_10h28.21.791.csv
407,3.0,left,right,0.0,1.8266,0.0,47.0,47.0,47.0,1.0,2901939379-143480.jpg,2901933403-69214.jpg,A3HZFB2JLF3JMY_2022-11-24_10h28.21.791.csv
408,3.0,right,left,0.0,2.3064,0.0,48.0,48.0,48.0,1.0,2901938432-367628.jpg,2964223381-294447.jpg,A3HZFB2JLF3JMY_2022-11-24_10h28.21.791.csv
409,2.0,right,right,1.0,3.0744,0.0,49.0,49.0,49.0,1.0,2512875685-200826.jpg,2874303365-214262.jpg,A3HZFB2JLF3JMY_2022-11-24_10h28.21.791.csv
410,3.0,right,right,1.0,1.6527,0.0,50.0,50.0,50.0,1.0,2238087237-303447.jpg,2446758985-197609.jpg,A3HZFB2JLF3JMY_2022-11-24_10h28.21.791.csv
411,2.0,right,right,1.0,1.6916,0.0,51.0,51.0,51.0,1.0,2901938398-69594.jpg,2901939379-143479.jpg,A3HZFB2JLF3JMY_2022-11-24_10h28.21.791.csv
412,2.0,left,right,0.0,1.2163,0.0,52.0,52.0,52.0,1.0,2901948350-218459.jpg,2898629328-68806.jpg,A3HZFB2JLF3JMY_2022-11-24_10h28.21.791.csv
413,3.0,left,right,0.0,1.1602,0.0,53.0,53.0,53.0,1.0,2964213381-294060.jpg,2883254439-140940.jpg,A3HZFB2JLF3JMY_2022-11-24_10h28.21.791.csv
414,3.0,left,left,1.0,4.0848,0.0,54.0,54.0,54.0,1.0,2592379964-131054.jpg,2424122686-268072.jpg,A3HZFB2JLF3JMY_2022-11-24_10h28.21.791.csv
415,2.0,left,right,0.0,1.1609,0.0,55.0,55.0,55.0,1.0,2883268471-290842.jpg,2898623398-68538.jpg,A3HZFB2JLF3JMY_2022-11-24_10h28.21.791.csv
416,2.0,left,left,1.0,1.0723,0.0,56.0,56.0,56.0,1.0,2883254439-140941.jpg,2460548070-200336.jpg,A3HZFB2JLF3JMY_2022-11-24_10h28.21.791.csv
417,2.0,left,right,0.0,2.3438,0.0,57.0,57.0,57.0,1.0,2864907432-362042.jpg,2883264367-365621.jpg,A3HZFB2JLF3JMY_2022-11-24_10h28.21.791.csv
418,1.0,left,right,0.0,2.0041,0.0,58.0,58.0,58.0,1.0,2238480677-317399.jpg,2238481630-168218.jpg,A3HZFB2JLF3JMY_2022-11-24_10h28.21.791.csv
419,1.0,left,right,0.0,1.5971,0.0,59.0,59.0,59.0,1.0,2883268412-365898.jpg,2984626312-370849.jpg,A3HZFB2JLF3JMY_2022-11-24_10h28.21.791.csv
420,1.0,left,right,0.0,2.7152,0.0,0.0,0.0,0.0,1.0,2901939379-143480.jpg,2981229442-369621.jpg,AE9KNJZWDCDSE_2022-11-24_10h25.25.804.csv
421,3.0,right,left,0.0,1.5907,0.0,1.0,1.0,1.0,1.0,2901943480-218116.jpg,2238560245-182099.jpg,AE9KNJZWDCDSE_2022-11-24_10h25.25.804.csv
422,2.0,right,right,1.0,1.8344,0.0,2.0,2.0,2.0,1.0,2598726160-205998.jpg,2964213381-294060.jpg,AE9KNJZWDCDSE_2022-11-24_10h25.25.804.csv
423,1.0,right,left,0.0,1.9949,0.0,3.0,3.0,3.0,1.0,2883264367-365620.jpg,2238481928-19949.jpg,AE9KNJZWDCDSE_2022-11-24_10h25.25.804.csv
424,1.0,left,left,1.0,1.7183,0.0,4.0,4.0,4.0,1.0,2592380177-354626.jpg,2986408339-146952.jpg,AE9KNJZWDCDSE_2022-11-24_10h25.25.804.csv
425,2.0,left,right,0.0,1.9722,0.0,5.0,5.0,5.0,1.0,2901948350-218459.jpg,2898629328-68806.jpg,AE9KNJZWDCDSE_2022-11-24_10h25.25.804.csv
426,2.0,left,left,1.0,1.8594,0.0,6.0,6.0,6.0,1.0,2238572663-35822.jpg,2984615361-295510.jpg,AE9KNJZWDCDSE_2022-11-24_10h25.25.804.csv
427,2.0,left,left,1.0,1.2276,0.0,7.0,7.0,7.0,1.0,2874303365-214262.jpg,2512875685-200826.jpg,AE9KNJZWDCDSE_2022-11-24_10h25.25.804.csv
428,3.0,left,left,1.0,1.2494,0.0,8.0,8.0,8.0,1.0,2592380177-354629.jpg,2847210303-60991.jpg,AE9KNJZWDCDSE_2022-11-24_10h25.25.804.csv
429,3.0,left,left,1.0,1.833,0.0,9.0,9.0,9.0,1.0,2864907432-362042.jpg,2898626395-216900.jpg,AE9KNJZWDCDSE_2022-11-24_10h25.25.804.csv
430,3.0,right,right,1.0,1.7238,0.0,10.0,10.0,10.0,1.0,2512875899-126681.jpg,2512875899-126682.jpg,AE9KNJZWDCDSE_2022-11-24_10h25.25.804.csv
431,1.0,right,right,1.0,1.5909,0.0,11.0,11.0,11.0,1.0,2452380166-273109.jpg,2449442529-124445.jpg,AE9KNJZWDCDSE_2022-11-24_10h25.25.804.csv
432,3.0,right,left,0.0,1.8925,0.0,12.0,12.0,12.0,1.0,2898622392-366513.jpg,2452381505-199546.jpg,AE9KNJZWDCDSE_2022-11-24_10h25.25.804.csv
433,1.0,left,left,1.0,1.6332,0.0,13.0,13.0,13.0,1.0,2238580740-186218.jpg,2238550816-254000.jpg,AE9KNJZWDCDSE_2022-11-24_10h25.25.804.csv
434,1.0,right,right,1.0,1.6213,0.0,14.0,14.0,14.0,1.0,2864906345-212360.jpg,2898617468-68274.jpg,AE9KNJZWDCDSE_2022-11-24_10h25.25.804.csv
435,2.0,right,left,0.0,1.7795,0.0,15.0,15.0,15.0,1.0,2964223380-219495.jpg,2901941401-292798.jpg,AE9KNJZWDCDSE_2022-11-24_10h25.25.804.csv
436,1.0,left,right,0.0,1.4787,0.0,16.0,16.0,16.0,1.0,2449442529-124446.jpg,2452380171-273112.jpg,AE9KNJZWDCDSE_2022-11-24_10h25.25.804.csv
437,1.0,left,left,1.0,1.3113,0.0,17.0,17.0,17.0,1.0,2452380832-348593.jpg,2238328478-11678.jpg,AE9KNJZWDCDSE_2022-11-24_10h25.25.804.csv
438,2.0,right,right,1.0,1.2796,0.0,18.0,18.0,18.0,1.0,2984616310-220514.jpg,2238428357-313623.jpg,AE9KNJZWDCDSE_2022-11-24_10h25.25.804.csv
439,3.0,left,right,0.0,2.0702,0.0,19.0,19.0,19.0,1.0,2898635427-367120.jpg,2898624426-291545.jpg,AE9KNJZWDCDSE_2022-11-24_10h25.25.804.csv
440,2.0,left,left,1.0,1.4412,0.0,20.0,20.0,20.0,1.0,2883256307-365057.jpg,2864901420-212148.jpg,AE9KNJZWDCDSE_2022-11-24_10h25.25.804.csv
441,3.0,right,left,0.0,1.7811,0.0,21.0,21.0,21.0,1.0,2238576222-334523.jpg,2449441881-272368.jpg,AE9KNJZWDCDSE_2022-11-24_10h25.25.804.csv
442,1.0,left,left,1.0,1.367,0.0,22.0,22.0,22.0,1.0,2446758985-197609.jpg,2981240424-145795.jpg,AE9KNJZWDCDSE_2022-11-24_10h25.25.804.csv
443,2.0,left,left,1.0,1.243,0.0,23.0,23.0,23.0,1.0,2883268471-290842.jpg,2898623398-68538.jpg,AE9KNJZWDCDSE_2022-11-24_10h25.25.804.csv
444,1.0,right,left,0.0,1.9188,0.0,24.0,24.0,24.0,1.0,2984626312-370849.jpg,2883268412-365898.jpg,AE9KNJZWDCDSE_2022-11-24_10h25.25.804.csv
445,1.0,left,left,1.0,1.9141,0.0,25.0,25.0,25.0,1.0,2986451363-73599.jpg,2901939327-367669.jpg,AE9KNJZWDCDSE_2022-11-24_10h25.25.804.csv
446,1.0,left,right,0.0,1.4423,0.0,26.0,26.0,26.0,1.0,2964216465-219242.jpg,2238544191-252422.jpg,AE9KNJZWDCDSE_2022-11-24_10h25.25.804.csv
447,1.0,right,right,1.0,1.5885,0.0,27.0,27.0,27.0,1.0,2512876023-52283.jpg,2898633421-291973.jpg,AE9KNJZWDCDSE_2022-11-24_10h25.25.804.csv
448,2.0,left,left,1.0,1.4994,0.0,28.0,28.0,28.0,1.0,2874302418-65978.jpg,2238577555-185462.jpg,AE9KNJZWDCDSE_2022-11-24_10h25.25.804.csv
449,2.0,left,right,0.0,1.6147,0.0,29.0,29.0,29.0,1.0,2460547508-51571.jpg,2898633480-217189.jpg,AE9KNJZWDCDSE_2022-11-24_10h25.25.804.csv
450,2.0,left,left,1.0,1.2191,0.0,30.0,30.0,30.0,1.0,2446759803-49249.jpg,2238499155-170911.jpg,AE9KNJZWDCDSE_2022-11-24_10h25.25.804.csv
451,1.0,left,left,1.0,1.046,0.0,31.0,31.0,31.0,1.0,2883254439-140941.jpg,2883255450-215311.jpg,AE9KNJZWDCDSE_2022-11-24_10h25.25.804.csv
452,3.0,right,right,1.0,1.6709,0.0,32.0,32.0,32.0,1.0,2446760362-347305.jpg,2446759347-347016.jpg,AE9KNJZWDCDSE_2022-11-24_10h25.25.804.csv
453,2.0,right,right,1.0,1.0638,0.0,33.0,33.0,33.0,1.0,2981235446-294901.jpg,2460547467-349421.jpg,AE9KNJZWDCDSE_2022-11-24_10h25.25.804.csv
454,2.0,left,left,1.0,1.5183,0.0,34.0,34.0,34.0,1.0,2238425482-313537.jpg,2981244403-72215.jpg,AE9KNJZWDCDSE_2022-11-24_10h25.25.804.csv
455,2.0,right,right,1.0,1.4588,0.0,35.0,35.0,35.0,1.0,2864900357-361688.jpg,2874307433-66280.jpg,AE9KNJZWDCDSE_2022-11-24_10h25.25.804.csv
456,3.0,left,right,0.0,1.167,0.0,36.0,36.0,36.0,1.0,2458347385-199723.jpg,2238436632-314070.jpg,AE9KNJZWDCDSE_2022-11-24_10h25.25.804.csv
457,1.0,right,right,1.0,1.5276,0.0,37.0,37.0,37.0,1.0,2860312398-62572.jpg,2901947423-70311.jpg,AE9KNJZWDCDSE_2022-11-24_10h25.25.804.csv
458,3.0,right,right,1.0,1.3489,0.0,38.0,38.0,38.0,1.0,2238470808-18373.jpg,2874302418-65979.jpg,AE9KNJZWDCDSE_2022-11-24_10h25.25.804.csv
459,3.0,right,left,0.0,1.6182,0.0,39.0,39.0,39.0,1.0,2238537701-251773.jpg,2901952513-70703.jpg,AE9KNJZWDCDSE_2022-11-24_10h25.25.804.csv
460,3.0,left,right,0.0,1.1888,0.0,40.0,40.0,40.0,1.0,2868474407-362883.jpg,2898634332-367068.jpg,AE9KNJZWDCDSE_2022-11-24_10h25.25.804.csv
461,3.0,left,left,1.0,1.3617,0.0,41.0,41.0,41.0,1.0,2981241414-145842.jpg,2238427023-15948.jpg,AE9KNJZWDCDSE_2022-11-24_10h25.25.804.csv
462,3.0,left,left,1.0,1.0701,0.0,42.0,42.0,42.0,1.0,2238480677-317399.jpg,2238573546-258454.jpg,AE9KNJZWDCDSE_2022-11-24_10h25.25.804.csv
463,1.0,left,right,0.0,1.2597,0.0,43.0,43.0,43.0,1.0,2874299429-139695.jpg,2883266388-67750.jpg,AE9KNJZWDCDSE_2022-11-24_10h25.25.804.csv
464,2.0,right,right,1.0,1.4892,0.0,44.0,44.0,44.0,1.0,2864910427-362199.jpg,2898618390-216538.jpg,AE9KNJZWDCDSE_2022-11-24_10h25.25.804.csv
465,3.0,left,right,0.0,1.3755,0.0,45.0,45.0,45.0,1.0,2981231403-71642.jpg,2238574878-36413.jpg,AE9KNJZWDCDSE_2022-11-24_10h25.25.804.csv
466,1.0,left,left,1.0,1.6818,0.0,46.0,46.0,46.0,1.0,2898635428-69104.jpg,2446759803-49250.jpg,AE9KNJZWDCDSE_2022-11-24_10h25.25.804.csv
467,1.0,left,right,0.0,1.1488,0.0,47.0,47.0,47.0,1.0,2575120738-55529.jpg,2898632385-217137.jpg,AE9KNJZWDCDSE_2022-11-24_10h25.25.804.csv
468,2.0,left,left,1.0,1.6343,0.0,48.0,48.0,48.0,1.0,2238481198-19822.jpg,2862689306-285912.jpg,AE9KNJZWDCDSE_2022-11-24_10h25.25.804.csv
469,3.0,right,left,0.0,1.3461,0.0,49.0,49.0,49.0,1.0,2446759306-271735.jpg,2898634397-367080.jpg,AE9KNJZWDCDSE_2022-11-24_10h25.25.804.csv
470,3.0,left,left,1.0,1.4495,0.0,50.0,50.0,50.0,1.0,2898624426-291546.jpg,2898625336-291572.jpg,AE9KNJZWDCDSE_2022-11-24_10h25.25.804.csv
471,1.0,left,left,1.0,1.6147,0.0,51.0,51.0,51.0,1.0,2460547467-349422.jpg,2898631394-142727.jpg,AE9KNJZWDCDSE_2022-11-24_10h25.25.804.csv
472,3.0,right,right,1.0,1.7199,0.0,52.0,52.0,52.0,1.0,2424122686-268072.jpg,2592379964-131054.jpg,AE9KNJZWDCDSE_2022-11-24_10h25.25.804.csv
473,2.0,right,left,0.0,1.2116,0.0,53.0,53.0,53.0,1.0,2862700345-211776.jpg,2868475410-213219.jpg,AE9KNJZWDCDSE_2022-11-24_10h25.25.804.csv
474,2.0,right,left,0.0,1.3143,0.0,54.0,54.0,54.0,1.0,2901938398-69594.jpg,2901939379-143479.jpg,AE9KNJZWDCDSE_2022-11-24_10h25.25.804.csv
475,3.0,left,right,0.0,1.7559,0.0,55.0,55.0,55.0,1.0,2864910426-287204.jpg,2898632427-367006.jpg,AE9KNJZWDCDSE_2022-11-24_10h25.25.804.csv
476,2.0,left,left,1.0,1.211,0.0,56.0,56.0,56.0,1.0,2874301407-363895.jpg,2901949316-293452.jpg,AE9KNJZWDCDSE_2022-11-24_10h25.25.804.csv
477,2.0,right,right,1.0,2.4031,0.0,57.0,57.0,57.0,1.0,2862691449-137104.jpg,2898618444-142233.jpg,AE9KNJZWDCDSE_2022-11-24_10h25.25.804.csv
478,1.0,left,right,0.0,1.6791,0.0,58.0,58.0,58.0,1.0,2964223381-294447.jpg,2427874231-269884.jpg,AE9KNJZWDCDSE_2022-11-24_10h25.25.804.csv
479,3.0,right,right,1.0,1.2964,0.0,59.0,59.0,59.0,1.0,2898633476-291993.jpg,2964218374-144967.jpg,AE9KNJZWDCDSE_2022-11-24_10h25.25.804.csv
480,1.0,left,left,1.0,14.2043,0.0,0.0,0.0,0.0,1.0,2901941401-292798.jpg,2238577590-185467.jpg,A1JLSWEISM2DWE__2022-11-24_10h28.33.736.csv
481,3.0,left,left,1.0,5.056,0.0,1.0,1.0,1.0,1.0,2964213381-294060.jpg,2883254439-140940.jpg,A1JLSWEISM2DWE__2022-11-24_10h28.33.736.csv
482,1.0,right,right,1.0,4.9145,0.0,2.0,2.0,2.0,1.0,2575963989-130576.jpg,2592379964-131054.jpg,A1JLSWEISM2DWE__2022-11-24_10h28.33.736.csv
483,3.0,right,right,1.0,12.4628,0.0,3.0,3.0,3.0,1.0,2989730319-147821.jpg,2898633421-291973.jpg,A1JLSWEISM2DWE__2022-11-24_10h28.33.736.csv
484,2.0,left,left,1.0,4.7024,0.0,4.0,4.0,4.0,1.0,2460547467-349422.jpg,2989721311-296963.jpg,A1JLSWEISM2DWE__2022-11-24_10h28.33.736.csv
485,2.0,left,right,0.0,3.144799999,0.0,5.0,5.0,5.0,1.0,2238481928-19949.jpg,2989726338-74002.jpg,A1JLSWEISM2DWE__2022-11-24_10h28.33.736.csv
486,3.0,left,right,0.0,3.096199999,0.0,6.0,6.0,6.0,1.0,2864907432-362042.jpg,2898626395-216900.jpg,A1JLSWEISM2DWE__2022-11-24_10h28.33.736.csv
487,1.0,left,left,1.0,3.437300001,0.0,7.0,7.0,7.0,1.0,2898635427-367120.jpg,2964221435-219434.jpg,A1JLSWEISM2DWE__2022-11-24_10h28.33.736.csv
488,2.0,left,left,1.0,2.8049,0.0,8.0,8.0,8.0,1.0,2238580740-186218.jpg,2575121108-55628.jpg,A1JLSWEISM2DWE__2022-11-24_10h28.33.736.csv
489,3.0,left,right,0.0,5.481199999,0.0,9.0,9.0,9.0,1.0,2238480677-317399.jpg,2238573546-258454.jpg,A1JLSWEISM2DWE__2022-11-24_10h28.33.736.csv
490,3.0,right,right,1.0,3.874700001,0.0,10.0,10.0,10.0,1.0,2579432708-56392.jpg,2592380177-354626.jpg,A1JLSWEISM2DWE__2022-11-24_10h28.33.736.csv
491,2.0,right,right,1.0,4.4295,0.0,11.0,11.0,11.0,1.0,2898623398-68538.jpg,2883268471-290842.jpg,A1JLSWEISM2DWE__2022-11-24_10h28.33.736.csv
492,1.0,right,right,1.0,4.0514,0.0,12.0,12.0,12.0,1.0,2238516618-25604.jpg,2868474407-362883.jpg,A1JLSWEISM2DWE__2022-11-24_10h28.33.736.csv
493,3.0,left,right,0.0,5.0759,0.0,13.0,13.0,13.0,1.0,2874307433-66280.jpg,2446759396-271761.jpg,A1JLSWEISM2DWE__2022-11-24_10h28.33.736.csv
494,2.0,left,left,1.0,4.252,0.0,14.0,14.0,14.0,1.0,2449442529-124445.jpg,2901948476-293423.jpg,A1JLSWEISM2DWE__2022-11-24_10h28.33.736.csv
495,1.0,right,left,0.0,3.109300001,0.0,15.0,15.0,15.0,1.0,2238550049-105691.jpg,2898618390-216538.jpg,A1JLSWEISM2DWE__2022-11-24_10h28.33.736.csv
496,2.0,right,right,1.0,2.991,0.0,16.0,16.0,16.0,1.0,2512875824-126658.jpg,2458347385-199723.jpg,A1JLSWEISM2DWE__2022-11-24_10h28.33.736.csv
497,2.0,right,right,1.0,4.144,0.0,17.0,17.0,17.0,1.0,2981235446-294901.jpg,2460547467-349421.jpg,A1JLSWEISM2DWE__2022-11-24_10h28.33.736.csv
498,2.0,left,right,0.0,2.398799999,0.0,18.0,18.0,18.0,1.0,2981231403-71642.jpg,2864900358-63717.jpg,A1JLSWEISM2DWE__2022-11-24_10h28.33.736.csv
499,3.0,right,left,0.0,5.1626,0.0,19.0,19.0,19.0,1.0,2804906319-133082.jpg,2898618444-142233.jpg,A1JLSWEISM2DWE__2022-11-24_10h28.33.736.csv
500,2.0,left,right,0.0,2.4096,0.0,20.0,20.0,20.0,1.0,2883254439-140941.jpg,2460548070-200336.jpg,A1JLSWEISM2DWE__2022-11-24_10h28.33.736.csv
501,1.0,left,left,1.0,3.872199999,0.0,21.0,21.0,21.0,1.0,2981241414-145842.jpg,2856919327-359676.jpg,A1JLSWEISM2DWE__2022-11-24_10h28.33.736.csv
502,2.0,left,left,1.0,2.216199999,0.0,22.0,22.0,22.0,1.0,2452380832-348593.jpg,2238515978-25479.jpg,A1JLSWEISM2DWE__2022-11-24_10h28.33.736.csv
503,1.0,right,right,1.0,2.882699999,0.0,23.0,23.0,23.0,1.0,2864908448-64141.jpg,2238481198-19822.jpg,A1JLSWEISM2DWE__2022-11-24_10h28.33.736.csv
504,1.0,left,right,0.0,3.6596,0.0,24.0,24.0,24.0,1.0,2986451363-73599.jpg,2901939327-367669.jpg,A1JLSWEISM2DWE__2022-11-24_10h28.33.736.csv
505,3.0,left,left,1.0,10.1013,0.0,25.0,25.0,25.0,1.0,2449442529-124446.jpg,2460547536-274179.jpg,A1JLSWEISM2DWE__2022-11-24_10h28.33.736.csv
506,1.0,right,right,1.0,3.8046,0.0,26.0,26.0,26.0,1.0,2427874231-269884.jpg,2964223381-294447.jpg,A1JLSWEISM2DWE__2022-11-24_10h28.33.736.csv
507,1.0,right,right,1.0,3.378700001,0.0,27.0,27.0,27.0,1.0,2549106624-127823.jpg,2238560245-182099.jpg,A1JLSWEISM2DWE__2022-11-24_10h28.33.736.csv
508,1.0,left,left,1.0,3.3081,0.0,28.0,28.0,28.0,1.0,2901939379-143479.jpg,2446759803-49251.jpg,A1JLSWEISM2DWE__2022-11-24_10h28.33.736.csv
509,2.0,right,right,1.0,4.0409,0.0,29.0,29.0,29.0,1.0,2452380166-273110.jpg,2446758985-197609.jpg,A1JLSWEISM2DWE__2022-11-24_10h28.33.736.csv
510,1.0,right,left,0.0,4.358200001,0.0,30.0,30.0,30.0,1.0,2883264368-67631.jpg,2874301407-363895.jpg,A1JLSWEISM2DWE__2022-11-24_10h28.33.736.csv
511,2.0,right,right,1.0,5.142300001,0.0,31.0,31.0,31.0,1.0,2446758985-197610.jpg,2964218374-144967.jpg,A1JLSWEISM2DWE__2022-11-24_10h28.33.736.csv
512,1.0,left,right,0.0,0.8629,0.0,32.0,32.0,32.0,1.0,2868475410-213219.jpg,2901946465-218350.jpg,A1JLSWEISM2DWE__2022-11-24_10h28.33.736.csv
513,2.0,right,left,0.0,3.438700001,0.0,33.0,33.0,33.0,1.0,2984615361-295510.jpg,2238572663-35822.jpg,A1JLSWEISM2DWE__2022-11-24_10h28.33.736.csv
514,2.0,left,left,1.0,5.354099998,0.0,34.0,34.0,34.0,1.0,2874303365-214262.jpg,2512875685-200826.jpg,A1JLSWEISM2DWE__2022-11-24_10h28.33.736.csv
515,2.0,right,right,1.0,3.509799999,0.0,35.0,35.0,35.0,1.0,2898626395-216901.jpg,2898624426-291546.jpg,A1JLSWEISM2DWE__2022-11-24_10h28.33.736.csv
516,3.0,left,right,0.0,1.999700001,0.0,36.0,36.0,36.0,1.0,2238425482-313537.jpg,2864901352-361731.jpg,A1JLSWEISM2DWE__2022-11-24_10h28.33.736.csv
517,1.0,left,left,1.0,3.598700001,0.0,37.0,37.0,37.0,1.0,2901947423-70311.jpg,2860312398-62572.jpg,A1JLSWEISM2DWE__2022-11-24_10h28.33.736.csv
518,1.0,right,right,1.0,3.749799999,0.0,38.0,38.0,38.0,1.0,2237944827-301472.jpg,2898634397-367080.jpg,A1JLSWEISM2DWE__2022-11-24_10h28.33.736.csv
519,3.0,left,right,0.0,3.9,0.0,39.0,39.0,39.0,1.0,2874302418-65978.jpg,2238567130-183315.jpg,A1JLSWEISM2DWE__2022-11-24_10h28.33.736.csv
520,1.0,left,left,1.0,4.6639,0.0,40.0,40.0,40.0,1.0,2901939379-143480.jpg,2981229442-369621.jpg,A1JLSWEISM2DWE__2022-11-24_10h28.33.736.csv
521,2.0,left,left,1.0,4.0841,0.0,41.0,41.0,41.0,1.0,2446759803-49249.jpg,2238499155-170911.jpg,A1JLSWEISM2DWE__2022-11-24_10h28.33.736.csv
522,3.0,right,left,0.0,2.217199999,0.0,42.0,42.0,42.0,1.0,2901942428-69919.jpg,2898635428-69104.jpg,A1JLSWEISM2DWE__2022-11-24_10h28.33.736.csv
523,1.0,right,left,0.0,4.0014,0.0,43.0,43.0,43.0,1.0,2984615361-295509.jpg,2449441881-272368.jpg,A1JLSWEISM2DWE__2022-11-24_10h28.33.736.csv
524,1.0,left,left,1.0,2.5511,0.0,44.0,44.0,44.0,1.0,2883268412-365898.jpg,2984626312-370849.jpg,A1JLSWEISM2DWE__2022-11-24_10h28.33.736.csv
525,2.0,left,left,1.0,3.4419,0.0,45.0,45.0,45.0,1.0,2883256307-365057.jpg,2864901420-212148.jpg,A1JLSWEISM2DWE__2022-11-24_10h28.33.736.csv
526,2.0,right,left,0.0,4.0871,0.0,46.0,46.0,46.0,1.0,2984616310-220514.jpg,2238428357-313623.jpg,A1JLSWEISM2DWE__2022-11-24_10h28.33.736.csv
527,1.0,left,left,1.0,1.9939,0.0,47.0,47.0,47.0,1.0,2874302418-65979.jpg,2413147898-43548.jpg,A1JLSWEISM2DWE__2022-11-24_10h28.33.736.csv
528,3.0,left,left,1.0,4.360799999,0.0,48.0,48.0,48.0,1.0,2874299429-139695.jpg,2874313394-140557.jpg,A1JLSWEISM2DWE__2022-11-24_10h28.33.736.csv
529,2.0,left,left,1.0,2.162800001,0.0,49.0,49.0,49.0,1.0,2460547508-51571.jpg,2898633480-217189.jpg,A1JLSWEISM2DWE__2022-11-24_10h28.33.736.csv
530,3.0,left,right,0.0,3.1746,0.0,50.0,50.0,50.0,1.0,2964216465-219242.jpg,2981231403-71641.jpg,A1JLSWEISM2DWE__2022-11-24_10h28.33.736.csv
531,3.0,left,left,1.0,1.792699999,0.0,51.0,51.0,51.0,1.0,2452381505-199546.jpg,2898622392-366513.jpg,A1JLSWEISM2DWE__2022-11-24_10h28.33.736.csv
532,2.0,left,right,0.0,4.777,0.0,52.0,52.0,52.0,1.0,2864910426-287204.jpg,2864903351-286874.jpg,A1JLSWEISM2DWE__2022-11-24_10h28.33.736.csv
533,3.0,left,left,1.0,3.215199999,0.0,53.0,53.0,53.0,1.0,2512875899-126682.jpg,2512875899-126681.jpg,A1JLSWEISM2DWE__2022-11-24_10h28.33.736.csv
534,3.0,right,right,1.0,2.505400002,0.0,54.0,54.0,54.0,1.0,2981243399-145923.jpg,2898617468-68274.jpg,A1JLSWEISM2DWE__2022-11-24_10h28.33.736.csv
535,1.0,left,left,1.0,3.038700001,0.0,55.0,55.0,55.0,1.0,2901952513-70703.jpg,2864907361-287062.jpg,A1JLSWEISM2DWE__2022-11-24_10h28.33.736.csv
536,3.0,right,right,1.0,2.270200001,0.0,56.0,56.0,56.0,1.0,2238482369-94216.jpg,2901948350-218459.jpg,A1JLSWEISM2DWE__2022-11-24_10h28.33.736.csv
537,3.0,left,left,1.0,3.745800001,0.0,57.0,57.0,57.0,1.0,2592380177-354629.jpg,2847210303-60991.jpg,A1JLSWEISM2DWE__2022-11-24_10h28.33.736.csv
538,3.0,left,left,1.0,2.3551,0.0,58.0,58.0,58.0,1.0,2446759347-347016.jpg,2446760362-347305.jpg,A1JLSWEISM2DWE__2022-11-24_10h28.33.736.csv
539,3.0,right,right,1.0,3.256200001,0.0,59.0,59.0,59.0,1.0,2460547859-126142.jpg,2575120738-55529.jpg,A1JLSWEISM2DWE__2022-11-24_10h28.33.736.csv
540,1.0,left,left,1.0,5.378,0.0,0.0,0.0,0.0,1.0,2898635428-69104.jpg,2446759803-49250.jpg,A137V1J5GNNZTH_2022-11-24_14h32.35.842.csv
541,3.0,right,right,1.0,5.405,0.0,1.0,1.0,1.0,1.0,2238573546-258454.jpg,2238480677-317399.jpg,A137V1J5GNNZTH_2022-11-24_14h32.35.842.csv
542,2.0,left,left,1.0,15.895,0.0,2.0,2.0,2.0,1.0,2898617468-68274.jpg,2238433340-164524.jpg,A137V1J5GNNZTH_2022-11-24_14h32.35.842.csv
543,3.0,right,right,1.0,6.221,0.0,3.0,3.0,3.0,1.0,2579432708-56392.jpg,2592380177-354626.jpg,A137V1J5GNNZTH_2022-11-24_14h32.35.842.csv
544,2.0,left,left,1.0,5.368,0.0,4.0,4.0,4.0,1.0,2460547467-349422.jpg,2989721311-296963.jpg,A137V1J5GNNZTH_2022-11-24_14h32.35.842.csv
545,1.0,right,right,1.0,4.777,0.0,5.0,5.0,5.0,1.0,2901946465-218350.jpg,2868475410-213219.jpg,A137V1J5GNNZTH_2022-11-24_14h32.35.842.csv
546,3.0,left,left,1.0,6.7,0.0,6.0,6.0,6.0,1.0,2874307433-66280.jpg,2446759396-271761.jpg,A137V1J5GNNZTH_2022-11-24_14h32.35.842.csv
547,1.0,right,right,1.0,5.251,0.0,7.0,7.0,7.0,1.0,2575118671-277663.jpg,2238572663-35822.jpg,A137V1J5GNNZTH_2022-11-24_14h32.35.842.csv
548,1.0,right,right,1.0,6.424,0.0,8.0,8.0,8.0,1.0,2883264367-365620.jpg,2238481928-19949.jpg,A137V1J5GNNZTH_2022-11-24_14h32.35.842.csv
549,2.0,left,right,0.0,4.388,0.0,9.0,9.0,9.0,1.0,2460547508-51571.jpg,2898633480-217189.jpg,A137V1J5GNNZTH_2022-11-24_14h32.35.842.csv
550,2.0,right,right,1.0,5.013,0.0,10.0,10.0,10.0,1.0,2238515978-25479.jpg,2452380832-348593.jpg,A137V1J5GNNZTH_2022-11-24_14h32.35.842.csv
551,1.0,right,left,0.0,3.467,0.0,11.0,11.0,11.0,1.0,2901938432-367627.jpg,2452381505-199546.jpg,A137V1J5GNNZTH_2022-11-24_14h32.35.842.csv
552,3.0,right,right,1.0,5.933,0.0,12.0,12.0,12.0,1.0,2424124794-120289.jpg,2874303365-214262.jpg,A137V1J5GNNZTH_2022-11-24_14h32.35.842.csv
553,1.0,left,left,1.0,5.246,0.0,13.0,13.0,13.0,1.0,2883254439-140941.jpg,2883255450-215311.jpg,A137V1J5GNNZTH_2022-11-24_14h32.35.842.csv
554,1.0,left,left,1.0,6.489,0.0,14.0,14.0,14.0,1.0,2864907432-362042.jpg,2864901420-212147.jpg,A137V1J5GNNZTH_2022-11-24_14h32.35.842.csv
555,2.0,left,left,1.0,5.42,0.0,15.0,15.0,15.0,1.0,2898618444-142233.jpg,2862691449-137104.jpg,A137V1J5GNNZTH_2022-11-24_14h32.35.842.csv
556,2.0,right,right,1.0,12.477,0.0,16.0,16.0,16.0,1.0,2898617374-142166.jpg,2449441881-272368.jpg,A137V1J5GNNZTH_2022-11-24_14h32.35.842.csv
557,3.0,left,left,1.0,11.728,0.0,17.0,17.0,17.0,1.0,2238428357-313623.jpg,2856919327-359675.jpg,A137V1J5GNNZTH_2022-11-24_14h32.35.842.csv
558,1.0,right,left,0.0,8.417,0.0,18.0,18.0,18.0,1.0,2238550816-254000.jpg,2238580740-186218.jpg,A137V1J5GNNZTH_2022-11-24_14h32.35.842.csv
559,3.0,left,left,1.0,7.418,0.0,19.0,19.0,19.0,1.0,2512875899-126682.jpg,2512875899-126681.jpg,A137V1J5GNNZTH_2022-11-24_14h32.35.842.csv
560,3.0,right,right,1.0,7.122,0.0,20.0,20.0,20.0,1.0,2898634332-367068.jpg,2868474407-362883.jpg,A137V1J5GNNZTH_2022-11-24_14h32.35.842.csv
561,1.0,left,left,1.0,8.565,0.0,21.0,21.0,21.0,1.0,2898624426-291546.jpg,2964207374-144577.jpg,A137V1J5GNNZTH_2022-11-24_14h32.35.842.csv
562,1.0,right,right,1.0,8.577,0.0,22.0,22.0,22.0,1.0,2446759803-49251.jpg,2901939379-143479.jpg,A137V1J5GNNZTH_2022-11-24_14h32.35.842.csv
563,2.0,left,left,1.0,7.283,0.0,23.0,23.0,23.0,1.0,2986451363-73599.jpg,2238571930-184142.jpg,A137V1J5GNNZTH_2022-11-24_14h32.35.842.csv
564,3.0,left,left,1.0,4.88,0.0,24.0,24.0,24.0,1.0,2898633421-291973.jpg,2989730319-147821.jpg,A137V1J5GNNZTH_2022-11-24_14h32.35.842.csv
565,3.0,right,right,1.0,7.921,0.0,25.0,25.0,25.0,1.0,2883266367-365742.jpg,2883268471-290842.jpg,A137V1J5GNNZTH_2022-11-24_14h32.35.842.csv
566,3.0,left,left,1.0,7.053,0.0,26.0,26.0,26.0,1.0,2901947423-70311.jpg,2874301385-214137.jpg,A137V1J5GNNZTH_2022-11-24_14h32.35.842.csv
567,1.0,left,left,1.0,6.01,0.0,27.0,27.0,27.0,1.0,2964216465-219242.jpg,2238544191-252422.jpg,A137V1J5GNNZTH_2022-11-24_14h32.35.842.csv
568,2.0,left,left,1.0,10.416,0.0,28.0,28.0,28.0,1.0,2874299429-139695.jpg,2238571930-184143.jpg,A137V1J5GNNZTH_2022-11-24_14h32.35.842.csv
569,3.0,right,right,1.0,4.117,0.0,29.0,29.0,29.0,1.0,2898624426-291545.jpg,2898635427-367120.jpg,A137V1J5GNNZTH_2022-11-24_14h32.35.842.csv
570,2.0,left,left,1.0,10.882,0.0,30.0,30.0,30.0,1.0,2874301407-363895.jpg,2901949316-293452.jpg,A137V1J5GNNZTH_2022-11-24_14h32.35.842.csv
571,1.0,right,right,1.0,9.91,0.0,31.0,31.0,31.0,1.0,2238471391-240918.jpg,2238425482-313537.jpg,A137V1J5GNNZTH_2022-11-24_14h32.35.842.csv
572,1.0,right,right,1.0,5.599,0.0,32.0,32.0,32.0,1.0,2984626312-370849.jpg,2883268412-365898.jpg,A137V1J5GNNZTH_2022-11-24_14h32.35.842.csv
573,1.0,right,right,1.0,3.932,0.0,33.0,33.0,33.0,1.0,2413147898-43548.jpg,2874302418-65979.jpg,A137V1J5GNNZTH_2022-11-24_14h32.35.842.csv
574,1.0,left,left,1.0,3.895,0.0,34.0,34.0,34.0,1.0,2901948350-218459.jpg,2868487415-213922.jpg,A137V1J5GNNZTH_2022-11-24_14h32.35.842.csv
575,2.0,left,right,0.0,8.684,0.0,35.0,35.0,35.0,1.0,2898618390-216538.jpg,2864910427-362199.jpg,A137V1J5GNNZTH_2022-11-24_14h32.35.842.csv
576,3.0,left,left,1.0,4.232,0.0,36.0,36.0,36.0,1.0,2592380177-354629.jpg,2847210303-60991.jpg,A137V1J5GNNZTH_2022-11-24_14h32.35.842.csv
577,2.0,left,left,1.0,3.39,0.0,37.0,37.0,37.0,1.0,2460547467-349421.jpg,2981235446-294901.jpg,A137V1J5GNNZTH_2022-11-24_14h32.35.842.csv
578,2.0,right,right,1.0,3.115,0.0,38.0,38.0,38.0,1.0,2898636423-69152.jpg,2898634397-367080.jpg,A137V1J5GNNZTH_2022-11-24_14h32.35.842.csv
579,3.0,left,left,1.0,3.379,0.0,39.0,39.0,39.0,1.0,2981231403-71642.jpg,2238574878-36413.jpg,A137V1J5GNNZTH_2022-11-24_14h32.35.842.csv
580,1.0,left,left,1.0,3.512,0.0,40.0,40.0,40.0,1.0,2446759803-49249.jpg,2446760601-272099.jpg,A137V1J5GNNZTH_2022-11-24_14h32.35.842.csv
581,2.0,left,left,1.0,6.23,0.0,41.0,41.0,41.0,1.0,2883256307-365057.jpg,2864901420-212148.jpg,A137V1J5GNNZTH_2022-11-24_14h32.35.842.csv
582,1.0,right,right,1.0,10.728,0.0,42.0,42.0,42.0,1.0,2864907361-287062.jpg,2901952513-70703.jpg,A137V1J5GNNZTH_2022-11-24_14h32.35.842.csv
583,3.0,right,right,1.0,20.141,0.0,43.0,43.0,43.0,1.0,2238567130-183315.jpg,2874302418-65978.jpg,A137V1J5GNNZTH_2022-11-24_14h32.35.842.csv
584,1.0,left,left,1.0,7.442,0.0,44.0,44.0,44.0,1.0,2964218374-144967.jpg,2964218374-144968.jpg,A137V1J5GNNZTH_2022-11-24_14h32.35.842.csv
585,2.0,left,left,1.0,11.734,0.0,45.0,45.0,45.0,1.0,2446759347-347016.jpg,2864904415-212294.jpg,A137V1J5GNNZTH_2022-11-24_14h32.35.842.csv
586,3.0,right,right,1.0,6.781,0.0,46.0,46.0,46.0,1.0,2901946439-144040.jpg,2449442529-124445.jpg,A137V1J5GNNZTH_2022-11-24_14h32.35.842.csv
587,3.0,right,right,1.0,11.403,0.0,47.0,47.0,47.0,1.0,2883273443-68192.jpg,2901941401-292798.jpg,A137V1J5GNNZTH_2022-11-24_14h32.35.842.csv
588,1.0,left,left,1.0,6.402,0.0,48.0,48.0,48.0,1.0,2575120738-55529.jpg,2898632385-217137.jpg,A137V1J5GNNZTH_2022-11-24_14h32.35.842.csv
589,3.0,left,right,0.0,5.641,0.0,49.0,49.0,49.0,1.0,2446758985-197609.jpg,2238087237-303447.jpg,A137V1J5GNNZTH_2022-11-24_14h32.35.842.csv
590,1.0,left,left,1.0,8.41,0.0,50.0,50.0,50.0,1.0,2901939379-143480.jpg,2981229442-369621.jpg,A137V1J5GNNZTH_2022-11-24_14h32.35.842.csv
591,3.0,right,right,1.0,15.382,0.0,51.0,51.0,51.0,1.0,2238427023-15948.jpg,2981241414-145842.jpg,A137V1J5GNNZTH_2022-11-24_14h32.35.842.csv
592,3.0,right,right,1.0,7.09,0.0,52.0,52.0,52.0,1.0,2901941438-69835.jpg,2238481198-19822.jpg,A137V1J5GNNZTH_2022-11-24_14h32.35.842.csv
593,2.0,right,right,1.0,11.153,0.0,53.0,53.0,53.0,1.0,2238467949-92250.jpg,2238560245-182099.jpg,A137V1J5GNNZTH_2022-11-24_14h32.35.842.csv
594,2.0,left,left,1.0,3.886,0.0,54.0,54.0,54.0,1.0,2592379964-131054.jpg,2427875694-122097.jpg,A137V1J5GNNZTH_2022-11-24_14h32.35.842.csv
595,2.0,right,left,0.0,3.837,0.0,55.0,55.0,55.0,1.0,2964217461-294238.jpg,2964223381-294447.jpg,A137V1J5GNNZTH_2022-11-24_14h32.35.842.csv
596,2.0,left,left,1.0,3.989,0.0,56.0,56.0,56.0,1.0,2964213381-294060.jpg,2598726160-205998.jpg,A137V1J5GNNZTH_2022-11-24_14h32.35.842.csv
597,3.0,right,right,1.0,10.733,0.0,57.0,57.0,57.0,1.0,2898632427-367006.jpg,2864910426-287204.jpg,A137V1J5GNNZTH_2022-11-24_14h32.35.842.csv
598,2.0,right,right,1.0,5.935,0.0,58.0,58.0,58.0,1.0,2512875824-126658.jpg,2458347385-199723.jpg,A137V1J5GNNZTH_2022-11-24_14h32.35.842.csv
599,2.0,left,left,1.0,6.436,0.0,59.0,59.0,59.0,1.0,2449442529-124446.jpg,2964216376-294181.jpg,A137V1J5GNNZTH_2022-11-24_14h32.35.842.csv
600,3.0,right,left,0.0,5.4453,0.0,0.0,0.0,0.0,1.0,2460547859-126142.jpg,2575120738-55529.jpg,A1K4FKVCBTX1RN_2022-11-24_07h36.54.075.csv
601,3.0,right,right,1.0,1.2947,0.0,1.0,1.0,1.0,1.0,2883266367-365742.jpg,2883268471-290842.jpg,A1K4FKVCBTX1RN_2022-11-24_07h36.54.075.csv
602,2.0,right,right,1.0,1.509,0.0,2.0,2.0,2.0,1.0,2864904390-212289.jpg,2898635428-69104.jpg,A1K4FKVCBTX1RN_2022-11-24_07h36.54.075.csv
603,3.0,right,right,1.0,6.1678,0.0,3.0,3.0,3.0,1.0,2238375825-162206.jpg,2238572663-35822.jpg,A1K4FKVCBTX1RN_2022-11-24_07h36.54.075.csv
604,1.0,right,right,1.0,7.7781,0.0,4.0,4.0,4.0,1.0,2238480434-93829.jpg,2458347385-199723.jpg,A1K4FKVCBTX1RN_2022-11-24_07h36.54.075.csv
605,1.0,left,right,0.0,4.7581,0.0,5.0,5.0,5.0,1.0,2901939379-143479.jpg,2446759803-49251.jpg,A1K4FKVCBTX1RN_2022-11-24_07h36.54.075.csv
606,3.0,right,right,1.0,3.259,0.0,6.0,6.0,6.0,1.0,2238574968-36441.jpg,2898618390-216538.jpg,A1K4FKVCBTX1RN_2022-11-24_07h36.54.075.csv
607,1.0,left,left,1.0,2.5934,0.0,7.0,7.0,7.0,1.0,2901947423-70311.jpg,2860312398-62572.jpg,A1K4FKVCBTX1RN_2022-11-24_07h36.54.075.csv
608,3.0,left,left,1.0,1.5107,0.0,8.0,8.0,8.0,1.0,2449442529-124446.jpg,2460547536-274179.jpg,A1K4FKVCBTX1RN_2022-11-24_07h36.54.075.csv
609,2.0,left,left,1.0,6.8856,0.0,9.0,9.0,9.0,1.0,2874301407-363895.jpg,2901949316-293452.jpg,A1K4FKVCBTX1RN_2022-11-24_07h36.54.075.csv
610,1.0,right,left,0.0,6.4641,0.0,10.0,10.0,10.0,1.0,2864901420-212147.jpg,2864907432-362042.jpg,A1K4FKVCBTX1RN_2022-11-24_07h36.54.075.csv
611,2.0,left,left,1.0,1.2472,0.0,11.0,11.0,11.0,1.0,2449442529-124445.jpg,2901948476-293423.jpg,A1K4FKVCBTX1RN_2022-11-24_07h36.54.075.csv
612,2.0,right,right,1.0,2.0086,0.0,12.0,12.0,12.0,1.0,2598726160-205998.jpg,2964213381-294060.jpg,A1K4FKVCBTX1RN_2022-11-24_07h36.54.075.csv
613,3.0,left,left,1.0,1.3491,0.0,13.0,13.0,13.0,1.0,2874303365-214262.jpg,2424124794-120289.jpg,A1K4FKVCBTX1RN_2022-11-24_07h36.54.075.csv
614,3.0,right,right,1.0,1.4485,0.0,14.0,14.0,14.0,1.0,2901943480-218116.jpg,2238560245-182099.jpg,A1K4FKVCBTX1RN_2022-11-24_07h36.54.075.csv
615,1.0,left,right,0.0,2.41,0.0,15.0,15.0,15.0,1.0,2898624426-291546.jpg,2964207374-144577.jpg,A1K4FKVCBTX1RN_2022-11-24_07h36.54.075.csv
616,2.0,left,left,1.0,3.4445,0.0,16.0,16.0,16.0,1.0,2460547467-349422.jpg,2989721311-296963.jpg,A1K4FKVCBTX1RN_2022-11-24_07h36.54.075.csv
617,2.0,left,left,1.0,1.0136,0.0,17.0,17.0,17.0,1.0,2901939379-143480.jpg,2964218373-71170.jpg,A1K4FKVCBTX1RN_2022-11-24_07h36.54.075.csv
618,2.0,left,right,0.0,1.2889,0.0,18.0,18.0,18.0,1.0,2449441881-272368.jpg,2898617374-142166.jpg,A1K4FKVCBTX1RN_2022-11-24_07h36.54.075.csv
619,3.0,left,left,1.0,1.1156,0.0,19.0,19.0,19.0,1.0,2986451363-73599.jpg,2898630381-291834.jpg,A1K4FKVCBTX1RN_2022-11-24_07h36.54.075.csv
620,1.0,right,right,1.0,1.3386,0.0,20.0,20.0,20.0,1.0,2238481630-168218.jpg,2238480677-317399.jpg,A1K4FKVCBTX1RN_2022-11-24_07h36.54.075.csv
621,3.0,left,left,1.0,2.6054,0.0,21.0,21.0,21.0,1.0,2874307433-66280.jpg,2446759396-271761.jpg,A1K4FKVCBTX1RN_2022-11-24_07h36.54.075.csv
622,2.0,right,right,1.0,0.9737,0.0,22.0,22.0,22.0,1.0,2452380166-273110.jpg,2446758985-197609.jpg,A1K4FKVCBTX1RN_2022-11-24_07h36.54.075.csv
623,1.0,left,left,1.0,1.7383,0.0,23.0,23.0,23.0,1.0,2898634397-367080.jpg,2237944827-301472.jpg,A1K4FKVCBTX1RN_2022-11-24_07h36.54.075.csv
624,1.0,left,left,1.0,1.4503,0.0,24.0,24.0,24.0,1.0,2883268412-365898.jpg,2984626312-370849.jpg,A1K4FKVCBTX1RN_2022-11-24_07h36.54.075.csv
625,3.0,left,left,1.0,1.8396,0.0,25.0,25.0,25.0,1.0,2964218374-144967.jpg,2898633476-291993.jpg,A1K4FKVCBTX1RN_2022-11-24_07h36.54.075.csv
626,1.0,right,left,0.0,1.1638,0.0,26.0,26.0,26.0,1.0,2238577590-185467.jpg,2901941401-292798.jpg,A1K4FKVCBTX1RN_2022-11-24_07h36.54.075.csv
627,2.0,left,right,0.0,0.8298,0.0,27.0,27.0,27.0,1.0,2874299429-139695.jpg,2238571930-184143.jpg,A1K4FKVCBTX1RN_2022-11-24_07h36.54.075.csv
628,2.0,left,left,1.0,2.5686,0.0,28.0,28.0,28.0,1.0,2868474407-362883.jpg,2874305405-214397.jpg,A1K4FKVCBTX1RN_2022-11-24_07h36.54.075.csv
629,3.0,right,left,0.0,3.4038,0.0,29.0,29.0,29.0,1.0,2238470808-18373.jpg,2874302418-65979.jpg,A1K4FKVCBTX1RN_2022-11-24_07h36.54.075.csv
630,2.0,right,right,1.0,1.8022,0.0,30.0,30.0,30.0,1.0,2238580922-335631.jpg,2898633421-291973.jpg,A1K4FKVCBTX1RN_2022-11-24_07h36.54.075.csv
631,1.0,left,left,1.0,1.3371,0.0,31.0,31.0,31.0,1.0,2883256307-365057.jpg,2611628310-206388.jpg,A1K4FKVCBTX1RN_2022-11-24_07h36.54.075.csv
632,3.0,right,right,1.0,1.5491,0.0,32.0,32.0,32.0,1.0,2901938432-367628.jpg,2964223381-294447.jpg,A1K4FKVCBTX1RN_2022-11-24_07h36.54.075.csv
633,1.0,left,left,1.0,1.2932,0.0,33.0,33.0,33.0,1.0,2238481198-19822.jpg,2864908448-64141.jpg,A1K4FKVCBTX1RN_2022-11-24_07h36.54.075.csv
634,2.0,left,left,1.0,1.996,0.0,34.0,34.0,34.0,1.0,2981241414-145842.jpg,2868469411-287540.jpg,A1K4FKVCBTX1RN_2022-11-24_07h36.54.075.csv
635,2.0,right,right,1.0,1.2681,0.0,35.0,35.0,35.0,1.0,2862700345-211776.jpg,2868475410-213219.jpg,A1K4FKVCBTX1RN_2022-11-24_07h36.54.075.csv
636,1.0,left,left,1.0,1.7281,0.0,36.0,36.0,36.0,1.0,2981231403-71642.jpg,2274829821-263682.jpg,A1K4FKVCBTX1RN_2022-11-24_07h36.54.075.csv
637,3.0,right,right,1.0,0.8389,0.0,37.0,37.0,37.0,1.0,2238482369-94216.jpg,2901948350-218459.jpg,A1K4FKVCBTX1RN_2022-11-24_07h36.54.075.csv
638,1.0,left,left,1.0,1.7252,0.0,38.0,38.0,38.0,1.0,2592380177-354626.jpg,2986408339-146952.jpg,A1K4FKVCBTX1RN_2022-11-24_07h36.54.075.csv
639,1.0,right,right,1.0,1.541,0.0,39.0,39.0,39.0,1.0,2964221435-219434.jpg,2898635427-367120.jpg,A1K4FKVCBTX1RN_2022-11-24_07h36.54.075.csv
640,3.0,right,right,1.0,2.5247,0.0,40.0,40.0,40.0,1.0,2237856283-1014.jpg,2452380832-348593.jpg,A1K4FKVCBTX1RN_2022-11-24_07h36.54.075.csv
641,1.0,right,left,0.0,9.4442,0.0,41.0,41.0,41.0,1.0,2238550816-254000.jpg,2238580740-186218.jpg,A1K4FKVCBTX1RN_2022-11-24_07h36.54.075.csv
642,3.0,left,left,1.0,1.5128,0.0,42.0,42.0,42.0,1.0,2238428357-313623.jpg,2856919327-359675.jpg,A1K4FKVCBTX1RN_2022-11-24_07h36.54.075.csv
643,3.0,right,right,1.0,2.0953,0.0,43.0,43.0,43.0,1.0,2446760844-124088.jpg,2446759803-49249.jpg,A1K4FKVCBTX1RN_2022-11-24_07h36.54.075.csv
644,1.0,left,left,1.0,1.8815,0.0,44.0,44.0,44.0,1.0,2874302418-65978.jpg,2898626385-216899.jpg,A1K4FKVCBTX1RN_2022-11-24_07h36.54.075.csv
645,3.0,right,left,0.0,2.2955,0.0,45.0,45.0,45.0,1.0,2901941438-69836.jpg,2460547508-51571.jpg,A1K4FKVCBTX1RN_2022-11-24_07h36.54.075.csv
646,2.0,right,left,0.0,1.9446,0.0,46.0,46.0,46.0,1.0,2864903351-286874.jpg,2864910426-287204.jpg,A1K4FKVCBTX1RN_2022-11-24_07h36.54.075.csv
647,3.0,left,left,1.0,1.7444,0.0,47.0,47.0,47.0,1.0,2592380177-354629.jpg,2847210303-60991.jpg,A1K4FKVCBTX1RN_2022-11-24_07h36.54.075.csv
648,2.0,right,right,1.0,1.903,0.0,48.0,48.0,48.0,1.0,2989726338-74002.jpg,2238481928-19949.jpg,A1K4FKVCBTX1RN_2022-11-24_07h36.54.075.csv
649,2.0,right,left,0.0,1.39,0.0,49.0,49.0,49.0,1.0,2981235446-294901.jpg,2460547467-349421.jpg,A1K4FKVCBTX1RN_2022-11-24_07h36.54.075.csv
650,2.0,right,right,1.0,1.5258,0.0,50.0,50.0,50.0,1.0,2427875694-122097.jpg,2592379964-131054.jpg,A1K4FKVCBTX1RN_2022-11-24_07h36.54.075.csv
651,3.0,left,right,0.0,1.4421,0.0,51.0,51.0,51.0,1.0,2512875899-126682.jpg,2512875899-126681.jpg,A1K4FKVCBTX1RN_2022-11-24_07h36.54.075.csv
652,2.0,left,left,1.0,1.859,0.0,52.0,52.0,52.0,1.0,2898618444-142233.jpg,2862691449-137104.jpg,A1K4FKVCBTX1RN_2022-11-24_07h36.54.075.csv
653,1.0,right,left,0.0,1.6714,0.0,53.0,53.0,53.0,1.0,2238471391-240918.jpg,2238425482-313537.jpg,A1K4FKVCBTX1RN_2022-11-24_07h36.54.075.csv
654,2.0,right,left,0.0,4.9352,0.0,54.0,54.0,54.0,1.0,2864904415-212294.jpg,2446759347-347016.jpg,A1K4FKVCBTX1RN_2022-11-24_07h36.54.075.csv
655,1.0,right,left,0.0,1.4127,0.0,55.0,55.0,55.0,1.0,2901938432-367627.jpg,2452381505-199546.jpg,A1K4FKVCBTX1RN_2022-11-24_07h36.54.075.csv
656,1.0,left,left,1.0,0.9754,0.0,56.0,56.0,56.0,1.0,2964216465-219242.jpg,2238544191-252422.jpg,A1K4FKVCBTX1RN_2022-11-24_07h36.54.075.csv
657,2.0,right,right,1.0,0.9429,0.0,57.0,57.0,57.0,1.0,2238433340-164524.jpg,2898617468-68274.jpg,A1K4FKVCBTX1RN_2022-11-24_07h36.54.075.csv
658,3.0,right,right,1.0,1.1776,0.0,58.0,58.0,58.0,1.0,2964219379-144996.jpg,2883254439-140941.jpg,A1K4FKVCBTX1RN_2022-11-24_07h36.54.075.csv
659,1.0,left,left,1.0,1.7886,0.0,59.0,59.0,59.0,1.0,2901952513-70703.jpg,2864907361-287062.jpg,A1K4FKVCBTX1RN_2022-11-24_07h36.54.075.csv
660,3.0,right,right,1.0,1.465,0.0,0.0,0.0,0.0,1.0,2898635428-69106.jpg,2460547467-349422.jpg,AIEKCWYZTS41V_2022-11-24_10h31.00.383.csv
661,3.0,left,left,1.0,0.8384,0.0,1.0,1.0,1.0,1.0,2964216465-219242.jpg,2981231403-71641.jpg,AIEKCWYZTS41V_2022-11-24_10h31.00.383.csv
662,2.0,right,right,1.0,1.189,0.0,2.0,2.0,2.0,1.0,2901949316-293452.jpg,2874301407-363895.jpg,AIEKCWYZTS41V_2022-11-24_10h31.00.383.csv
663,3.0,right,left,0.0,0.8573,0.0,3.0,3.0,3.0,1.0,2238574878-36413.jpg,2981231403-71642.jpg,AIEKCWYZTS41V_2022-11-24_10h31.00.383.csv
664,1.0,left,left,1.0,1.9028,0.0,4.0,4.0,4.0,1.0,2964213381-294060.jpg,2981244394-145974.jpg,AIEKCWYZTS41V_2022-11-24_10h31.00.383.csv
665,2.0,right,right,1.0,0.8518,0.0,5.0,5.0,5.0,1.0,2901946413-70227.jpg,2575120738-55529.jpg,AIEKCWYZTS41V_2022-11-24_10h31.00.383.csv
666,1.0,left,left,1.0,1.1939,0.0,6.0,6.0,6.0,1.0,2449441881-272368.jpg,2984615361-295509.jpg,AIEKCWYZTS41V_2022-11-24_10h31.00.383.csv
667,2.0,right,left,0.0,1.3105,0.0,7.0,7.0,7.0,1.0,2981244403-72215.jpg,2238425482-313537.jpg,AIEKCWYZTS41V_2022-11-24_10h31.00.383.csv
668,2.0,left,right,0.0,1.183,0.0,8.0,8.0,8.0,1.0,2238580740-186218.jpg,2575121108-55628.jpg,AIEKCWYZTS41V_2022-11-24_10h31.00.383.csv
669,1.0,right,right,1.0,1.004,0.0,9.0,9.0,9.0,1.0,2964207374-144577.jpg,2898624426-291546.jpg,AIEKCWYZTS41V_2022-11-24_10h31.00.383.csv
670,1.0,left,left,1.0,1.3742,0.0,10.0,10.0,10.0,1.0,2238560245-182099.jpg,2549106624-127823.jpg,AIEKCWYZTS41V_2022-11-24_10h31.00.383.csv
671,3.0,left,right,0.0,1.3086,0.0,11.0,11.0,11.0,1.0,2449442529-124446.jpg,2460547536-274179.jpg,AIEKCWYZTS41V_2022-11-24_10h31.00.383.csv
672,3.0,left,left,1.0,1.0666,0.0,12.0,12.0,12.0,1.0,2874302418-65978.jpg,2238567130-183315.jpg,AIEKCWYZTS41V_2022-11-24_10h31.00.383.csv
673,1.0,left,left,1.0,0.9611,0.0,13.0,13.0,13.0,1.0,2898618444-142233.jpg,2898631359-142721.jpg,AIEKCWYZTS41V_2022-11-24_10h31.00.383.csv
674,1.0,right,left,0.0,1.096,0.0,14.0,14.0,14.0,1.0,2883255450-215311.jpg,2883254439-140941.jpg,AIEKCWYZTS41V_2022-11-24_10h31.00.383.csv
675,1.0,right,right,1.0,0.9871,0.0,15.0,15.0,15.0,1.0,2901938432-367627.jpg,2452381505-199546.jpg,AIEKCWYZTS41V_2022-11-24_10h31.00.383.csv
676,2.0,left,right,0.0,0.8448,0.0,16.0,16.0,16.0,1.0,2981241414-145842.jpg,2868469411-287540.jpg,AIEKCWYZTS41V_2022-11-24_10h31.00.383.csv
677,3.0,left,right,0.0,1.1404,0.0,17.0,17.0,17.0,1.0,2864910426-287204.jpg,2898632427-367006.jpg,AIEKCWYZTS41V_2022-11-24_10h31.00.383.csv
678,2.0,left,left,1.0,1.3612,0.0,18.0,18.0,18.0,1.0,2460547467-349421.jpg,2981235446-294901.jpg,AIEKCWYZTS41V_2022-11-24_10h31.00.383.csv
679,2.0,left,left,1.0,0.8763,0.0,19.0,19.0,19.0,1.0,2898635428-69104.jpg,2864904390-212289.jpg,AIEKCWYZTS41V_2022-11-24_10h31.00.383.csv
680,3.0,left,left,1.0,1.4696,0.0,20.0,20.0,20.0,1.0,2452380832-348593.jpg,2237856283-1014.jpg,AIEKCWYZTS41V_2022-11-24_10h31.00.383.csv
681,1.0,right,right,1.0,1.1187,0.0,21.0,21.0,21.0,1.0,2883268471-290843.jpg,2883268471-290842.jpg,AIEKCWYZTS41V_2022-11-24_10h31.00.383.csv
682,3.0,right,right,1.0,0.7727,0.0,22.0,22.0,22.0,1.0,2856919327-359675.jpg,2238428357-313623.jpg,AIEKCWYZTS41V_2022-11-24_10h31.00.383.csv
683,2.0,right,right,1.0,0.9886,0.0,23.0,23.0,23.0,1.0,2864901420-212148.jpg,2883256307-365057.jpg,AIEKCWYZTS41V_2022-11-24_10h31.00.383.csv
684,2.0,right,right,1.0,0.8864,0.0,24.0,24.0,24.0,1.0,2446761173-49643.jpg,2238480677-317399.jpg,AIEKCWYZTS41V_2022-11-24_10h31.00.383.csv
685,1.0,right,right,1.0,1.3857,0.0,25.0,25.0,25.0,1.0,2575963989-130576.jpg,2592379964-131054.jpg,AIEKCWYZTS41V_2022-11-24_10h31.00.383.csv
686,1.0,left,left,1.0,1.0467,0.0,26.0,26.0,26.0,1.0,2460547508-51571.jpg,2446760917-347439.jpg,AIEKCWYZTS41V_2022-11-24_10h31.00.383.csv
687,2.0,left,left,1.0,0.959,0.0,27.0,27.0,27.0,1.0,2874303365-214262.jpg,2512875685-200826.jpg,AIEKCWYZTS41V_2022-11-24_10h31.00.383.csv
688,2.0,right,right,1.0,1.249,0.0,28.0,28.0,28.0,1.0,2883264367-365621.jpg,2864907432-362042.jpg,AIEKCWYZTS41V_2022-11-24_10h31.00.383.csv
689,2.0,right,right,1.0,1.2223,0.0,29.0,29.0,29.0,1.0,2964217461-294238.jpg,2964223381-294447.jpg,AIEKCWYZTS41V_2022-11-24_10h31.00.383.csv
690,3.0,left,left,1.0,1.0953,0.0,30.0,30.0,30.0,1.0,2449442529-124445.jpg,2901946439-144040.jpg,AIEKCWYZTS41V_2022-11-24_10h31.00.383.csv
691,3.0,right,left,0.0,0.9545,0.0,31.0,31.0,31.0,1.0,2898634332-367068.jpg,2868474407-362883.jpg,AIEKCWYZTS41V_2022-11-24_10h31.00.383.csv
692,3.0,left,left,1.0,1.0647,0.0,32.0,32.0,32.0,1.0,2901941401-292798.jpg,2883273443-68192.jpg,AIEKCWYZTS41V_2022-11-24_10h31.00.383.csv
693,3.0,left,left,1.0,0.8165,0.0,33.0,33.0,33.0,1.0,2901939379-143479.jpg,2446759306-271734.jpg,AIEKCWYZTS41V_2022-11-24_10h31.00.383.csv
694,3.0,left,right,0.0,1.1016,0.0,34.0,34.0,34.0,1.0,2883268412-365898.jpg,2862687418-62786.jpg,AIEKCWYZTS41V_2022-11-24_10h31.00.383.csv
695,1.0,right,right,1.0,1.0765,0.0,35.0,35.0,35.0,1.0,2964221435-219434.jpg,2898635427-367120.jpg,AIEKCWYZTS41V_2022-11-24_10h31.00.383.csv
696,3.0,left,right,0.0,1.1433,0.0,36.0,36.0,36.0,1.0,2238481928-19949.jpg,2864910427-362200.jpg,AIEKCWYZTS41V_2022-11-24_10h31.00.383.csv
697,2.0,left,left,1.0,0.9327,0.0,37.0,37.0,37.0,1.0,2898617468-68274.jpg,2238433340-164524.jpg,AIEKCWYZTS41V_2022-11-24_10h31.00.383.csv
698,1.0,right,right,1.0,1.2426,0.0,38.0,38.0,38.0,1.0,2512876023-52283.jpg,2898633421-291973.jpg,AIEKCWYZTS41V_2022-11-24_10h31.00.383.csv
699,1.0,left,left,1.0,1.13,0.0,39.0,39.0,39.0,1.0,2446758985-197609.jpg,2981240424-145795.jpg,AIEKCWYZTS41V_2022-11-24_10h31.00.383.csv
700,3.0,left,left,1.0,1.6538,0.0,40.0,40.0,40.0,1.0,2512875899-126682.jpg,2512875899-126681.jpg,AIEKCWYZTS41V_2022-11-24_10h31.00.383.csv
701,1.0,right,left,0.0,1.1283,0.0,41.0,41.0,41.0,1.0,2446760601-272099.jpg,2446759803-49249.jpg,AIEKCWYZTS41V_2022-11-24_10h31.00.383.csv
702,2.0,left,right,0.0,1.0269,0.0,42.0,42.0,42.0,1.0,2868475410-213219.jpg,2862700345-211776.jpg,AIEKCWYZTS41V_2022-11-24_10h31.00.383.csv
703,3.0,right,left,0.0,1.1066,0.0,43.0,43.0,43.0,1.0,2446759306-271735.jpg,2898634397-367080.jpg,AIEKCWYZTS41V_2022-11-24_10h31.00.383.csv
704,1.0,left,left,1.0,1.4348,0.0,44.0,44.0,44.0,1.0,2592380177-354626.jpg,2986408339-146952.jpg,AIEKCWYZTS41V_2022-11-24_10h31.00.383.csv
705,2.0,right,left,0.0,1.3662,0.0,45.0,45.0,45.0,1.0,2238571930-184143.jpg,2874299429-139695.jpg,AIEKCWYZTS41V_2022-11-24_10h31.00.383.csv
706,3.0,left,left,1.0,1.0746,0.0,46.0,46.0,46.0,1.0,2238572663-35822.jpg,2238375825-162206.jpg,AIEKCWYZTS41V_2022-11-24_10h31.00.383.csv
707,3.0,right,right,1.0,1.4186,0.0,47.0,47.0,47.0,1.0,2238470808-18373.jpg,2874302418-65979.jpg,AIEKCWYZTS41V_2022-11-24_10h31.00.383.csv
708,1.0,left,left,1.0,1.1845,0.0,48.0,48.0,48.0,1.0,2964218374-144967.jpg,2964218374-144968.jpg,AIEKCWYZTS41V_2022-11-24_10h31.00.383.csv
709,2.0,left,left,1.0,1.2018,0.0,49.0,49.0,49.0,1.0,2901939379-143480.jpg,2964218373-71170.jpg,AIEKCWYZTS41V_2022-11-24_10h31.00.383.csv
710,1.0,right,right,1.0,1.4436,0.0,50.0,50.0,50.0,1.0,2986447306-296584.jpg,2874307433-66280.jpg,AIEKCWYZTS41V_2022-11-24_10h31.00.383.csv
711,1.0,right,right,1.0,1.1819,0.0,51.0,51.0,51.0,1.0,2901939327-367669.jpg,2986451363-73599.jpg,AIEKCWYZTS41V_2022-11-24_10h31.00.383.csv
712,1.0,left,right,0.0,1.9912,0.0,52.0,52.0,52.0,1.0,2901948350-218459.jpg,2868487415-213922.jpg,AIEKCWYZTS41V_2022-11-24_10h31.00.383.csv
713,2.0,right,right,1.0,1.4397,0.0,53.0,53.0,53.0,1.0,2862689306-285912.jpg,2238481198-19822.jpg,AIEKCWYZTS41V_2022-11-24_10h31.00.383.csv
714,2.0,right,right,1.0,1.2615,0.0,54.0,54.0,54.0,1.0,2446759065-197639.jpg,2901947423-70311.jpg,AIEKCWYZTS41V_2022-11-24_10h31.00.383.csv
715,2.0,right,right,1.0,0.9694,0.0,55.0,55.0,55.0,1.0,2864910427-362199.jpg,2898618390-216538.jpg,AIEKCWYZTS41V_2022-11-24_10h31.00.383.csv
716,3.0,right,right,1.0,1.3538,0.0,56.0,56.0,56.0,1.0,2238436632-314070.jpg,2458347385-199723.jpg,AIEKCWYZTS41V_2022-11-24_10h31.00.383.csv
717,1.0,left,right,0.0,1.6887,0.0,57.0,57.0,57.0,1.0,2446759347-347016.jpg,2964224310-219528.jpg,AIEKCWYZTS41V_2022-11-24_10h31.00.383.csv
718,3.0,right,right,1.0,1.6105,0.0,58.0,58.0,58.0,1.0,2238537701-251773.jpg,2901952513-70703.jpg,AIEKCWYZTS41V_2022-11-24_10h31.00.383.csv
719,2.0,left,left,1.0,1.2044,0.0,59.0,59.0,59.0,1.0,2592380177-354629.jpg,2901945495-218294.jpg,AIEKCWYZTS41V_2022-11-24_10h31.00.383.csv
