,layer,correct,test_test_response.keys,test_test_response.corr,test_test_response.rt,trials_2.thisRepN,trials_2.thisTrialN,trials_2.thisN,trials_2.thisIndex,trials_2.ran,image1,image2,subject
0,1.0,right,right,1.0,2.4132,0.0,0.0,0.0,0.0,1.0,2864906345-212360.jpg,2575120738-55529.jpg,A3SSIUMI7ONK5W_2022-09-25_04h10.26.271.csv
1,3.0,left,left,1.0,0.8797,0.0,1.0,1.0,1.0,1.0,2883273443-68193.jpg,2898627427-366763.jpg,A3SSIUMI7ONK5W_2022-09-25_04h10.26.271.csv
2,3.0,left,right,0.0,0.6854,0.0,2.0,2.0,2.0,1.0,2883256307-365057.jpg,2864904453-63933.jpg,A3SSIUMI7ONK5W_2022-09-25_04h10.26.271.csv
3,1.0,left,left,1.0,0.5935,0.0,3.0,3.0,3.0,1.0,2874299429-139694.jpg,2986447306-296584.jpg,A3SSIUMI7ONK5W_2022-09-25_04h10.26.271.csv
4,3.0,left,right,0.0,0.4966,0.0,4.0,4.0,4.0,1.0,2238481198-19822.jpg,2238480803-19737.jpg,A3SSIUMI7ONK5W_2022-09-25_04h10.26.271.csv
5,2.0,left,right,0.0,0.5938,0.0,5.0,5.0,5.0,1.0,2864910426-287204.jpg,2883268412-365899.jpg,A3SSIUMI7ONK5W_2022-09-25_04h10.26.271.csv
6,3.0,right,left,0.0,0.4934,0.0,6.0,6.0,6.0,1.0,2964216376-294181.jpg,2901939379-143479.jpg,A3SSIUMI7ONK5W_2022-09-25_04h10.26.271.csv
7,1.0,right,right,1.0,0.6761,0.0,7.0,7.0,7.0,1.0,2964221435-219434.jpg,2898635427-367120.jpg,A3SSIUMI7ONK5W_2022-09-25_04h10.26.271.csv
8,2.0,left,left,1.0,0.4957,0.0,8.0,8.0,8.0,1.0,2986451363-73599.jpg,2860302315-210704.jpg,A3SSIUMI7ONK5W_2022-09-25_04h10.26.271.csv
9,3.0,left,right,0.0,0.3842,0.0,9.0,9.0,9.0,1.0,2898618390-216538.jpg,2575120609-129862.jpg,A3SSIUMI7ONK5W_2022-09-25_04h10.26.271.csv
10,2.0,left,left,1.0,0.4854,0.0,10.0,10.0,10.0,1.0,2446758985-197609.jpg,2864909447-362144.jpg,A3SSIUMI7ONK5W_2022-09-25_04h10.26.271.csv
11,1.0,right,right,1.0,0.3929,0.0,11.0,11.0,11.0,1.0,2984626312-370849.jpg,2883268412-365898.jpg,A3SSIUMI7ONK5W_2022-09-25_04h10.26.271.csv
12,3.0,left,left,1.0,0.4953,0.0,12.0,12.0,12.0,1.0,2964216465-219242.jpg,2898619327-366362.jpg,A3SSIUMI7ONK5W_2022-09-25_04h10.26.271.csv
13,1.0,right,right,1.0,0.3938,0.0,13.0,13.0,13.0,1.0,2452380171-273112.jpg,2449442529-124445.jpg,A3SSIUMI7ONK5W_2022-09-25_04h10.26.271.csv
14,3.0,right,left,0.0,0.3923,0.0,14.0,14.0,14.0,1.0,2986447332-371497.jpg,2512875899-126682.jpg,A3SSIUMI7ONK5W_2022-09-25_04h10.26.271.csv
15,3.0,right,left,0.0,0.3979,0.0,15.0,15.0,15.0,1.0,2238577590-185467.jpg,2901947423-70311.jpg,A3SSIUMI7ONK5W_2022-09-25_04h10.26.271.csv
16,1.0,right,right,1.0,0.396,0.0,16.0,16.0,16.0,1.0,2238499057-320266.jpg,2238428357-313623.jpg,A3SSIUMI7ONK5W_2022-09-25_04h10.26.271.csv
17,1.0,left,left,1.0,0.394,0.0,17.0,17.0,17.0,1.0,2452381505-199546.jpg,2901938432-367627.jpg,A3SSIUMI7ONK5W_2022-09-25_04h10.26.271.csv
18,1.0,right,right,1.0,0.2949,0.0,18.0,18.0,18.0,1.0,2238516618-25604.jpg,2981241414-145842.jpg,A3SSIUMI7ONK5W_2022-09-25_04h10.26.271.csv
19,1.0,right,left,0.0,0.3946,0.0,19.0,19.0,19.0,1.0,2446761374-124213.jpg,2874301407-363895.jpg,A3SSIUMI7ONK5W_2022-09-25_04h10.26.271.csv
20,2.0,left,right,0.0,0.3969,0.0,20.0,20.0,20.0,1.0,2898617468-68274.jpg,2901943387-368037.jpg,A3SSIUMI7ONK5W_2022-09-25_04h10.26.271.csv
21,1.0,left,left,1.0,0.3047,0.0,21.0,21.0,21.0,1.0,2460547508-51571.jpg,2452380166-273109.jpg,A3SSIUMI7ONK5W_2022-09-25_04h10.26.271.csv
22,3.0,left,right,0.0,0.3947,0.0,22.0,22.0,22.0,1.0,2874302418-65978.jpg,2898633321-291943.jpg,A3SSIUMI7ONK5W_2022-09-25_04h10.26.271.csv
23,1.0,right,left,0.0,0.2974,0.0,23.0,23.0,23.0,1.0,2898633421-291974.jpg,2592380177-354629.jpg,A3SSIUMI7ONK5W_2022-09-25_04h10.26.271.csv
24,2.0,right,right,1.0,0.3927,0.0,24.0,24.0,24.0,1.0,2238480648-19714.jpg,2874302418-65979.jpg,A3SSIUMI7ONK5W_2022-09-25_04h10.26.271.csv
25,3.0,right,left,0.0,0.3937,0.0,25.0,25.0,25.0,1.0,2237858942-299356.jpg,2452380832-348593.jpg,A3SSIUMI7ONK5W_2022-09-25_04h10.26.271.csv
26,3.0,left,right,0.0,0.2975,0.0,26.0,26.0,26.0,1.0,2238560245-182099.jpg,2238480980-168129.jpg,A3SSIUMI7ONK5W_2022-09-25_04h10.26.271.csv
27,3.0,right,left,0.0,0.3927,0.0,27.0,27.0,27.0,1.0,2898618444-142232.jpg,2898618444-142233.jpg,A3SSIUMI7ONK5W_2022-09-25_04h10.26.271.csv
28,3.0,right,right,1.0,0.2964,0.0,28.0,28.0,28.0,1.0,2898631468-68931.jpg,2901941401-292798.jpg,A3SSIUMI7ONK5W_2022-09-25_04h10.26.271.csv
29,1.0,left,right,0.0,0.3045,0.0,29.0,29.0,29.0,1.0,2901952513-70703.jpg,2864907361-287062.jpg,A3SSIUMI7ONK5W_2022-09-25_04h10.26.271.csv
30,1.0,left,left,1.0,0.389,0.0,30.0,30.0,30.0,1.0,2868475410-213219.jpg,2901946465-218350.jpg,A3SSIUMI7ONK5W_2022-09-25_04h10.26.271.csv
31,2.0,left,right,0.0,0.2967,0.0,31.0,31.0,31.0,1.0,2964222378-71332.jpg,2901933382-367209.jpg,A3SSIUMI7ONK5W_2022-09-25_04h10.26.271.csv
32,3.0,right,left,0.0,0.3928,0.0,32.0,32.0,32.0,1.0,2446760917-347439.jpg,2874299429-139695.jpg,A3SSIUMI7ONK5W_2022-09-25_04h10.26.271.csv
33,2.0,left,left,1.0,0.2973,0.0,33.0,33.0,33.0,1.0,2864907432-362042.jpg,2901947423-70310.jpg,A3SSIUMI7ONK5W_2022-09-25_04h10.26.271.csv
34,1.0,left,right,0.0,0.4019,0.0,34.0,34.0,34.0,1.0,2898624426-291546.jpg,2964218432-369263.jpg,A3SSIUMI7ONK5W_2022-09-25_04h10.26.271.csv
35,3.0,left,left,1.0,0.2972,0.0,35.0,35.0,35.0,1.0,2460547467-349421.jpg,2981235446-294901.jpg,A3SSIUMI7ONK5W_2022-09-25_04h10.26.271.csv
36,3.0,right,right,1.0,0.3942,0.0,36.0,36.0,36.0,1.0,2964220333-71258.jpg,2238580740-186218.jpg,A3SSIUMI7ONK5W_2022-09-25_04h10.26.271.csv
37,2.0,right,left,0.0,0.3973,0.0,37.0,37.0,37.0,1.0,2575118671-277663.jpg,2898633421-291973.jpg,A3SSIUMI7ONK5W_2022-09-25_04h10.26.271.csv
38,2.0,right,right,1.0,0.2979,0.0,38.0,38.0,38.0,1.0,2981246400-220365.jpg,2874307433-66280.jpg,A3SSIUMI7ONK5W_2022-09-25_04h10.26.271.csv
39,3.0,left,right,0.0,0.4065,0.0,39.0,39.0,39.0,1.0,2898634397-367080.jpg,2964217461-294238.jpg,A3SSIUMI7ONK5W_2022-09-25_04h10.26.271.csv
40,1.0,left,left,1.0,0.2983,0.0,40.0,40.0,40.0,1.0,2449442529-124446.jpg,2446759803-49251.jpg,A3SSIUMI7ONK5W_2022-09-25_04h10.26.271.csv
41,2.0,right,left,0.0,0.3979,0.0,41.0,41.0,41.0,1.0,2446759306-271734.jpg,2964218374-144967.jpg,A3SSIUMI7ONK5W_2022-09-25_04h10.26.271.csv
42,3.0,left,right,0.0,0.3022,0.0,42.0,42.0,42.0,1.0,2981231403-71642.jpg,2427873763-47290.jpg,A3SSIUMI7ONK5W_2022-09-25_04h10.26.271.csv
43,1.0,right,right,1.0,0.2967,0.0,43.0,43.0,43.0,1.0,2238584894-113161.jpg,2238572663-35822.jpg,A3SSIUMI7ONK5W_2022-09-25_04h10.26.271.csv
44,2.0,left,left,1.0,0.3983,0.0,44.0,44.0,44.0,1.0,2901939379-143480.jpg,2981229442-369621.jpg,A3SSIUMI7ONK5W_2022-09-25_04h10.26.271.csv
45,2.0,left,right,0.0,0.5923,0.0,45.0,45.0,45.0,1.0,2874303365-214262.jpg,2238563377-332054.jpg,A3SSIUMI7ONK5W_2022-09-25_04h10.26.271.csv
46,2.0,right,left,0.0,0.3004,0.0,46.0,46.0,46.0,1.0,2238436322-314047.jpg,2238425482-313537.jpg,A3SSIUMI7ONK5W_2022-09-25_04h10.26.271.csv
47,2.0,right,right,1.0,0.394,0.0,47.0,47.0,47.0,1.0,2898618440-216547.jpg,2446759803-49249.jpg,A3SSIUMI7ONK5W_2022-09-25_04h10.26.271.csv
48,2.0,right,left,0.0,0.3955,0.0,48.0,48.0,48.0,1.0,2458348012-349114.jpg,2964213381-294060.jpg,A3SSIUMI7ONK5W_2022-09-25_04h10.26.271.csv
49,1.0,right,right,1.0,0.3886,0.0,49.0,49.0,49.0,1.0,2883268471-290843.jpg,2883268471-290842.jpg,A3SSIUMI7ONK5W_2022-09-25_04h10.26.271.csv
50,2.0,left,left,1.0,0.2969,0.0,50.0,50.0,50.0,1.0,2460547467-349422.jpg,2868487415-213924.jpg,A3SSIUMI7ONK5W_2022-09-25_04h10.26.271.csv
51,1.0,left,right,0.0,0.39,0.0,51.0,51.0,51.0,1.0,2238481928-19949.jpg,2883264367-365620.jpg,A3SSIUMI7ONK5W_2022-09-25_04h10.26.271.csv
52,3.0,left,left,1.0,0.3996,0.0,52.0,52.0,52.0,1.0,2898635428-69104.jpg,2898625336-291572.jpg,A3SSIUMI7ONK5W_2022-09-25_04h10.26.271.csv
53,3.0,left,right,0.0,0.3936,0.0,53.0,53.0,53.0,1.0,2868474407-362883.jpg,2901948383-70363.jpg,A3SSIUMI7ONK5W_2022-09-25_04h10.26.271.csv
54,1.0,left,left,1.0,0.3948,0.0,54.0,54.0,54.0,1.0,2592380177-354626.jpg,2238576792-334659.jpg,A3SSIUMI7ONK5W_2022-09-25_04h10.26.271.csv
55,2.0,left,right,0.0,0.4937,0.0,55.0,55.0,55.0,1.0,2986451363-73598.jpg,2984628361-295995.jpg,A3SSIUMI7ONK5W_2022-09-25_04h10.26.271.csv
56,2.0,right,right,1.0,0.2949,0.0,56.0,56.0,56.0,1.0,2427874554-121863.jpg,2458347385-199723.jpg,A3SSIUMI7ONK5W_2022-09-25_04h10.26.271.csv
57,2.0,right,left,0.0,0.3001,0.0,57.0,57.0,57.0,1.0,2238573546-258454.jpg,2238480677-317399.jpg,A3SSIUMI7ONK5W_2022-09-25_04h10.26.271.csv
58,2.0,left,left,1.0,0.3018,0.0,58.0,58.0,58.0,1.0,2964223381-294447.jpg,2901941438-69836.jpg,A3SSIUMI7ONK5W_2022-09-25_04h10.26.271.csv
59,1.0,right,right,1.0,0.3968,0.0,59.0,59.0,59.0,1.0,2575963989-130576.jpg,2592379964-131054.jpg,A3SSIUMI7ONK5W_2022-09-25_04h10.26.271.csv
60,3.0,left,left,1.0,4.1186,0.0,0.0,0.0,0.0,1.0,2901939379-143479.jpg,2964216376-294181.jpg,A2LMSIDVE4E4IO_2022-09-25_06h14.30.418.csv
61,1.0,left,left,1.0,1.6289,0.0,1.0,1.0,1.0,1.0,2898624426-291546.jpg,2964218432-369263.jpg,A2LMSIDVE4E4IO_2022-09-25_06h14.30.418.csv
62,3.0,right,right,1.0,2.5841,0.0,2.0,2.0,2.0,1.0,2238480980-168129.jpg,2238560245-182099.jpg,A2LMSIDVE4E4IO_2022-09-25_06h14.30.418.csv
63,1.0,right,right,1.0,2.5707,0.0,3.0,3.0,3.0,1.0,2898626385-216899.jpg,2986451363-73599.jpg,A2LMSIDVE4E4IO_2022-09-25_06h14.30.418.csv
64,1.0,left,left,1.0,1.481,0.0,4.0,4.0,4.0,1.0,2868475410-213219.jpg,2901946465-218350.jpg,A2LMSIDVE4E4IO_2022-09-25_06h14.30.418.csv
65,3.0,right,left,0.0,1.7488,0.0,5.0,5.0,5.0,1.0,2964217461-294238.jpg,2898634397-367080.jpg,A2LMSIDVE4E4IO_2022-09-25_06h14.30.418.csv
66,3.0,right,right,1.0,2.2241,0.0,6.0,6.0,6.0,1.0,2864903351-286874.jpg,2238572663-35822.jpg,A2LMSIDVE4E4IO_2022-09-25_06h14.30.418.csv
67,1.0,right,right,1.0,1.3966,0.0,7.0,7.0,7.0,1.0,2898631359-142721.jpg,2898618444-142233.jpg,A2LMSIDVE4E4IO_2022-09-25_06h14.30.418.csv
68,3.0,right,left,0.0,1.2749,0.0,8.0,8.0,8.0,1.0,2964213381-294061.jpg,2964213381-294060.jpg,A2LMSIDVE4E4IO_2022-09-25_06h14.30.418.csv
69,1.0,right,right,1.0,2.0548,0.0,9.0,9.0,9.0,1.0,2864902304-137862.jpg,2864910426-287204.jpg,A2LMSIDVE4E4IO_2022-09-25_06h14.30.418.csv
70,2.0,left,left,1.0,1.1323,0.0,10.0,10.0,10.0,1.0,2238481198-19822.jpg,2901946436-293242.jpg,A2LMSIDVE4E4IO_2022-09-25_06h14.30.418.csv
71,1.0,left,left,1.0,1.2507,0.0,11.0,11.0,11.0,1.0,2449442529-124445.jpg,2452380171-273112.jpg,A2LMSIDVE4E4IO_2022-09-25_06h14.30.418.csv
72,3.0,left,left,1.0,1.2067,0.0,12.0,12.0,12.0,1.0,2460547467-349422.jpg,2864909447-362146.jpg,A2LMSIDVE4E4IO_2022-09-25_06h14.30.418.csv
73,2.0,right,left,0.0,1.5708,0.0,13.0,13.0,13.0,1.0,2981243412-370222.jpg,2901941401-292798.jpg,A2LMSIDVE4E4IO_2022-09-25_06h14.30.418.csv
74,1.0,right,left,0.0,1.5381,0.0,14.0,14.0,14.0,1.0,2964218374-144968.jpg,2964218374-144967.jpg,A2LMSIDVE4E4IO_2022-09-25_06h14.30.418.csv
75,3.0,left,right,0.0,1.6053,0.0,15.0,15.0,15.0,1.0,2883268412-365898.jpg,2238436252-314037.jpg,A2LMSIDVE4E4IO_2022-09-25_06h14.30.418.csv
76,2.0,right,left,0.0,1.4929,0.0,16.0,16.0,16.0,1.0,2864900357-361688.jpg,2238481928-19949.jpg,A2LMSIDVE4E4IO_2022-09-25_06h14.30.418.csv
77,3.0,right,right,1.0,1.6657,0.0,17.0,17.0,17.0,1.0,2427873848-47312.jpg,2981241414-145842.jpg,A2LMSIDVE4E4IO_2022-09-25_06h14.30.418.csv
78,3.0,right,right,1.0,1.7438,0.0,18.0,18.0,18.0,1.0,2901947323-70275.jpg,2874301407-363895.jpg,A2LMSIDVE4E4IO_2022-09-25_06h14.30.418.csv
79,1.0,right,right,1.0,1.4708,0.0,19.0,19.0,19.0,1.0,2864907361-287062.jpg,2901952513-70703.jpg,A2LMSIDVE4E4IO_2022-09-25_06h14.30.418.csv
80,1.0,left,left,1.0,1.4714,0.0,20.0,20.0,20.0,1.0,2512875899-126682.jpg,2460547536-274179.jpg,A2LMSIDVE4E4IO_2022-09-25_06h14.30.418.csv
81,2.0,left,left,1.0,1.8274,0.0,21.0,21.0,21.0,1.0,2592380177-354629.jpg,2579432534-130704.jpg,A2LMSIDVE4E4IO_2022-09-25_06h14.30.418.csv
82,2.0,left,right,0.0,1.312,0.0,22.0,22.0,22.0,1.0,2868474407-362883.jpg,2981246400-220363.jpg,A2LMSIDVE4E4IO_2022-09-25_06h14.30.418.csv
83,1.0,right,right,1.0,1.3814,0.0,23.0,23.0,23.0,1.0,2883266388-67750.jpg,2874299429-139695.jpg,A2LMSIDVE4E4IO_2022-09-25_06h14.30.418.csv
84,2.0,right,right,1.0,1.5363,0.0,24.0,24.0,24.0,1.0,2575118671-277663.jpg,2898633421-291973.jpg,A2LMSIDVE4E4IO_2022-09-25_06h14.30.418.csv
85,1.0,left,left,1.0,1.2942,0.0,25.0,25.0,25.0,1.0,2592379964-131054.jpg,2575963989-130576.jpg,A2LMSIDVE4E4IO_2022-09-25_06h14.30.418.csv
86,1.0,left,left,1.0,1.3952,0.0,26.0,26.0,26.0,1.0,2452381505-199546.jpg,2901938432-367627.jpg,A2LMSIDVE4E4IO_2022-09-25_06h14.30.418.csv
87,1.0,left,left,1.0,1.4435,0.0,27.0,27.0,27.0,1.0,2883256307-365057.jpg,2611628310-206388.jpg,A2LMSIDVE4E4IO_2022-09-25_06h14.30.418.csv
88,2.0,left,left,1.0,1.2046,0.0,28.0,28.0,28.0,1.0,2898635427-367120.jpg,2868479517-363220.jpg,A2LMSIDVE4E4IO_2022-09-25_06h14.30.418.csv
89,3.0,left,left,1.0,1.0271,0.0,29.0,29.0,29.0,1.0,2446759803-49249.jpg,2901951392-368654.jpg,A2LMSIDVE4E4IO_2022-09-25_06h14.30.418.csv
90,3.0,left,left,1.0,1.5191,0.0,30.0,30.0,30.0,1.0,2446758985-197609.jpg,2898624426-291544.jpg,A2LMSIDVE4E4IO_2022-09-25_06h14.30.418.csv
91,3.0,right,left,0.0,1.4832,0.0,31.0,31.0,31.0,1.0,2898633480-217190.jpg,2238425482-313537.jpg,A2LMSIDVE4E4IO_2022-09-25_06h14.30.418.csv
92,2.0,right,left,0.0,2.3072,0.0,32.0,32.0,32.0,1.0,2864900319-137787.jpg,2964216465-219242.jpg,A2LMSIDVE4E4IO_2022-09-25_06h14.30.418.csv
93,3.0,right,right,1.0,1.5674,0.0,33.0,33.0,33.0,1.0,2986408339-146952.jpg,2238428357-313623.jpg,A2LMSIDVE4E4IO_2022-09-25_06h14.30.418.csv
94,1.0,left,left,1.0,1.1241,0.0,34.0,34.0,34.0,1.0,2874303365-214262.jpg,2274829821-263682.jpg,A2LMSIDVE4E4IO_2022-09-25_06h14.30.418.csv
95,2.0,right,left,0.0,1.4778,0.0,35.0,35.0,35.0,1.0,2901933382-367209.jpg,2964222378-71332.jpg,A2LMSIDVE4E4IO_2022-09-25_06h14.30.418.csv
96,3.0,right,right,1.0,1.2144,0.0,36.0,36.0,36.0,1.0,2883266367-365742.jpg,2874299429-139694.jpg,A2LMSIDVE4E4IO_2022-09-25_06h14.30.418.csv
97,1.0,left,left,1.0,1.7577,0.0,37.0,37.0,37.0,1.0,2238480677-317399.jpg,2238481630-168218.jpg,A2LMSIDVE4E4IO_2022-09-25_06h14.30.418.csv
98,2.0,right,left,0.0,1.3142,0.0,38.0,38.0,38.0,1.0,2238481198-19823.jpg,2874302418-65978.jpg,A2LMSIDVE4E4IO_2022-09-25_06h14.30.418.csv
99,2.0,right,right,1.0,1.3784,0.0,39.0,39.0,39.0,1.0,2981229442-369621.jpg,2901939379-143480.jpg,A2LMSIDVE4E4IO_2022-09-25_06h14.30.418.csv
100,2.0,left,left,1.0,1.4608,0.0,40.0,40.0,40.0,1.0,2238580740-186218.jpg,2238521193-26285.jpg,A2LMSIDVE4E4IO_2022-09-25_06h14.30.418.csv
101,2.0,left,left,1.0,1.899,0.0,41.0,41.0,41.0,1.0,2460547508-51571.jpg,2981232437-369759.jpg,A2LMSIDVE4E4IO_2022-09-25_06h14.30.418.csv
102,3.0,right,right,1.0,1.5367,0.0,42.0,42.0,42.0,1.0,2238577590-185467.jpg,2901947423-70311.jpg,A2LMSIDVE4E4IO_2022-09-25_06h14.30.418.csv
103,3.0,left,left,1.0,1.6364,0.0,43.0,43.0,43.0,1.0,2883273443-68193.jpg,2898627427-366763.jpg,A2LMSIDVE4E4IO_2022-09-25_06h14.30.418.csv
104,1.0,left,left,1.0,1.2088,0.0,44.0,44.0,44.0,1.0,2964223381-294447.jpg,2427874231-269884.jpg,A2LMSIDVE4E4IO_2022-09-25_06h14.30.418.csv
105,2.0,left,left,1.0,1.2715,0.0,45.0,45.0,45.0,1.0,2898635428-69104.jpg,2901943411-292945.jpg,A2LMSIDVE4E4IO_2022-09-25_06h14.30.418.csv
106,3.0,left,right,0.0,1.2976,0.0,46.0,46.0,46.0,1.0,2575120738-55529.jpg,2238531493-28260.jpg,A2LMSIDVE4E4IO_2022-09-25_06h14.30.418.csv
107,2.0,left,right,0.0,1.2873,0.0,47.0,47.0,47.0,1.0,2874307433-66280.jpg,2981246400-220365.jpg,A2LMSIDVE4E4IO_2022-09-25_06h14.30.418.csv
108,2.0,right,right,1.0,1.2085,0.0,48.0,48.0,48.0,1.0,2460547536-274181.jpg,2449442529-124446.jpg,A2LMSIDVE4E4IO_2022-09-25_06h14.30.418.csv
109,1.0,left,left,1.0,1.0482,0.0,49.0,49.0,49.0,1.0,2898617468-68274.jpg,2901946439-144040.jpg,A2LMSIDVE4E4IO_2022-09-25_06h14.30.418.csv
110,2.0,left,left,1.0,1.9579,0.0,50.0,50.0,50.0,1.0,2864907432-362042.jpg,2901947423-70310.jpg,A2LMSIDVE4E4IO_2022-09-25_06h14.30.418.csv
111,2.0,right,left,0.0,1.57,0.0,51.0,51.0,51.0,1.0,2427874554-121863.jpg,2458347385-199723.jpg,A2LMSIDVE4E4IO_2022-09-25_06h14.30.418.csv
112,1.0,right,right,1.0,1.1381,0.0,52.0,52.0,52.0,1.0,2238576792-334659.jpg,2592380177-354626.jpg,A2LMSIDVE4E4IO_2022-09-25_06h14.30.418.csv
113,2.0,left,left,1.0,1.3344,0.0,53.0,53.0,53.0,1.0,2460547467-349421.jpg,2452380166-273110.jpg,A2LMSIDVE4E4IO_2022-09-25_06h14.30.418.csv
114,1.0,left,left,1.0,1.324,0.0,54.0,54.0,54.0,1.0,2883268471-290842.jpg,2883268471-290843.jpg,A2LMSIDVE4E4IO_2022-09-25_06h14.30.418.csv
115,3.0,left,right,0.0,1.4903,0.0,55.0,55.0,55.0,1.0,2874302418-65979.jpg,2238578544-111698.jpg,A2LMSIDVE4E4IO_2022-09-25_06h14.30.418.csv
116,2.0,left,left,1.0,1.8725,0.0,56.0,56.0,56.0,1.0,2452380832-348593.jpg,2238481813-19930.jpg,A2LMSIDVE4E4IO_2022-09-25_06h14.30.418.csv
117,3.0,right,left,0.0,1.2095,0.0,57.0,57.0,57.0,1.0,2427873763-47290.jpg,2981231403-71642.jpg,A2LMSIDVE4E4IO_2022-09-25_06h14.30.418.csv
118,3.0,left,right,0.0,1.5826,0.0,58.0,58.0,58.0,1.0,2898618390-216538.jpg,2575120609-129862.jpg,A2LMSIDVE4E4IO_2022-09-25_06h14.30.418.csv
119,1.0,right,right,1.0,1.4975,0.0,59.0,59.0,59.0,1.0,2237857458-1324.jpg,2986451363-73598.jpg,A2LMSIDVE4E4IO_2022-09-25_06h14.30.418.csv
120,3.0,left,right,0.0,2.8793,0.0,0.0,0.0,0.0,1.0,2874307433-66280.jpg,2981231422-369714.jpg,A2TI9ZTXN1GNTV_2022-09-25_06h13.01.777.csv
121,2.0,left,right,0.0,0.6944,0.0,1.0,1.0,1.0,1.0,2986451363-73598.jpg,2984628361-295995.jpg,A2TI9ZTXN1GNTV_2022-09-25_06h13.01.777.csv
122,2.0,left,right,0.0,0.6068,0.0,2.0,2.0,2.0,1.0,2883256307-365057.jpg,2964210336-293945.jpg,A2TI9ZTXN1GNTV_2022-09-25_06h13.01.777.csv
123,2.0,left,right,0.0,0.3928,0.0,3.0,3.0,3.0,1.0,2864907432-362042.jpg,2901947423-70310.jpg,A2TI9ZTXN1GNTV_2022-09-25_06h13.01.777.csv
124,3.0,right,right,1.0,0.2355,0.0,4.0,4.0,4.0,1.0,2898619327-366362.jpg,2964216465-219242.jpg,A2TI9ZTXN1GNTV_2022-09-25_06h13.01.777.csv
125,3.0,left,right,0.0,0.163,0.0,5.0,5.0,5.0,1.0,2460547467-349422.jpg,2864909447-362146.jpg,A2TI9ZTXN1GNTV_2022-09-25_06h13.01.777.csv
126,2.0,right,right,1.0,0.2353,0.0,6.0,6.0,6.0,1.0,2901941438-69836.jpg,2964223381-294447.jpg,A2TI9ZTXN1GNTV_2022-09-25_06h13.01.777.csv
127,2.0,right,right,1.0,0.1649,0.0,7.0,7.0,7.0,1.0,2238436322-314047.jpg,2238425482-313537.jpg,A2TI9ZTXN1GNTV_2022-09-25_06h13.01.777.csv
128,2.0,right,right,1.0,0.2364,0.0,8.0,8.0,8.0,1.0,2238481813-19930.jpg,2452380832-348593.jpg,A2TI9ZTXN1GNTV_2022-09-25_06h13.01.777.csv
129,3.0,right,right,1.0,0.5244,0.0,9.0,9.0,9.0,1.0,2512875587-350044.jpg,2592380177-354629.jpg,A2TI9ZTXN1GNTV_2022-09-25_06h13.01.777.csv
130,2.0,left,right,0.0,0.237,0.0,10.0,10.0,10.0,1.0,2512875899-126682.jpg,2592380177-354628.jpg,A2TI9ZTXN1GNTV_2022-09-25_06h13.01.777.csv
131,2.0,left,right,0.0,0.1638,0.0,11.0,11.0,11.0,1.0,2901952513-70703.jpg,2868469411-287540.jpg,A2TI9ZTXN1GNTV_2022-09-25_06h13.01.777.csv
132,1.0,left,right,0.0,0.1651,0.0,12.0,12.0,12.0,1.0,2238428357-313623.jpg,2238499057-320266.jpg,A2TI9ZTXN1GNTV_2022-09-25_06h13.01.777.csv
133,1.0,right,right,1.0,0.1611,0.0,13.0,13.0,13.0,1.0,2898631359-142721.jpg,2898618444-142233.jpg,A2TI9ZTXN1GNTV_2022-09-25_06h13.01.777.csv
134,3.0,left,right,0.0,0.2358,0.0,14.0,14.0,14.0,1.0,2874299429-139695.jpg,2446760917-347439.jpg,A2TI9ZTXN1GNTV_2022-09-25_06h13.01.777.csv
135,2.0,right,right,1.0,0.1574,0.0,15.0,15.0,15.0,1.0,2981229442-369621.jpg,2901939379-143480.jpg,A2TI9ZTXN1GNTV_2022-09-25_06h13.01.777.csv
136,1.0,right,right,1.0,0.2375,0.0,16.0,16.0,16.0,1.0,2964218432-369263.jpg,2898624426-291546.jpg,A2TI9ZTXN1GNTV_2022-09-25_06h13.01.777.csv
137,3.0,right,right,1.0,0.1564,0.0,17.0,17.0,17.0,1.0,2575120609-129862.jpg,2898618390-216538.jpg,A2TI9ZTXN1GNTV_2022-09-25_06h13.01.777.csv
138,1.0,right,right,1.0,0.1633,0.0,18.0,18.0,18.0,1.0,2901946439-144040.jpg,2898617468-68274.jpg,A2TI9ZTXN1GNTV_2022-09-25_06h13.01.777.csv
139,3.0,left,right,0.0,0.1605,0.0,19.0,19.0,19.0,1.0,2238481198-19822.jpg,2238480803-19737.jpg,A2TI9ZTXN1GNTV_2022-09-25_06h13.01.777.csv
140,2.0,left,right,0.0,0.1612,0.0,20.0,20.0,20.0,1.0,2901939379-143479.jpg,2446758985-197610.jpg,A2TI9ZTXN1GNTV_2022-09-25_06h13.01.777.csv
141,2.0,left,right,0.0,0.1592,0.0,21.0,21.0,21.0,1.0,2901947423-70311.jpg,2238573447-333826.jpg,A2TI9ZTXN1GNTV_2022-09-25_06h13.01.777.csv
142,1.0,left,right,0.0,0.2383,0.0,22.0,22.0,22.0,1.0,2238560245-182099.jpg,2592380255-205553.jpg,A2TI9ZTXN1GNTV_2022-09-25_06h13.01.777.csv
143,1.0,left,right,0.0,0.158,0.0,23.0,23.0,23.0,1.0,2238481928-19949.jpg,2883264367-365620.jpg,A2TI9ZTXN1GNTV_2022-09-25_06h13.01.777.csv
144,2.0,right,right,1.0,0.1621,0.0,24.0,24.0,24.0,1.0,2860302315-210704.jpg,2986451363-73599.jpg,A2TI9ZTXN1GNTV_2022-09-25_06h13.01.777.csv
145,3.0,right,right,1.0,0.1657,0.0,25.0,25.0,25.0,1.0,2901947323-70275.jpg,2874301407-363895.jpg,A2TI9ZTXN1GNTV_2022-09-25_06h13.01.777.csv
146,1.0,right,right,1.0,0.7899,0.0,26.0,26.0,26.0,1.0,2981240424-145795.jpg,2446758985-197609.jpg,A2TI9ZTXN1GNTV_2022-09-25_06h13.01.777.csv
147,1.0,left,right,0.0,0.2332,0.0,27.0,27.0,27.0,1.0,2883273443-68193.jpg,2883254439-140940.jpg,A2TI9ZTXN1GNTV_2022-09-25_06h13.01.777.csv
148,2.0,right,right,1.0,0.1635,0.0,28.0,28.0,28.0,1.0,2898632385-217138.jpg,2452381505-199546.jpg,A2TI9ZTXN1GNTV_2022-09-25_06h13.01.777.csv
149,3.0,right,right,1.0,0.1601,0.0,29.0,29.0,29.0,1.0,2592380272-354673.jpg,2592379964-131054.jpg,A2TI9ZTXN1GNTV_2022-09-25_06h13.01.777.csv
150,3.0,right,right,1.0,0.1572,0.0,30.0,30.0,30.0,1.0,2898621427-366486.jpg,2898635427-367120.jpg,A2TI9ZTXN1GNTV_2022-09-25_06h13.01.777.csv
151,2.0,right,right,1.0,0.1564,0.0,31.0,31.0,31.0,1.0,2238521193-26285.jpg,2238580740-186218.jpg,A2TI9ZTXN1GNTV_2022-09-25_06h13.01.777.csv
152,1.0,right,right,1.0,0.1608,0.0,32.0,32.0,32.0,1.0,2238576792-334659.jpg,2592380177-354626.jpg,A2TI9ZTXN1GNTV_2022-09-25_06h13.01.777.csv
153,1.0,left,right,0.0,0.1649,0.0,33.0,33.0,33.0,1.0,2874302418-65978.jpg,2964224310-219528.jpg,A2TI9ZTXN1GNTV_2022-09-25_06h13.01.777.csv
154,1.0,right,right,1.0,0.1659,0.0,34.0,34.0,34.0,1.0,2460547732-349518.jpg,2868474407-362883.jpg,A2TI9ZTXN1GNTV_2022-09-25_06h13.01.777.csv
155,3.0,right,right,1.0,0.0837,0.0,35.0,35.0,35.0,1.0,2901947448-70314.jpg,2883268471-290842.jpg,A2TI9ZTXN1GNTV_2022-09-25_06h13.01.777.csv
156,3.0,left,right,0.0,0.2394,0.0,36.0,36.0,36.0,1.0,2964218374-144967.jpg,2981231446-294732.jpg,A2TI9ZTXN1GNTV_2022-09-25_06h13.01.777.csv
157,2.0,left,right,0.0,0.1563,0.0,37.0,37.0,37.0,1.0,2981241414-145842.jpg,2874301404-139813.jpg,A2TI9ZTXN1GNTV_2022-09-25_06h13.01.777.csv
158,2.0,right,right,1.0,0.1612,0.0,38.0,38.0,38.0,1.0,2901934408-69289.jpg,2898634397-367080.jpg,A2TI9ZTXN1GNTV_2022-09-25_06h13.01.777.csv
159,2.0,left,right,0.0,0.2333,0.0,39.0,39.0,39.0,1.0,2874299429-139694.jpg,2981244403-72215.jpg,A2TI9ZTXN1GNTV_2022-09-25_06h13.01.777.csv
160,3.0,right,right,1.0,0.1618,0.0,40.0,40.0,40.0,1.0,2238531493-28260.jpg,2575120738-55529.jpg,A2TI9ZTXN1GNTV_2022-09-25_06h13.01.777.csv
161,1.0,left,right,0.0,0.161,0.0,41.0,41.0,41.0,1.0,2981231403-71642.jpg,2579432519-130698.jpg,A2TI9ZTXN1GNTV_2022-09-25_06h13.01.777.csv
162,2.0,right,right,1.0,0.1616,0.0,42.0,42.0,42.0,1.0,2901933382-367209.jpg,2964222378-71332.jpg,A2TI9ZTXN1GNTV_2022-09-25_06h13.01.777.csv
163,3.0,left,right,0.0,0.1603,0.0,43.0,43.0,43.0,1.0,2446759803-49249.jpg,2901951392-368654.jpg,A2TI9ZTXN1GNTV_2022-09-25_06h13.01.777.csv
164,3.0,right,right,1.0,0.1594,0.0,44.0,44.0,44.0,1.0,2238578544-111698.jpg,2874302418-65979.jpg,A2TI9ZTXN1GNTV_2022-09-25_06h13.01.777.csv
165,2.0,left,right,0.0,0.2354,0.0,45.0,45.0,45.0,1.0,2458347385-199723.jpg,2427874554-121863.jpg,A2TI9ZTXN1GNTV_2022-09-25_06h13.01.777.csv
166,1.0,left,right,0.0,0.2499,0.0,46.0,46.0,46.0,1.0,2898633421-291973.jpg,2512876023-52283.jpg,A2TI9ZTXN1GNTV_2022-09-25_06h13.01.777.csv
167,1.0,right,right,1.0,0.2354,0.0,47.0,47.0,47.0,1.0,2452380166-273109.jpg,2460547508-51571.jpg,A2TI9ZTXN1GNTV_2022-09-25_06h13.01.777.csv
168,2.0,left,right,0.0,0.0828,0.0,48.0,48.0,48.0,1.0,2874303365-214262.jpg,2238563377-332054.jpg,A2TI9ZTXN1GNTV_2022-09-25_06h13.01.777.csv
169,3.0,right,right,1.0,0.2211,0.0,49.0,49.0,49.0,1.0,2868474407-362885.jpg,2868475410-213219.jpg,A2TI9ZTXN1GNTV_2022-09-25_06h13.01.777.csv
170,1.0,right,right,1.0,0.159,0.0,50.0,50.0,50.0,1.0,2446759803-49251.jpg,2449442529-124446.jpg,A2TI9ZTXN1GNTV_2022-09-25_06h13.01.777.csv
171,3.0,left,right,0.0,0.1578,0.0,51.0,51.0,51.0,1.0,2864910426-287204.jpg,2901939433-69672.jpg,A2TI9ZTXN1GNTV_2022-09-25_06h13.01.777.csv
172,3.0,right,right,1.0,0.1616,0.0,52.0,52.0,52.0,1.0,2864903351-286874.jpg,2238572663-35822.jpg,A2TI9ZTXN1GNTV_2022-09-25_06h13.01.777.csv
173,1.0,right,right,1.0,0.159,0.0,53.0,53.0,53.0,1.0,2984626312-370849.jpg,2883268412-365898.jpg,A2TI9ZTXN1GNTV_2022-09-25_06h13.01.777.csv
174,3.0,right,right,1.0,0.164,0.0,54.0,54.0,54.0,1.0,2898632385-217137.jpg,2449442529-124445.jpg,A2TI9ZTXN1GNTV_2022-09-25_06h13.01.777.csv
175,1.0,left,right,0.0,0.0825,0.0,55.0,55.0,55.0,1.0,2238480677-317399.jpg,2238481630-168218.jpg,A2TI9ZTXN1GNTV_2022-09-25_06h13.01.777.csv
176,1.0,left,right,0.0,0.1614,0.0,56.0,56.0,56.0,1.0,2898635428-69104.jpg,2446759803-49250.jpg,A2TI9ZTXN1GNTV_2022-09-25_06h13.01.777.csv
177,1.0,left,right,0.0,0.1575,0.0,57.0,57.0,57.0,1.0,2460547467-349421.jpg,2898631394-142727.jpg,A2TI9ZTXN1GNTV_2022-09-25_06h13.01.777.csv
178,3.0,right,right,1.0,0.1592,0.0,58.0,58.0,58.0,1.0,2964213381-294061.jpg,2964213381-294060.jpg,A2TI9ZTXN1GNTV_2022-09-25_06h13.01.777.csv
179,1.0,right,right,1.0,0.2394,0.0,59.0,59.0,59.0,1.0,2898618327-366317.jpg,2901941401-292798.jpg,A2TI9ZTXN1GNTV_2022-09-25_06h13.01.777.csv
180,1.0,left,right,0.0,2.7908,0.0,0.0,0.0,0.0,1.0,2898635427-367120.jpg,2964221435-219434.jpg,A3DFUI6OKBNNGI_2022-09-25_06h15.18.506.csv
181,1.0,left,right,0.0,3.2138,0.0,1.0,1.0,1.0,1.0,2986451363-73599.jpg,2898626385-216899.jpg,A3DFUI6OKBNNGI_2022-09-25_06h15.18.506.csv
182,3.0,left,right,0.0,2.0812,0.0,2.0,2.0,2.0,1.0,2874299429-139695.jpg,2446760917-347439.jpg,A3DFUI6OKBNNGI_2022-09-25_06h15.18.506.csv
183,1.0,right,right,1.0,1.8827,0.0,3.0,3.0,3.0,1.0,2238328478-11678.jpg,2452380832-348593.jpg,A3DFUI6OKBNNGI_2022-09-25_06h15.18.506.csv
184,2.0,left,right,0.0,2.1437,0.0,4.0,4.0,4.0,1.0,2238481928-19949.jpg,2864900357-361688.jpg,A3DFUI6OKBNNGI_2022-09-25_06h15.18.506.csv
185,3.0,right,left,0.0,2.1592,0.0,5.0,5.0,5.0,1.0,2901939433-69672.jpg,2864910426-287204.jpg,A3DFUI6OKBNNGI_2022-09-25_06h15.18.506.csv
186,2.0,left,right,0.0,1.8341,0.0,6.0,6.0,6.0,1.0,2446758985-197609.jpg,2864909447-362144.jpg,A3DFUI6OKBNNGI_2022-09-25_06h15.18.506.csv
187,1.0,left,left,1.0,1.8154,0.0,7.0,7.0,7.0,1.0,2964216465-219242.jpg,2238544191-252422.jpg,A3DFUI6OKBNNGI_2022-09-25_06h15.18.506.csv
188,1.0,right,right,1.0,2.1637,0.0,8.0,8.0,8.0,1.0,2446761374-124213.jpg,2874301407-363895.jpg,A3DFUI6OKBNNGI_2022-09-25_06h15.18.506.csv
189,2.0,left,left,1.0,1.8854,0.0,9.0,9.0,9.0,1.0,2460547467-349422.jpg,2868487415-213924.jpg,A3DFUI6OKBNNGI_2022-09-25_06h15.18.506.csv
190,3.0,right,left,0.0,2.1974,0.0,10.0,10.0,10.0,1.0,2883266367-365742.jpg,2874299429-139694.jpg,A3DFUI6OKBNNGI_2022-09-25_06h15.18.506.csv
191,3.0,left,right,0.0,3.3996,0.0,11.0,11.0,11.0,1.0,2238480677-317399.jpg,2238480278-19661.jpg,A3DFUI6OKBNNGI_2022-09-25_06h15.18.506.csv
192,1.0,left,right,0.0,1.7742,0.0,12.0,12.0,12.0,1.0,2449442529-124446.jpg,2446759803-49251.jpg,A3DFUI6OKBNNGI_2022-09-25_06h15.18.506.csv
193,3.0,right,right,1.0,2.9428,0.0,13.0,13.0,13.0,1.0,2981240427-370099.jpg,2964222378-71332.jpg,A3DFUI6OKBNNGI_2022-09-25_06h15.18.506.csv
194,1.0,right,left,0.0,2.108,0.0,14.0,14.0,14.0,1.0,2901938432-367627.jpg,2452381505-199546.jpg,A3DFUI6OKBNNGI_2022-09-25_06h15.18.506.csv
195,2.0,left,left,1.0,2.5458,0.0,15.0,15.0,15.0,1.0,2898633421-291973.jpg,2575118671-277663.jpg,A3DFUI6OKBNNGI_2022-09-25_06h15.18.506.csv
196,3.0,right,left,0.0,1.401,0.0,16.0,16.0,16.0,1.0,2864904453-63933.jpg,2883256307-365057.jpg,A3DFUI6OKBNNGI_2022-09-25_06h15.18.506.csv
197,2.0,left,left,1.0,1.4625,0.0,17.0,17.0,17.0,1.0,2238481198-19822.jpg,2901946436-293242.jpg,A3DFUI6OKBNNGI_2022-09-25_06h15.18.506.csv
198,2.0,right,left,0.0,0.8797,0.0,18.0,18.0,18.0,1.0,2579432534-130704.jpg,2592380177-354629.jpg,A3DFUI6OKBNNGI_2022-09-25_06h15.18.506.csv
199,3.0,right,left,0.0,0.7515,0.0,19.0,19.0,19.0,1.0,2592380272-354673.jpg,2592379964-131054.jpg,A3DFUI6OKBNNGI_2022-09-25_06h15.18.506.csv
200,3.0,right,left,0.0,1.7764,0.0,20.0,20.0,20.0,1.0,2901942443-69925.jpg,2986451363-73598.jpg,A3DFUI6OKBNNGI_2022-09-25_06h15.18.506.csv
201,3.0,left,left,1.0,1.0317,0.0,21.0,21.0,21.0,1.0,2981231403-71642.jpg,2427873763-47290.jpg,A3DFUI6OKBNNGI_2022-09-25_06h15.18.506.csv
202,1.0,left,left,1.0,1.2912,0.0,22.0,22.0,22.0,1.0,2874302418-65979.jpg,2237857458-1325.jpg,A3DFUI6OKBNNGI_2022-09-25_06h15.18.506.csv
203,3.0,right,right,1.0,2.3039,0.0,23.0,23.0,23.0,1.0,2901947448-70314.jpg,2883268471-290842.jpg,A3DFUI6OKBNNGI_2022-09-25_06h15.18.506.csv
204,1.0,right,right,1.0,2.5271,0.0,24.0,24.0,24.0,1.0,2864906345-212360.jpg,2575120738-55529.jpg,A3DFUI6OKBNNGI_2022-09-25_06h15.18.506.csv
205,2.0,right,right,1.0,2.1769,0.0,25.0,25.0,25.0,1.0,2238436322-314047.jpg,2238425482-313537.jpg,A3DFUI6OKBNNGI_2022-09-25_06h15.18.506.csv
206,2.0,left,left,1.0,1.4525,0.0,26.0,26.0,26.0,1.0,2460547467-349421.jpg,2452380166-273110.jpg,A3DFUI6OKBNNGI_2022-09-25_06h15.18.506.csv
207,2.0,right,left,0.0,1.1462,0.0,27.0,27.0,27.0,1.0,2901939327-367670.jpg,2898618390-216538.jpg,A3DFUI6OKBNNGI_2022-09-25_06h15.18.506.csv
208,1.0,right,right,1.0,2.9401,0.0,28.0,28.0,28.0,1.0,2592380255-205553.jpg,2238560245-182099.jpg,A3DFUI6OKBNNGI_2022-09-25_06h15.18.506.csv
209,2.0,left,left,1.0,1.8713,0.0,29.0,29.0,29.0,1.0,2238580740-186218.jpg,2238521193-26285.jpg,A3DFUI6OKBNNGI_2022-09-25_06h15.18.506.csv
210,1.0,right,right,1.0,0.524,0.0,30.0,30.0,30.0,1.0,2238576792-334659.jpg,2592380177-354626.jpg,A3DFUI6OKBNNGI_2022-09-25_06h15.18.506.csv
211,2.0,left,right,0.0,1.4531,0.0,31.0,31.0,31.0,1.0,2868475410-213219.jpg,2238480803-19739.jpg,A3DFUI6OKBNNGI_2022-09-25_06h15.18.506.csv
212,3.0,right,right,1.0,1.2896,0.0,32.0,32.0,32.0,1.0,2964217461-294238.jpg,2898634397-367080.jpg,A3DFUI6OKBNNGI_2022-09-25_06h15.18.506.csv
213,1.0,right,left,0.0,1.8074,0.0,33.0,33.0,33.0,1.0,2964224310-219528.jpg,2874302418-65978.jpg,A3DFUI6OKBNNGI_2022-09-25_06h15.18.506.csv
214,3.0,left,left,1.0,1.6847,0.0,34.0,34.0,34.0,1.0,2901952513-70703.jpg,2238481198-19821.jpg,A3DFUI6OKBNNGI_2022-09-25_06h15.18.506.csv
215,3.0,right,left,0.0,0.9163,0.0,35.0,35.0,35.0,1.0,2901951392-368654.jpg,2446759803-49249.jpg,A3DFUI6OKBNNGI_2022-09-25_06h15.18.506.csv
216,1.0,left,left,1.0,0.7602,0.0,36.0,36.0,36.0,1.0,2981241414-145842.jpg,2238516618-25604.jpg,A3DFUI6OKBNNGI_2022-09-25_06h15.18.506.csv
217,3.0,left,left,1.0,0.133,0.0,37.0,37.0,37.0,1.0,2460547508-51571.jpg,2901941438-69835.jpg,A3DFUI6OKBNNGI_2022-09-25_06h15.18.506.csv
218,1.0,right,left,0.0,0.2498,0.0,38.0,38.0,38.0,1.0,2883254439-140940.jpg,2883273443-68193.jpg,A3DFUI6OKBNNGI_2022-09-25_06h15.18.506.csv
219,1.0,left,left,1.0,0.012,0.0,39.0,39.0,39.0,1.0,2964218374-144967.jpg,2964218374-144968.jpg,A3DFUI6OKBNNGI_2022-09-25_06h15.18.506.csv
220,1.0,right,left,0.0,0.1388,0.0,40.0,40.0,40.0,1.0,2981244394-145974.jpg,2964213381-294060.jpg,A3DFUI6OKBNNGI_2022-09-25_06h15.18.506.csv
221,3.0,left,left,1.0,0.1398,0.0,41.0,41.0,41.0,1.0,2458347385-199723.jpg,2458347252-348911.jpg,A3DFUI6OKBNNGI_2022-09-25_06h15.18.506.csv
222,2.0,left,left,1.0,0.015,0.0,42.0,42.0,42.0,1.0,2238572663-35822.jpg,2238571930-184143.jpg,A3DFUI6OKBNNGI_2022-09-25_06h15.18.506.csv
223,2.0,left,left,1.0,0.0076,0.0,43.0,43.0,43.0,1.0,2874307433-66280.jpg,2981246400-220365.jpg,A3DFUI6OKBNNGI_2022-09-25_06h15.18.506.csv
224,3.0,left,left,1.0,0.1324,0.0,44.0,44.0,44.0,1.0,2864907432-362042.jpg,2989726338-74002.jpg,A3DFUI6OKBNNGI_2022-09-25_06h15.18.506.csv
225,3.0,right,left,0.0,0.1599,0.0,45.0,45.0,45.0,1.0,2964207374-144577.jpg,2898617468-68274.jpg,A3DFUI6OKBNNGI_2022-09-25_06h15.18.506.csv
226,1.0,right,left,0.0,0.1322,0.0,46.0,46.0,46.0,1.0,2860312398-62572.jpg,2901947423-70311.jpg,A3DFUI6OKBNNGI_2022-09-25_06h15.18.506.csv
227,3.0,left,left,1.0,0.0129,0.0,47.0,47.0,47.0,1.0,2901939379-143479.jpg,2964216376-294181.jpg,A3DFUI6OKBNNGI_2022-09-25_06h15.18.506.csv
228,2.0,left,left,1.0,0.2571,0.0,48.0,48.0,48.0,1.0,2238428357-313623.jpg,2984615361-295509.jpg,A3DFUI6OKBNNGI_2022-09-25_06h15.18.506.csv
229,1.0,right,left,0.0,0.1394,0.0,49.0,49.0,49.0,1.0,2898631359-142721.jpg,2898618444-142233.jpg,A3DFUI6OKBNNGI_2022-09-25_06h15.18.506.csv
230,3.0,left,left,1.0,0.0127,0.0,50.0,50.0,50.0,1.0,2898624426-291546.jpg,2981235446-294900.jpg,A3DFUI6OKBNNGI_2022-09-25_06h15.18.506.csv
231,2.0,left,left,1.0,0.1396,0.0,51.0,51.0,51.0,1.0,2901941401-292798.jpg,2981243412-370222.jpg,A3DFUI6OKBNNGI_2022-09-25_06h15.18.506.csv
232,2.0,right,left,0.0,0.1351,0.0,52.0,52.0,52.0,1.0,2984615361-295510.jpg,2883268412-365898.jpg,A3DFUI6OKBNNGI_2022-09-25_06h15.18.506.csv
233,1.0,right,left,0.0,0.1339,0.0,53.0,53.0,53.0,1.0,2901942428-69919.jpg,2901939379-143480.jpg,A3DFUI6OKBNNGI_2022-09-25_06h15.18.506.csv
234,3.0,left,left,1.0,0.0088,0.0,54.0,54.0,54.0,1.0,2898635428-69104.jpg,2898625336-291572.jpg,A3DFUI6OKBNNGI_2022-09-25_06h15.18.506.csv
235,1.0,right,left,0.0,0.2873,0.0,55.0,55.0,55.0,1.0,2452380171-273112.jpg,2449442529-124445.jpg,A3DFUI6OKBNNGI_2022-09-25_06h15.18.506.csv
236,2.0,left,left,1.0,0.1317,0.0,56.0,56.0,56.0,1.0,2874303365-214262.jpg,2238563377-332054.jpg,A3DFUI6OKBNNGI_2022-09-25_06h15.18.506.csv
237,2.0,left,left,1.0,0.0092,0.0,57.0,57.0,57.0,1.0,2868474407-362883.jpg,2981246400-220363.jpg,A3DFUI6OKBNNGI_2022-09-25_06h15.18.506.csv
238,2.0,right,left,0.0,0.1315,0.0,58.0,58.0,58.0,1.0,2592380177-354628.jpg,2512875899-126682.jpg,A3DFUI6OKBNNGI_2022-09-25_06h15.18.506.csv
239,2.0,right,left,0.0,0.1381,0.0,59.0,59.0,59.0,1.0,2901941438-69836.jpg,2964223381-294447.jpg,A3DFUI6OKBNNGI_2022-09-25_06h15.18.506.csv
240,3.0,left,left,1.0,1.623,0.0,0.0,0.0,0.0,1.0,2449442529-124445.jpg,2898632385-217137.jpg,A1DEYILIW8BKPC_2022-09-25_06h18.06.761.csv
241,3.0,left,left,1.0,1.2485,0.0,1.0,1.0,1.0,1.0,2898618444-142233.jpg,2898618444-142232.jpg,A1DEYILIW8BKPC_2022-09-25_06h18.06.761.csv
242,3.0,left,left,1.0,1.2287,0.0,2.0,2.0,2.0,1.0,2446759803-49249.jpg,2901951392-368654.jpg,A1DEYILIW8BKPC_2022-09-25_06h18.06.761.csv
243,2.0,left,left,1.0,1.1161,0.0,3.0,3.0,3.0,1.0,2898635428-69104.jpg,2901943411-292945.jpg,A1DEYILIW8BKPC_2022-09-25_06h18.06.761.csv
244,1.0,right,right,1.0,1.4261,0.0,4.0,4.0,4.0,1.0,2460547536-274179.jpg,2512875899-126682.jpg,A1DEYILIW8BKPC_2022-09-25_06h18.06.761.csv
245,2.0,right,left,0.0,1.7944,0.0,5.0,5.0,5.0,1.0,2238573447-333826.jpg,2901947423-70311.jpg,A1DEYILIW8BKPC_2022-09-25_06h18.06.761.csv
246,3.0,right,right,1.0,1.9898,0.0,6.0,6.0,6.0,1.0,2864911457-362260.jpg,2874303365-214262.jpg,A1DEYILIW8BKPC_2022-09-25_06h18.06.761.csv
247,2.0,left,left,1.0,1.327,0.0,7.0,7.0,7.0,1.0,2883268471-290842.jpg,2883255450-215310.jpg,A1DEYILIW8BKPC_2022-09-25_06h18.06.761.csv
248,3.0,right,left,0.0,1.3427,0.0,8.0,8.0,8.0,1.0,2898633480-217190.jpg,2238425482-313537.jpg,A1DEYILIW8BKPC_2022-09-25_06h18.06.761.csv
249,2.0,left,right,0.0,1.624,0.0,9.0,9.0,9.0,1.0,2874302418-65979.jpg,2238480648-19714.jpg,A1DEYILIW8BKPC_2022-09-25_06h18.06.761.csv
250,2.0,left,left,1.0,1.1222,0.0,10.0,10.0,10.0,1.0,2901939379-143479.jpg,2446758985-197610.jpg,A1DEYILIW8BKPC_2022-09-25_06h18.06.761.csv
251,1.0,left,right,0.0,1.7916,0.0,11.0,11.0,11.0,1.0,2901941401-292798.jpg,2898618327-366317.jpg,A1DEYILIW8BKPC_2022-09-25_06h18.06.761.csv
252,2.0,left,left,1.0,1.0444,0.0,12.0,12.0,12.0,1.0,2901939379-143480.jpg,2981229442-369621.jpg,A1DEYILIW8BKPC_2022-09-25_06h18.06.761.csv
253,1.0,right,left,0.0,1.3376,0.0,13.0,13.0,13.0,1.0,2238550816-254000.jpg,2238580740-186218.jpg,A1DEYILIW8BKPC_2022-09-25_06h18.06.761.csv
254,3.0,left,left,1.0,1.3143,0.0,14.0,14.0,14.0,1.0,2901952513-70703.jpg,2238481198-19821.jpg,A1DEYILIW8BKPC_2022-09-25_06h18.06.761.csv
255,2.0,right,right,1.0,1.3317,0.0,15.0,15.0,15.0,1.0,2458348012-349114.jpg,2964213381-294060.jpg,A1DEYILIW8BKPC_2022-09-25_06h18.06.761.csv
256,2.0,right,left,0.0,1.8248,0.0,16.0,16.0,16.0,1.0,2864900319-137787.jpg,2964216465-219242.jpg,A1DEYILIW8BKPC_2022-09-25_06h18.06.761.csv
257,1.0,left,right,0.0,1.2487,0.0,17.0,17.0,17.0,1.0,2868475410-213219.jpg,2901946465-218350.jpg,A1DEYILIW8BKPC_2022-09-25_06h18.06.761.csv
258,1.0,left,left,1.0,1.3347,0.0,18.0,18.0,18.0,1.0,2981241414-145842.jpg,2238516618-25604.jpg,A1DEYILIW8BKPC_2022-09-25_06h18.06.761.csv
259,3.0,right,right,1.0,0.9608,0.0,19.0,19.0,19.0,1.0,2238436252-314037.jpg,2883268412-365898.jpg,A1DEYILIW8BKPC_2022-09-25_06h18.06.761.csv
260,2.0,left,left,1.0,0.9453,0.0,20.0,20.0,20.0,1.0,2460547467-349421.jpg,2452380166-273110.jpg,A1DEYILIW8BKPC_2022-09-25_06h18.06.761.csv
261,1.0,right,right,1.0,1.0436,0.0,21.0,21.0,21.0,1.0,2898618440-216545.jpg,2460547467-349422.jpg,A1DEYILIW8BKPC_2022-09-25_06h18.06.761.csv
262,1.0,left,left,1.0,1.136,0.0,22.0,22.0,22.0,1.0,2864910426-287204.jpg,2864902304-137862.jpg,A1DEYILIW8BKPC_2022-09-25_06h18.06.761.csv
263,1.0,left,right,0.0,0.8261,0.0,23.0,23.0,23.0,1.0,2964218374-144967.jpg,2964218374-144968.jpg,A1DEYILIW8BKPC_2022-09-25_06h18.06.761.csv
264,3.0,left,left,1.0,1.035,0.0,24.0,24.0,24.0,1.0,2898617468-68274.jpg,2964207374-144577.jpg,A1DEYILIW8BKPC_2022-09-25_06h18.06.761.csv
265,3.0,right,right,1.0,1.2323,0.0,25.0,25.0,25.0,1.0,2238480278-19661.jpg,2238480677-317399.jpg,A1DEYILIW8BKPC_2022-09-25_06h18.06.761.csv
266,3.0,right,left,0.0,1.0512,0.0,26.0,26.0,26.0,1.0,2575120609-129862.jpg,2898618390-216538.jpg,A1DEYILIW8BKPC_2022-09-25_06h18.06.761.csv
267,1.0,left,right,0.0,0.9595,0.0,27.0,27.0,27.0,1.0,2238572663-35822.jpg,2238584894-113161.jpg,A1DEYILIW8BKPC_2022-09-25_06h18.06.761.csv
268,1.0,right,left,0.0,0.3896,0.0,28.0,28.0,28.0,1.0,2237857458-1324.jpg,2986451363-73598.jpg,A1DEYILIW8BKPC_2022-09-25_06h18.06.761.csv
269,2.0,right,right,1.0,1.0413,0.0,29.0,29.0,29.0,1.0,2874314526-289684.jpg,2238560245-182099.jpg,A1DEYILIW8BKPC_2022-09-25_06h18.06.761.csv
270,3.0,left,left,1.0,0.6551,0.0,30.0,30.0,30.0,1.0,2874302418-65978.jpg,2898633321-291943.jpg,A1DEYILIW8BKPC_2022-09-25_06h18.06.761.csv
271,1.0,left,right,0.0,0.7686,0.0,31.0,31.0,31.0,1.0,2592380177-354626.jpg,2238576792-334659.jpg,A1DEYILIW8BKPC_2022-09-25_06h18.06.761.csv
272,3.0,right,left,0.0,0.5706,0.0,32.0,32.0,32.0,1.0,2981235446-294900.jpg,2898624426-291546.jpg,A1DEYILIW8BKPC_2022-09-25_06h18.06.761.csv
273,1.0,right,right,1.0,0.8626,0.0,33.0,33.0,33.0,1.0,2864901420-212147.jpg,2864907432-362042.jpg,A1DEYILIW8BKPC_2022-09-25_06h18.06.761.csv
274,3.0,left,left,1.0,1.1474,0.0,34.0,34.0,34.0,1.0,2452380832-348593.jpg,2237858942-299356.jpg,A1DEYILIW8BKPC_2022-09-25_06h18.06.761.csv
275,2.0,left,left,1.0,1.23,0.0,35.0,35.0,35.0,1.0,2964222378-71332.jpg,2901933382-367209.jpg,A1DEYILIW8BKPC_2022-09-25_06h18.06.761.csv
276,2.0,left,right,0.0,1.2433,0.0,36.0,36.0,36.0,1.0,2898634397-367080.jpg,2901934408-69289.jpg,A1DEYILIW8BKPC_2022-09-25_06h18.06.761.csv
277,1.0,right,right,1.0,1.0367,0.0,37.0,37.0,37.0,1.0,2460547732-349518.jpg,2868474407-362883.jpg,A1DEYILIW8BKPC_2022-09-25_06h18.06.761.csv
278,1.0,left,left,1.0,1.5269,0.0,38.0,38.0,38.0,1.0,2575120738-55529.jpg,2864906345-212360.jpg,A1DEYILIW8BKPC_2022-09-25_06h18.06.761.csv
279,3.0,left,left,1.0,1.0514,0.0,39.0,39.0,39.0,1.0,2898633421-291973.jpg,2238550049-105691.jpg,A1DEYILIW8BKPC_2022-09-25_06h18.06.761.csv
280,2.0,right,left,0.0,1.5169,0.0,40.0,40.0,40.0,1.0,2964210336-293945.jpg,2883256307-365057.jpg,A1DEYILIW8BKPC_2022-09-25_06h18.06.761.csv
281,1.0,left,left,1.0,1.2132,0.0,41.0,41.0,41.0,1.0,2592379964-131054.jpg,2575963989-130576.jpg,A1DEYILIW8BKPC_2022-09-25_06h18.06.761.csv
282,3.0,left,left,1.0,1.1364,0.0,42.0,42.0,42.0,1.0,2964223381-294447.jpg,2898628438-68785.jpg,A1DEYILIW8BKPC_2022-09-25_06h18.06.761.csv
283,2.0,right,left,0.0,1.1507,0.0,43.0,43.0,43.0,1.0,2981232437-369759.jpg,2460547508-51571.jpg,A1DEYILIW8BKPC_2022-09-25_06h18.06.761.csv
284,2.0,right,left,0.0,1.1383,0.0,44.0,44.0,44.0,1.0,2864900357-361688.jpg,2238481928-19949.jpg,A1DEYILIW8BKPC_2022-09-25_06h18.06.761.csv
285,2.0,left,left,1.0,1.3231,0.0,45.0,45.0,45.0,1.0,2981231403-71642.jpg,2874305405-214397.jpg,A1DEYILIW8BKPC_2022-09-25_06h18.06.761.csv
286,1.0,right,right,1.0,1.0181,0.0,46.0,46.0,46.0,1.0,2898633421-291974.jpg,2592380177-354629.jpg,A1DEYILIW8BKPC_2022-09-25_06h18.06.761.csv
287,1.0,left,right,0.0,1.1365,0.0,47.0,47.0,47.0,1.0,2874299429-139694.jpg,2986447306-296584.jpg,A1DEYILIW8BKPC_2022-09-25_06h18.06.761.csv
288,2.0,right,left,0.0,1.0646,0.0,48.0,48.0,48.0,1.0,2864909447-362144.jpg,2446758985-197609.jpg,A1DEYILIW8BKPC_2022-09-25_06h18.06.761.csv
289,3.0,left,left,1.0,0.9282,0.0,49.0,49.0,49.0,1.0,2458347385-199723.jpg,2458347252-348911.jpg,A1DEYILIW8BKPC_2022-09-25_06h18.06.761.csv
290,3.0,right,right,1.0,1.1155,0.0,50.0,50.0,50.0,1.0,2898621427-366486.jpg,2898635427-367120.jpg,A1DEYILIW8BKPC_2022-09-25_06h18.06.761.csv
291,2.0,right,right,1.0,1.1396,0.0,51.0,51.0,51.0,1.0,2986397322-371109.jpg,2874301407-363895.jpg,A1DEYILIW8BKPC_2022-09-25_06h18.06.761.csv
292,3.0,left,left,1.0,0.7639,0.0,52.0,52.0,52.0,1.0,2986451363-73599.jpg,2238434559-90406.jpg,A1DEYILIW8BKPC_2022-09-25_06h18.06.761.csv
293,3.0,right,left,0.0,0.9571,0.0,53.0,53.0,53.0,1.0,2238480803-19737.jpg,2238481198-19822.jpg,A1DEYILIW8BKPC_2022-09-25_06h18.06.761.csv
294,2.0,right,left,0.0,0.8637,0.0,54.0,54.0,54.0,1.0,2981246400-220365.jpg,2874307433-66280.jpg,A1DEYILIW8BKPC_2022-09-25_06h18.06.761.csv
295,3.0,right,left,0.0,0.8538,0.0,55.0,55.0,55.0,1.0,2446760917-347439.jpg,2874299429-139695.jpg,A1DEYILIW8BKPC_2022-09-25_06h18.06.761.csv
296,1.0,left,left,1.0,0.9615,0.0,56.0,56.0,56.0,1.0,2883273443-68193.jpg,2883254439-140940.jpg,A1DEYILIW8BKPC_2022-09-25_06h18.06.761.csv
297,1.0,left,left,1.0,1.0435,0.0,57.0,57.0,57.0,1.0,2449442529-124446.jpg,2446759803-49251.jpg,A1DEYILIW8BKPC_2022-09-25_06h18.06.761.csv
298,1.0,left,left,1.0,1.155,0.0,58.0,58.0,58.0,1.0,2238428357-313623.jpg,2238499057-320266.jpg,A1DEYILIW8BKPC_2022-09-25_06h18.06.761.csv
299,1.0,right,right,1.0,4.1744,0.0,0.0,0.0,0.0,1.0,2864902304-137862.jpg,2864910426-287204.jpg,A5JUTCI1XLTTD_2022-09-25_06h12.28.721.csv
300,1.0,left,left,1.0,3.0019,0.0,1.0,1.0,1.0,1.0,2868474407-362883.jpg,2460547732-349518.jpg,A5JUTCI1XLTTD_2022-09-25_06h12.28.721.csv
301,1.0,left,left,1.0,1.5781,0.0,2.0,2.0,2.0,1.0,2238572663-35822.jpg,2238584894-113161.jpg,A5JUTCI1XLTTD_2022-09-25_06h12.28.721.csv
302,1.0,left,left,1.0,2.1007,0.0,3.0,3.0,3.0,1.0,2898635427-367120.jpg,2964221435-219434.jpg,A5JUTCI1XLTTD_2022-09-25_06h12.28.721.csv
303,1.0,right,right,1.0,1.9261,0.0,4.0,4.0,4.0,1.0,2579432519-130698.jpg,2981231403-71642.jpg,A5JUTCI1XLTTD_2022-09-25_06h12.28.721.csv
304,2.0,left,left,1.0,1.5843,0.0,5.0,5.0,5.0,1.0,2964213381-294060.jpg,2458348012-349114.jpg,A5JUTCI1XLTTD_2022-09-25_06h12.28.721.csv
305,3.0,left,left,1.0,2.1136,0.0,6.0,6.0,6.0,1.0,2874299429-139694.jpg,2883266367-365742.jpg,A5JUTCI1XLTTD_2022-09-25_06h12.28.721.csv
306,2.0,left,right,0.0,1.5792,0.0,7.0,7.0,7.0,1.0,2452381505-199546.jpg,2898632385-217138.jpg,A5JUTCI1XLTTD_2022-09-25_06h12.28.721.csv
307,1.0,left,left,1.0,1.7574,0.0,8.0,8.0,8.0,1.0,2898618444-142233.jpg,2898631359-142721.jpg,A5JUTCI1XLTTD_2022-09-25_06h12.28.721.csv
308,3.0,right,right,1.0,2.0857,0.0,9.0,9.0,9.0,1.0,2898625336-291572.jpg,2898635428-69104.jpg,A5JUTCI1XLTTD_2022-09-25_06h12.28.721.csv
309,1.0,right,right,1.0,1.5717,0.0,10.0,10.0,10.0,1.0,2964218432-369263.jpg,2898624426-291546.jpg,A5JUTCI1XLTTD_2022-09-25_06h12.28.721.csv
310,2.0,left,left,1.0,2.1043,0.0,11.0,11.0,11.0,1.0,2986451363-73598.jpg,2984628361-295995.jpg,A5JUTCI1XLTTD_2022-09-25_06h12.28.721.csv
311,1.0,left,left,1.0,1.5864,0.0,12.0,12.0,12.0,1.0,2238428357-313623.jpg,2238499057-320266.jpg,A5JUTCI1XLTTD_2022-09-25_06h12.28.721.csv
312,1.0,left,left,1.0,1.9481,0.0,13.0,13.0,13.0,1.0,2883268471-290842.jpg,2883268471-290843.jpg,A5JUTCI1XLTTD_2022-09-25_06h12.28.721.csv
313,1.0,right,left,0.0,1.7707,0.0,14.0,14.0,14.0,1.0,2460547536-274179.jpg,2512875899-126682.jpg,A5JUTCI1XLTTD_2022-09-25_06h12.28.721.csv
314,3.0,left,left,1.0,3.1609,0.0,15.0,15.0,15.0,1.0,2964222378-71332.jpg,2981240427-370099.jpg,A5JUTCI1XLTTD_2022-09-25_06h12.28.721.csv
315,3.0,left,left,1.0,1.714,0.0,16.0,16.0,16.0,1.0,2446759803-49249.jpg,2901951392-368654.jpg,A5JUTCI1XLTTD_2022-09-25_06h12.28.721.csv
316,1.0,left,left,1.0,2.3054,0.0,17.0,17.0,17.0,1.0,2238560245-182099.jpg,2592380255-205553.jpg,A5JUTCI1XLTTD_2022-09-25_06h12.28.721.csv
317,2.0,left,left,1.0,1.4155,0.0,18.0,18.0,18.0,1.0,2460547467-349422.jpg,2868487415-213924.jpg,A5JUTCI1XLTTD_2022-09-25_06h12.28.721.csv
318,1.0,left,left,1.0,1.2469,0.0,19.0,19.0,19.0,1.0,2238480677-317399.jpg,2238481630-168218.jpg,A5JUTCI1XLTTD_2022-09-25_06h12.28.721.csv
319,3.0,right,left,0.0,2.7707,0.0,20.0,20.0,20.0,1.0,2981231446-294732.jpg,2964218374-144967.jpg,A5JUTCI1XLTTD_2022-09-25_06h12.28.721.csv
320,3.0,right,right,1.0,2.2983,0.0,21.0,21.0,21.0,1.0,2238117096-228518.jpg,2592380177-354626.jpg,A5JUTCI1XLTTD_2022-09-25_06h12.28.721.csv
321,2.0,left,left,1.0,15.2341,0.0,22.0,22.0,22.0,1.0,2460547467-349421.jpg,2452380166-273110.jpg,A5JUTCI1XLTTD_2022-09-25_06h12.28.721.csv
322,3.0,right,left,0.0,2.3104,0.0,23.0,23.0,23.0,1.0,2981231422-369714.jpg,2874307433-66280.jpg,A5JUTCI1XLTTD_2022-09-25_06h12.28.721.csv
323,3.0,right,right,1.0,70.7939,0.0,24.0,24.0,24.0,1.0,2898631468-68931.jpg,2901941401-292798.jpg,A5JUTCI1XLTTD_2022-09-25_06h12.28.721.csv
324,1.0,right,left,0.0,1.0839,0.0,25.0,25.0,25.0,1.0,2238480434-93829.jpg,2458347385-199723.jpg,A5JUTCI1XLTTD_2022-09-25_06h12.28.721.csv
325,3.0,left,right,0.0,2.0875,0.0,26.0,26.0,26.0,1.0,2883268412-365898.jpg,2238436252-314037.jpg,A5JUTCI1XLTTD_2022-09-25_06h12.28.721.csv
326,2.0,left,left,1.0,1.5205,0.0,27.0,27.0,27.0,1.0,2449442529-124445.jpg,2986408373-73286.jpg,A5JUTCI1XLTTD_2022-09-25_06h12.28.721.csv
327,2.0,right,right,1.0,1.5054,0.0,28.0,28.0,28.0,1.0,2901943387-368037.jpg,2898617468-68274.jpg,A5JUTCI1XLTTD_2022-09-25_06h12.28.721.csv
328,1.0,right,right,1.0,8.9635,0.0,29.0,29.0,29.0,1.0,2237857458-1325.jpg,2874302418-65979.jpg,A5JUTCI1XLTTD_2022-09-25_06h12.28.721.csv
329,3.0,left,left,1.0,1.7893,0.0,30.0,30.0,30.0,1.0,2238481928-19949.jpg,2981241419-145844.jpg,A5JUTCI1XLTTD_2022-09-25_06h12.28.721.csv
330,2.0,right,right,1.0,9.4395,0.0,31.0,31.0,31.0,1.0,2981229442-369621.jpg,2901939379-143480.jpg,A5JUTCI1XLTTD_2022-09-25_06h12.28.721.csv
331,3.0,right,right,1.0,5.5,0.0,32.0,32.0,32.0,1.0,2238531493-28260.jpg,2575120738-55529.jpg,A5JUTCI1XLTTD_2022-09-25_06h12.28.721.csv
332,3.0,left,left,1.0,16.3161,0.0,33.0,33.0,33.0,1.0,2874301407-363895.jpg,2901947323-70275.jpg,A5JUTCI1XLTTD_2022-09-25_06h12.28.721.csv
333,3.0,left,right,0.0,13.8172,0.0,34.0,34.0,34.0,1.0,2864907432-362042.jpg,2989726338-74002.jpg,A5JUTCI1XLTTD_2022-09-25_06h12.28.721.csv
334,1.0,left,right,0.0,2.6983,0.0,35.0,35.0,35.0,1.0,2964223381-294447.jpg,2427874231-269884.jpg,A5JUTCI1XLTTD_2022-09-25_06h12.28.721.csv
335,2.0,right,right,1.0,1.6741,0.0,36.0,36.0,36.0,1.0,2575118671-277663.jpg,2898633421-291973.jpg,A5JUTCI1XLTTD_2022-09-25_06h12.28.721.csv
336,2.0,left,right,0.0,1.4981,0.0,37.0,37.0,37.0,1.0,2874299429-139695.jpg,2901942443-69923.jpg,A5JUTCI1XLTTD_2022-09-25_06h12.28.721.csv
337,1.0,left,left,1.0,3.0399,0.0,38.0,38.0,38.0,1.0,2986451363-73599.jpg,2898626385-216899.jpg,A5JUTCI1XLTTD_2022-09-25_06h12.28.721.csv
338,3.0,left,left,1.0,1.9737,0.0,39.0,39.0,39.0,1.0,2868475410-213219.jpg,2868474407-362885.jpg,A5JUTCI1XLTTD_2022-09-25_06h12.28.721.csv
339,2.0,right,left,0.0,1.8069,0.0,40.0,40.0,40.0,1.0,2901939327-367670.jpg,2898618390-216538.jpg,A5JUTCI1XLTTD_2022-09-25_06h12.28.721.csv
340,1.0,right,right,1.0,2.4067,0.0,41.0,41.0,41.0,1.0,2860312398-62572.jpg,2901947423-70311.jpg,A5JUTCI1XLTTD_2022-09-25_06h12.28.721.csv
341,3.0,right,right,1.0,39.4804,0.0,42.0,42.0,42.0,1.0,2898619327-366362.jpg,2964216465-219242.jpg,A5JUTCI1XLTTD_2022-09-25_06h12.28.721.csv
342,2.0,left,left,1.0,1.8266,0.0,43.0,43.0,43.0,1.0,2449442529-124446.jpg,2460547536-274181.jpg,A5JUTCI1XLTTD_2022-09-25_06h12.28.721.csv
343,2.0,right,right,1.0,1.6319,0.0,44.0,44.0,44.0,1.0,2579432534-130704.jpg,2592380177-354629.jpg,A5JUTCI1XLTTD_2022-09-25_06h12.28.721.csv
344,3.0,left,right,0.0,2.4031,0.0,45.0,45.0,45.0,1.0,2883256307-365057.jpg,2864904453-63933.jpg,A5JUTCI1XLTTD_2022-09-25_06h12.28.721.csv
345,1.0,left,right,0.0,1.2192,0.0,46.0,46.0,46.0,1.0,2460547508-51571.jpg,2452380166-273109.jpg,A5JUTCI1XLTTD_2022-09-25_06h12.28.721.csv
346,3.0,left,left,1.0,4.6568,0.0,47.0,47.0,47.0,1.0,2901952513-70703.jpg,2238481198-19821.jpg,A5JUTCI1XLTTD_2022-09-25_06h12.28.721.csv
347,2.0,right,left,0.0,2.3013,0.0,48.0,48.0,48.0,1.0,2238479053-19457.jpg,2592379964-131054.jpg,A5JUTCI1XLTTD_2022-09-25_06h12.28.721.csv
348,2.0,left,left,1.0,3.2557,0.0,49.0,49.0,49.0,1.0,2898634397-367080.jpg,2901934408-69289.jpg,A5JUTCI1XLTTD_2022-09-25_06h12.28.721.csv
349,2.0,left,left,1.0,2.1109,0.0,50.0,50.0,50.0,1.0,2901939379-143479.jpg,2446758985-197610.jpg,A5JUTCI1XLTTD_2022-09-25_06h12.28.721.csv
350,3.0,right,right,1.0,1.3765,0.0,51.0,51.0,51.0,1.0,2898624426-291544.jpg,2446758985-197609.jpg,A5JUTCI1XLTTD_2022-09-25_06h12.28.721.csv
351,3.0,left,left,1.0,1.6925,0.0,52.0,52.0,52.0,1.0,2981241414-145842.jpg,2427873848-47312.jpg,A5JUTCI1XLTTD_2022-09-25_06h12.28.721.csv
352,2.0,left,left,1.0,14.3967,0.0,53.0,53.0,53.0,1.0,2874303365-214262.jpg,2238563377-332054.jpg,A5JUTCI1XLTTD_2022-09-25_06h12.28.721.csv
353,2.0,right,right,1.0,1.7936,0.0,54.0,54.0,54.0,1.0,2238481198-19823.jpg,2874302418-65978.jpg,A5JUTCI1XLTTD_2022-09-25_06h12.28.721.csv
354,3.0,left,left,1.0,21.9862,0.0,55.0,55.0,55.0,1.0,2238580740-186218.jpg,2964220333-71258.jpg,A5JUTCI1XLTTD_2022-09-25_06h12.28.721.csv
355,2.0,right,right,1.0,2.9674,0.0,56.0,56.0,56.0,1.0,2901946436-293242.jpg,2238481198-19822.jpg,A5JUTCI1XLTTD_2022-09-25_06h12.28.721.csv
356,2.0,left,right,0.0,1.3769,0.0,57.0,57.0,57.0,1.0,2883273443-68193.jpg,2460547508-51572.jpg,A5JUTCI1XLTTD_2022-09-25_06h12.28.721.csv
357,1.0,right,right,1.0,1.8122,0.0,58.0,58.0,58.0,1.0,2238328478-11678.jpg,2452380832-348593.jpg,A5JUTCI1XLTTD_2022-09-25_06h12.28.721.csv
358,1.0,left,left,1.0,1.6531,0.0,59.0,59.0,59.0,1.0,2238425482-313537.jpg,2238471391-240918.jpg,A5JUTCI1XLTTD_2022-09-25_06h12.28.721.csv
359,2.0,right,right,1.0,2.5196,0.0,0.0,0.0,0.0,1.0,2446758985-197610.jpg,2901939379-143479.jpg,A1LSSI3O205X7F_2022-09-25_06h19.10.605.csv
360,3.0,left,left,1.0,1.6158,0.0,1.0,1.0,1.0,1.0,2901941401-292798.jpg,2898631468-68931.jpg,A1LSSI3O205X7F_2022-09-25_06h19.10.605.csv
361,3.0,right,left,0.0,1.2113,0.0,2.0,2.0,2.0,1.0,2238481198-19821.jpg,2901952513-70703.jpg,A1LSSI3O205X7F_2022-09-25_06h19.10.605.csv
362,3.0,left,left,1.0,1.8173,0.0,3.0,3.0,3.0,1.0,2592380177-354629.jpg,2512875587-350044.jpg,A1LSSI3O205X7F_2022-09-25_06h19.10.605.csv
363,3.0,left,right,0.0,2.325,0.0,4.0,4.0,4.0,1.0,2449442529-124446.jpg,2460547536-274178.jpg,A1LSSI3O205X7F_2022-09-25_06h19.10.605.csv
364,2.0,left,left,1.0,1.617,0.0,5.0,5.0,5.0,1.0,2883268471-290842.jpg,2883255450-215310.jpg,A1LSSI3O205X7F_2022-09-25_06h19.10.605.csv
365,3.0,right,right,1.0,1.7332,0.0,6.0,6.0,6.0,1.0,2898633480-217190.jpg,2238425482-313537.jpg,A1LSSI3O205X7F_2022-09-25_06h19.10.605.csv
366,1.0,left,right,0.0,1.6067,0.0,7.0,7.0,7.0,1.0,2512875899-126682.jpg,2460547536-274179.jpg,A1LSSI3O205X7F_2022-09-25_06h19.10.605.csv
367,1.0,left,right,0.0,1.6258,0.0,8.0,8.0,8.0,1.0,2964222378-71332.jpg,2981240424-145794.jpg,A1LSSI3O205X7F_2022-09-25_06h19.10.605.csv
368,3.0,left,left,1.0,1.6273,0.0,9.0,9.0,9.0,1.0,2460547508-51571.jpg,2901941438-69835.jpg,A1LSSI3O205X7F_2022-09-25_06h19.10.605.csv
369,1.0,left,left,1.0,1.3815,0.0,10.0,10.0,10.0,1.0,2898633421-291973.jpg,2512876023-52283.jpg,A1LSSI3O205X7F_2022-09-25_06h19.10.605.csv
370,1.0,right,right,1.0,1.6028,0.0,11.0,11.0,11.0,1.0,2883266388-67750.jpg,2874299429-139695.jpg,A1LSSI3O205X7F_2022-09-25_06h19.10.605.csv
371,1.0,left,right,0.0,1.1905,0.0,12.0,12.0,12.0,1.0,2964218374-144967.jpg,2964218374-144968.jpg,A1LSSI3O205X7F_2022-09-25_06h19.10.605.csv
372,1.0,left,left,1.0,1.2195,0.0,13.0,13.0,13.0,1.0,2238480677-317399.jpg,2238481630-168218.jpg,A1LSSI3O205X7F_2022-09-25_06h19.10.605.csv
373,2.0,right,right,1.0,1.8109,0.0,14.0,14.0,14.0,1.0,2864901386-286797.jpg,2592380177-354626.jpg,A1LSSI3O205X7F_2022-09-25_06h19.10.605.csv
374,3.0,right,right,1.0,1.2101,0.0,15.0,15.0,15.0,1.0,2901951392-368654.jpg,2446759803-49249.jpg,A1LSSI3O205X7F_2022-09-25_06h19.10.605.csv
375,1.0,right,right,1.0,1.3146,0.0,16.0,16.0,16.0,1.0,2237856148-989.jpg,2898618390-216538.jpg,A1LSSI3O205X7F_2022-09-25_06h19.10.605.csv
376,3.0,right,right,1.0,1.4035,0.0,17.0,17.0,17.0,1.0,2864911457-362260.jpg,2874303365-214262.jpg,A1LSSI3O205X7F_2022-09-25_06h19.10.605.csv
377,3.0,left,left,1.0,1.2997,0.0,18.0,18.0,18.0,1.0,2446758985-197609.jpg,2898624426-291544.jpg,A1LSSI3O205X7F_2022-09-25_06h19.10.605.csv
378,3.0,right,right,1.0,1.8105,0.0,19.0,19.0,19.0,1.0,2238531493-28260.jpg,2575120738-55529.jpg,A1LSSI3O205X7F_2022-09-25_06h19.10.605.csv
379,2.0,right,right,1.0,1.7072,0.0,20.0,20.0,20.0,1.0,2238480803-19739.jpg,2868475410-213219.jpg,A1LSSI3O205X7F_2022-09-25_06h19.10.605.csv
380,3.0,right,left,0.0,1.9008,0.0,21.0,21.0,21.0,1.0,2901947323-70275.jpg,2874301407-363895.jpg,A1LSSI3O205X7F_2022-09-25_06h19.10.605.csv
381,3.0,right,right,1.0,1.5077,0.0,22.0,22.0,22.0,1.0,2964220333-71258.jpg,2238580740-186218.jpg,A1LSSI3O205X7F_2022-09-25_06h19.10.605.csv
382,1.0,right,right,1.0,1.4906,0.0,23.0,23.0,23.0,1.0,2898631394-142727.jpg,2460547467-349421.jpg,A1LSSI3O205X7F_2022-09-25_06h19.10.605.csv
383,1.0,right,right,1.0,1.8986,0.0,24.0,24.0,24.0,1.0,2237944827-301472.jpg,2898634397-367080.jpg,A1LSSI3O205X7F_2022-09-25_06h19.10.605.csv
384,1.0,right,left,0.0,1.3183,0.0,25.0,25.0,25.0,1.0,2986447306-296584.jpg,2874299429-139694.jpg,A1LSSI3O205X7F_2022-09-25_06h19.10.605.csv
385,1.0,right,right,1.0,1.3095,0.0,26.0,26.0,26.0,1.0,2238584894-113161.jpg,2238572663-35822.jpg,A1LSSI3O205X7F_2022-09-25_06h19.10.605.csv
386,1.0,left,right,0.0,1.3183,0.0,27.0,27.0,27.0,1.0,2238428357-313623.jpg,2238499057-320266.jpg,A1LSSI3O205X7F_2022-09-25_06h19.10.605.csv
387,2.0,right,right,1.0,1.0223,0.0,28.0,28.0,28.0,1.0,2238481813-19930.jpg,2452380832-348593.jpg,A1LSSI3O205X7F_2022-09-25_06h19.10.605.csv
388,2.0,left,right,0.0,2.4022,0.0,29.0,29.0,29.0,1.0,2986451363-73599.jpg,2860302315-210704.jpg,A1LSSI3O205X7F_2022-09-25_06h19.10.605.csv
389,2.0,left,right,0.0,3.017,0.0,30.0,30.0,30.0,1.0,2964216465-219242.jpg,2864900319-137787.jpg,A1LSSI3O205X7F_2022-09-25_06h19.10.605.csv
390,3.0,left,left,1.0,1.5051,0.0,31.0,31.0,31.0,1.0,2964213381-294060.jpg,2964213381-294061.jpg,A1LSSI3O205X7F_2022-09-25_06h19.10.605.csv
391,3.0,right,left,0.0,1.5113,0.0,32.0,32.0,32.0,1.0,2994401319-148290.jpg,2452381505-199546.jpg,A1LSSI3O205X7F_2022-09-25_06h19.10.605.csv
392,2.0,right,right,1.0,1.5062,0.0,33.0,33.0,33.0,1.0,2883268412-365899.jpg,2864910426-287204.jpg,A1LSSI3O205X7F_2022-09-25_06h19.10.605.csv
393,1.0,right,right,1.0,1.1094,0.0,34.0,34.0,34.0,1.0,2237857458-1324.jpg,2986451363-73598.jpg,A1LSSI3O205X7F_2022-09-25_06h19.10.605.csv
394,2.0,left,left,1.0,1.4194,0.0,35.0,35.0,35.0,1.0,2883273443-68193.jpg,2460547508-51572.jpg,A1LSSI3O205X7F_2022-09-25_06h19.10.605.csv
395,1.0,left,left,1.0,1.0042,0.0,36.0,36.0,36.0,1.0,2864907432-362042.jpg,2864901420-212147.jpg,A1LSSI3O205X7F_2022-09-25_06h19.10.605.csv
396,1.0,left,left,1.0,1.4012,0.0,37.0,37.0,37.0,1.0,2460547467-349422.jpg,2898618440-216545.jpg,A1LSSI3O205X7F_2022-09-25_06h19.10.605.csv
397,2.0,left,left,1.0,1.1053,0.0,38.0,38.0,38.0,1.0,2898618444-142233.jpg,2238555262-330312.jpg,A1LSSI3O205X7F_2022-09-25_06h19.10.605.csv
398,2.0,right,right,1.0,1.5096,0.0,39.0,39.0,39.0,1.0,2981236443-71859.jpg,2898624426-291546.jpg,A1LSSI3O205X7F_2022-09-25_06h19.10.605.csv
399,2.0,left,right,0.0,3.338,0.0,40.0,40.0,40.0,1.0,2238560245-182099.jpg,2874314526-289684.jpg,A1LSSI3O205X7F_2022-09-25_06h19.10.605.csv
400,3.0,right,left,0.0,2.0834,0.0,41.0,41.0,41.0,1.0,2864904453-63933.jpg,2883256307-365057.jpg,A1LSSI3O205X7F_2022-09-25_06h19.10.605.csv
401,1.0,left,left,1.0,1.6001,0.0,42.0,42.0,42.0,1.0,2981241414-145842.jpg,2238516618-25604.jpg,A1LSSI3O205X7F_2022-09-25_06h19.10.605.csv
402,3.0,left,right,0.0,1.5073,0.0,43.0,43.0,43.0,1.0,2898635427-367120.jpg,2898621427-366486.jpg,A1LSSI3O205X7F_2022-09-25_06h19.10.605.csv
403,2.0,left,left,1.0,1.3267,0.0,44.0,44.0,44.0,1.0,2901947423-70311.jpg,2238573447-333826.jpg,A1LSSI3O205X7F_2022-09-25_06h19.10.605.csv
404,1.0,right,right,1.0,2.4131,0.0,45.0,45.0,45.0,1.0,2452380171-273112.jpg,2449442529-124445.jpg,A1LSSI3O205X7F_2022-09-25_06h19.10.605.csv
405,1.0,right,right,1.0,1.1219,0.0,46.0,46.0,46.0,1.0,2579432519-130698.jpg,2981231403-71642.jpg,A1LSSI3O205X7F_2022-09-25_06h19.10.605.csv
406,3.0,left,right,0.0,1.6044,0.0,47.0,47.0,47.0,1.0,2883268412-365898.jpg,2238436252-314037.jpg,A1LSSI3O205X7F_2022-09-25_06h19.10.605.csv
407,2.0,left,left,1.0,2.2121,0.0,48.0,48.0,48.0,1.0,2868474407-362883.jpg,2981246400-220363.jpg,A1LSSI3O205X7F_2022-09-25_06h19.10.605.csv
408,3.0,right,right,1.0,1.7242,0.0,49.0,49.0,49.0,1.0,2981241419-145844.jpg,2238481928-19949.jpg,A1LSSI3O205X7F_2022-09-25_06h19.10.605.csv
409,2.0,left,left,1.0,1.4107,0.0,50.0,50.0,50.0,1.0,2898617468-68274.jpg,2901943387-368037.jpg,A1LSSI3O205X7F_2022-09-25_06h19.10.605.csv
410,1.0,right,right,1.0,1.6041,0.0,51.0,51.0,51.0,1.0,2446759803-49250.jpg,2898635428-69104.jpg,A1LSSI3O205X7F_2022-09-25_06h19.10.605.csv
411,2.0,left,right,0.0,1.7065,0.0,52.0,52.0,52.0,1.0,2874307433-66280.jpg,2981246400-220365.jpg,A1LSSI3O205X7F_2022-09-25_06h19.10.605.csv
412,2.0,left,left,1.0,1.5257,0.0,53.0,53.0,53.0,1.0,2874302418-65978.jpg,2238481198-19823.jpg,A1LSSI3O205X7F_2022-09-25_06h19.10.605.csv
413,3.0,right,right,1.0,1.3034,0.0,54.0,54.0,54.0,1.0,2592380272-354673.jpg,2592379964-131054.jpg,A1LSSI3O205X7F_2022-09-25_06h19.10.605.csv
414,3.0,left,left,1.0,1.6114,0.0,55.0,55.0,55.0,1.0,2901939379-143480.jpg,2898632385-217139.jpg,A1LSSI3O205X7F_2022-09-25_06h19.10.605.csv
415,2.0,right,right,1.0,1.3424,0.0,56.0,56.0,56.0,1.0,2901941438-69836.jpg,2964223381-294447.jpg,A1LSSI3O205X7F_2022-09-25_06h19.10.605.csv
416,1.0,right,right,1.0,1.4099,0.0,57.0,57.0,57.0,1.0,2862691449-137104.jpg,2238481198-19822.jpg,A1LSSI3O205X7F_2022-09-25_06h19.10.605.csv
417,2.0,left,left,1.0,1.712,0.0,58.0,58.0,58.0,1.0,2874302418-65979.jpg,2238480648-19714.jpg,A1LSSI3O205X7F_2022-09-25_06h19.10.605.csv
418,2.0,left,right,0.0,1.9356,0.0,59.0,59.0,59.0,1.0,2458347385-199723.jpg,2427874554-121863.jpg,A1LSSI3O205X7F_2022-09-25_06h19.10.605.csv
419,3.0,left,left,1.0,3.7857,0.0,0.0,0.0,0.0,1.0,2898624426-291546.jpg,2981235446-294900.jpg,A17JUIY13I7RL8_2022-09-25_06h11.23.223.csv
420,2.0,right,right,1.0,1.1766,0.0,1.0,1.0,1.0,1.0,2874314526-289684.jpg,2238560245-182099.jpg,A17JUIY13I7RL8_2022-09-25_06h11.23.223.csv
421,1.0,right,right,1.0,1.7122,0.0,2.0,2.0,2.0,1.0,2237857458-1324.jpg,2986451363-73598.jpg,A17JUIY13I7RL8_2022-09-25_06h11.23.223.csv
422,3.0,left,left,1.0,1.552,0.0,3.0,3.0,3.0,1.0,2238481928-19949.jpg,2981241419-145844.jpg,A17JUIY13I7RL8_2022-09-25_06h11.23.223.csv
423,1.0,right,left,0.0,1.3383,0.0,4.0,4.0,4.0,1.0,2238499057-320266.jpg,2238428357-313623.jpg,A17JUIY13I7RL8_2022-09-25_06h11.23.223.csv
424,1.0,right,left,0.0,1.8106,0.0,5.0,5.0,5.0,1.0,2964224310-219528.jpg,2874302418-65978.jpg,A17JUIY13I7RL8_2022-09-25_06h11.23.223.csv
425,3.0,left,right,0.0,1.1005,0.0,6.0,6.0,6.0,1.0,2964223381-294447.jpg,2898628438-68785.jpg,A17JUIY13I7RL8_2022-09-25_06h11.23.223.csv
426,1.0,left,left,1.0,1.5008,0.0,7.0,7.0,7.0,1.0,2883268471-290842.jpg,2883268471-290843.jpg,A17JUIY13I7RL8_2022-09-25_06h11.23.223.csv
427,2.0,left,right,0.0,1.0503,0.0,8.0,8.0,8.0,1.0,2460547508-51571.jpg,2981232437-369759.jpg,A17JUIY13I7RL8_2022-09-25_06h11.23.223.csv
428,3.0,right,right,1.0,1.0184,0.0,9.0,9.0,9.0,1.0,2964217461-294238.jpg,2898634397-367080.jpg,A17JUIY13I7RL8_2022-09-25_06h11.23.223.csv
429,1.0,right,left,0.0,1.4027,0.0,10.0,10.0,10.0,1.0,2238480434-93829.jpg,2458347385-199723.jpg,A17JUIY13I7RL8_2022-09-25_06h11.23.223.csv
430,3.0,right,left,0.0,1.1537,0.0,11.0,11.0,11.0,1.0,2864911457-362260.jpg,2874303365-214262.jpg,A17JUIY13I7RL8_2022-09-25_06h11.23.223.csv
431,3.0,right,right,1.0,1.365,0.0,12.0,12.0,12.0,1.0,2238578544-111698.jpg,2874302418-65979.jpg,A17JUIY13I7RL8_2022-09-25_06h11.23.223.csv
432,3.0,left,right,0.0,1.2111,0.0,13.0,13.0,13.0,1.0,2901941401-292798.jpg,2898631468-68931.jpg,A17JUIY13I7RL8_2022-09-25_06h11.23.223.csv
433,2.0,right,left,0.0,1.5211,0.0,14.0,14.0,14.0,1.0,2238571930-184143.jpg,2238572663-35822.jpg,A17JUIY13I7RL8_2022-09-25_06h11.23.223.csv
434,1.0,left,right,0.0,1.6945,0.0,15.0,15.0,15.0,1.0,2964218374-144967.jpg,2964218374-144968.jpg,A17JUIY13I7RL8_2022-09-25_06h11.23.223.csv
435,2.0,left,right,0.0,1.6301,0.0,16.0,16.0,16.0,1.0,2901939379-143480.jpg,2981229442-369621.jpg,A17JUIY13I7RL8_2022-09-25_06h11.23.223.csv
436,3.0,right,left,0.0,1.575,0.0,17.0,17.0,17.0,1.0,2901947323-70275.jpg,2874301407-363895.jpg,A17JUIY13I7RL8_2022-09-25_06h11.23.223.csv
437,3.0,right,left,0.0,1.7388,0.0,18.0,18.0,18.0,1.0,2238436252-314037.jpg,2883268412-365898.jpg,A17JUIY13I7RL8_2022-09-25_06h11.23.223.csv
438,2.0,left,left,1.0,1.5997,0.0,19.0,19.0,19.0,1.0,2901939379-143479.jpg,2446758985-197610.jpg,A17JUIY13I7RL8_2022-09-25_06h11.23.223.csv
439,1.0,left,right,0.0,1.8835,0.0,20.0,20.0,20.0,1.0,2452381505-199546.jpg,2901938432-367627.jpg,A17JUIY13I7RL8_2022-09-25_06h11.23.223.csv
440,1.0,left,right,0.0,1.2108,0.0,21.0,21.0,21.0,1.0,2460547467-349421.jpg,2898631394-142727.jpg,A17JUIY13I7RL8_2022-09-25_06h11.23.223.csv
441,1.0,right,right,1.0,1.3734,0.0,22.0,22.0,22.0,1.0,2238471391-240918.jpg,2238425482-313537.jpg,A17JUIY13I7RL8_2022-09-25_06h11.23.223.csv
442,1.0,right,right,1.0,1.7189,0.0,23.0,23.0,23.0,1.0,2446760601-272099.jpg,2446759803-49249.jpg,A17JUIY13I7RL8_2022-09-25_06h11.23.223.csv
443,2.0,right,left,0.0,1.2403,0.0,24.0,24.0,24.0,1.0,2981246400-220363.jpg,2868474407-362883.jpg,A17JUIY13I7RL8_2022-09-25_06h11.23.223.csv
444,1.0,right,right,1.0,2.4392,0.0,25.0,25.0,25.0,1.0,2238576792-334659.jpg,2592380177-354626.jpg,A17JUIY13I7RL8_2022-09-25_06h11.23.223.csv
445,2.0,left,left,1.0,1.7909,0.0,26.0,26.0,26.0,1.0,2446758985-197609.jpg,2864909447-362144.jpg,A17JUIY13I7RL8_2022-09-25_06h11.23.223.csv
446,3.0,right,right,1.0,1.9505,0.0,27.0,27.0,27.0,1.0,2238480803-19737.jpg,2238481198-19822.jpg,A17JUIY13I7RL8_2022-09-25_06h11.23.223.csv
447,3.0,left,right,0.0,1.5379,0.0,28.0,28.0,28.0,1.0,2964216465-219242.jpg,2898619327-366362.jpg,A17JUIY13I7RL8_2022-09-25_06h11.23.223.csv
448,3.0,right,left,0.0,1.1739,0.0,29.0,29.0,29.0,1.0,2864904453-63933.jpg,2883256307-365057.jpg,A17JUIY13I7RL8_2022-09-25_06h11.23.223.csv
449,2.0,right,right,1.0,1.3406,0.0,30.0,30.0,30.0,1.0,2575120738-55528.jpg,2575120738-55529.jpg,A17JUIY13I7RL8_2022-09-25_06h11.23.223.csv
450,1.0,right,right,1.0,1.743,0.0,31.0,31.0,31.0,1.0,2238550816-254000.jpg,2238580740-186218.jpg,A17JUIY13I7RL8_2022-09-25_06h11.23.223.csv
451,1.0,right,right,1.0,1.4198,0.0,32.0,32.0,32.0,1.0,2237856148-989.jpg,2898618390-216538.jpg,A17JUIY13I7RL8_2022-09-25_06h11.23.223.csv
452,2.0,right,left,0.0,1.3308,0.0,33.0,33.0,33.0,1.0,2238573447-333826.jpg,2901947423-70311.jpg,A17JUIY13I7RL8_2022-09-25_06h11.23.223.csv
453,1.0,left,left,1.0,1.3326,0.0,34.0,34.0,34.0,1.0,2449442529-124446.jpg,2446759803-49251.jpg,A17JUIY13I7RL8_2022-09-25_06h11.23.223.csv
454,1.0,left,right,0.0,1.3321,0.0,35.0,35.0,35.0,1.0,2512875899-126682.jpg,2460547536-274179.jpg,A17JUIY13I7RL8_2022-09-25_06h11.23.223.csv
455,3.0,left,left,1.0,1.4514,0.0,36.0,36.0,36.0,1.0,2964222378-71332.jpg,2981240427-370099.jpg,A17JUIY13I7RL8_2022-09-25_06h11.23.223.csv
456,2.0,left,left,1.0,1.8636,0.0,37.0,37.0,37.0,1.0,2898635428-69104.jpg,2901943411-292945.jpg,A17JUIY13I7RL8_2022-09-25_06h11.23.223.csv
457,3.0,right,right,1.0,1.2118,0.0,38.0,38.0,38.0,1.0,2427873848-47312.jpg,2981241414-145842.jpg,A17JUIY13I7RL8_2022-09-25_06h11.23.223.csv
458,2.0,left,left,1.0,1.401,0.0,39.0,39.0,39.0,1.0,2238480677-317399.jpg,2238573546-258454.jpg,A17JUIY13I7RL8_2022-09-25_06h11.23.223.csv
459,2.0,left,right,0.0,1.9592,0.0,40.0,40.0,40.0,1.0,2883273443-68193.jpg,2460547508-51572.jpg,A17JUIY13I7RL8_2022-09-25_06h11.23.223.csv
460,2.0,left,left,1.0,1.4874,0.0,41.0,41.0,41.0,1.0,2864910426-287204.jpg,2883268412-365899.jpg,A17JUIY13I7RL8_2022-09-25_06h11.23.223.csv
461,2.0,left,left,1.0,1.247,0.0,42.0,42.0,42.0,1.0,2592380177-354629.jpg,2579432534-130704.jpg,A17JUIY13I7RL8_2022-09-25_06h11.23.223.csv
462,2.0,right,right,1.0,1.7499,0.0,43.0,43.0,43.0,1.0,2238481813-19930.jpg,2452380832-348593.jpg,A17JUIY13I7RL8_2022-09-25_06h11.23.223.csv
463,1.0,left,right,0.0,1.9267,0.0,44.0,44.0,44.0,1.0,2592379964-131054.jpg,2575963989-130576.jpg,A17JUIY13I7RL8_2022-09-25_06h11.23.223.csv
464,2.0,left,right,0.0,1.2087,0.0,45.0,45.0,45.0,1.0,2986451363-73599.jpg,2860302315-210704.jpg,A17JUIY13I7RL8_2022-09-25_06h11.23.223.csv
465,3.0,right,right,1.0,1.9959,0.0,46.0,46.0,46.0,1.0,2898618444-142232.jpg,2898618444-142233.jpg,A17JUIY13I7RL8_2022-09-25_06h11.23.223.csv
466,2.0,right,left,0.0,1.5898,0.0,47.0,47.0,47.0,1.0,2981244403-72215.jpg,2874299429-139694.jpg,A17JUIY13I7RL8_2022-09-25_06h11.23.223.csv
467,1.0,left,left,1.0,1.4785,0.0,48.0,48.0,48.0,1.0,2449442529-124445.jpg,2452380171-273112.jpg,A17JUIY13I7RL8_2022-09-25_06h11.23.223.csv
468,3.0,right,right,1.0,1.33,0.0,49.0,49.0,49.0,1.0,2238481198-19821.jpg,2901952513-70703.jpg,A17JUIY13I7RL8_2022-09-25_06h11.23.223.csv
469,2.0,left,right,0.0,1.3113,0.0,50.0,50.0,50.0,1.0,2981231403-71642.jpg,2874305405-214397.jpg,A17JUIY13I7RL8_2022-09-25_06h11.23.223.csv
470,1.0,left,right,0.0,1.3301,0.0,51.0,51.0,51.0,1.0,2874299429-139695.jpg,2883266388-67750.jpg,A17JUIY13I7RL8_2022-09-25_06h11.23.223.csv
471,2.0,right,right,1.0,1.3986,0.0,52.0,52.0,52.0,1.0,2901943387-368037.jpg,2898617468-68274.jpg,A17JUIY13I7RL8_2022-09-25_06h11.23.223.csv
472,3.0,right,right,1.0,1.5962,0.0,53.0,53.0,53.0,1.0,2864909447-362146.jpg,2460547467-349422.jpg,A17JUIY13I7RL8_2022-09-25_06h11.23.223.csv
473,1.0,left,left,1.0,1.5831,0.0,54.0,54.0,54.0,1.0,2874307433-66280.jpg,2984615358-72439.jpg,A17JUIY13I7RL8_2022-09-25_06h11.23.223.csv
474,3.0,left,right,0.0,1.5221,0.0,55.0,55.0,55.0,1.0,2868475410-213219.jpg,2868474407-362885.jpg,A17JUIY13I7RL8_2022-09-25_06h11.23.223.csv
475,3.0,left,left,1.0,1.3424,0.0,56.0,56.0,56.0,1.0,2898633421-291973.jpg,2238550049-105691.jpg,A17JUIY13I7RL8_2022-09-25_06h11.23.223.csv
476,3.0,left,left,1.0,1.3166,0.0,57.0,57.0,57.0,1.0,2864907432-362042.jpg,2989726338-74002.jpg,A17JUIY13I7RL8_2022-09-25_06h11.23.223.csv
477,2.0,right,right,1.0,1.415,0.0,58.0,58.0,58.0,1.0,2868479517-363220.jpg,2898635427-367120.jpg,A17JUIY13I7RL8_2022-09-25_06h11.23.223.csv
478,1.0,right,right,1.0,1.3867,0.0,59.0,59.0,59.0,1.0,2981244394-145974.jpg,2964213381-294060.jpg,A17JUIY13I7RL8_2022-09-25_06h11.23.223.csv
479,2.0,left,left,1.0,2.2867,0.0,0.0,0.0,0.0,1.0,2449442529-124445.jpg,2986408373-73286.jpg,A344BXT88DM2ZH_2022-09-25_06h13.49.540.csv
480,2.0,left,left,1.0,1.3637,0.0,1.0,1.0,1.0,1.0,2898624426-291546.jpg,2981236443-71859.jpg,A344BXT88DM2ZH_2022-09-25_06h13.49.540.csv
481,2.0,left,left,1.0,2.3485,0.0,2.0,2.0,2.0,1.0,2898617468-68274.jpg,2901943387-368037.jpg,A344BXT88DM2ZH_2022-09-25_06h13.49.540.csv
482,3.0,right,right,1.0,2.4414,0.0,3.0,3.0,3.0,1.0,2981231446-294732.jpg,2964218374-144967.jpg,A344BXT88DM2ZH_2022-09-25_06h13.49.540.csv
483,3.0,right,right,1.0,2.2236,0.0,4.0,4.0,4.0,1.0,2901948383-70363.jpg,2868474407-362883.jpg,A344BXT88DM2ZH_2022-09-25_06h13.49.540.csv
484,1.0,left,left,1.0,2.0433,0.0,5.0,5.0,5.0,1.0,2901941401-292798.jpg,2898618327-366317.jpg,A344BXT88DM2ZH_2022-09-25_06h13.49.540.csv
485,1.0,left,left,1.0,1.4794,0.0,6.0,6.0,6.0,1.0,2964216465-219242.jpg,2238544191-252422.jpg,A344BXT88DM2ZH_2022-09-25_06h13.49.540.csv
486,2.0,left,left,1.0,1.3756,0.0,7.0,7.0,7.0,1.0,2592379964-131054.jpg,2238479053-19457.jpg,A344BXT88DM2ZH_2022-09-25_06h13.49.540.csv
487,2.0,right,right,1.0,2.3174,0.0,8.0,8.0,8.0,1.0,2868479517-363220.jpg,2898635427-367120.jpg,A344BXT88DM2ZH_2022-09-25_06h13.49.540.csv
488,1.0,left,left,1.0,1.8362,0.0,9.0,9.0,9.0,1.0,2981231403-71642.jpg,2579432519-130698.jpg,A344BXT88DM2ZH_2022-09-25_06h13.49.540.csv
489,3.0,right,left,0.0,2.085,0.0,10.0,10.0,10.0,1.0,2898628438-68785.jpg,2964223381-294447.jpg,A344BXT88DM2ZH_2022-09-25_06h13.49.540.csv
490,2.0,right,right,1.0,1.3881,0.0,11.0,11.0,11.0,1.0,2868487415-213924.jpg,2460547467-349422.jpg,A344BXT88DM2ZH_2022-09-25_06h13.49.540.csv
491,3.0,left,right,0.0,1.9075,0.0,12.0,12.0,12.0,1.0,2238572663-35822.jpg,2864903351-286874.jpg,A344BXT88DM2ZH_2022-09-25_06h13.49.540.csv
492,3.0,left,left,1.0,4.9428,0.0,13.0,13.0,13.0,1.0,2901939379-143480.jpg,2898632385-217139.jpg,A344BXT88DM2ZH_2022-09-25_06h13.49.540.csv
493,2.0,right,right,1.0,2.2764,0.0,14.0,14.0,14.0,1.0,2575120738-55528.jpg,2575120738-55529.jpg,A344BXT88DM2ZH_2022-09-25_06h13.49.540.csv
494,1.0,left,left,1.0,1.8085,0.0,15.0,15.0,15.0,1.0,2238425482-313537.jpg,2238471391-240918.jpg,A344BXT88DM2ZH_2022-09-25_06h13.49.540.csv
495,3.0,right,right,1.0,2.0456,0.0,16.0,16.0,16.0,1.0,2981240427-370099.jpg,2964222378-71332.jpg,A344BXT88DM2ZH_2022-09-25_06h13.49.540.csv
496,1.0,right,left,0.0,2.5622,0.0,17.0,17.0,17.0,1.0,2460547467-349423.jpg,2901939379-143479.jpg,A344BXT88DM2ZH_2022-09-25_06h13.49.540.csv
497,3.0,left,left,1.0,1.3659,0.0,18.0,18.0,18.0,1.0,2452380832-348593.jpg,2237858942-299356.jpg,A344BXT88DM2ZH_2022-09-25_06h13.49.540.csv
498,2.0,right,right,1.0,1.7391,0.0,19.0,19.0,19.0,1.0,2460547536-274181.jpg,2449442529-124446.jpg,A344BXT88DM2ZH_2022-09-25_06h13.49.540.csv
499,3.0,left,left,1.0,1.9308,0.0,20.0,20.0,20.0,1.0,2592380177-354629.jpg,2512875587-350044.jpg,A344BXT88DM2ZH_2022-09-25_06h13.49.540.csv
500,3.0,left,left,1.0,1.9096,0.0,21.0,21.0,21.0,1.0,2446758985-197609.jpg,2898624426-291544.jpg,A344BXT88DM2ZH_2022-09-25_06h13.49.540.csv
501,2.0,left,right,0.0,1.932,0.0,22.0,22.0,22.0,1.0,2883268471-290842.jpg,2883255450-215310.jpg,A344BXT88DM2ZH_2022-09-25_06h13.49.540.csv
502,1.0,left,left,1.0,1.1848,0.0,23.0,23.0,23.0,1.0,2874302418-65979.jpg,2237857458-1325.jpg,A344BXT88DM2ZH_2022-09-25_06h13.49.540.csv
503,3.0,right,right,1.0,2.464,0.0,24.0,24.0,24.0,1.0,2898633321-291943.jpg,2874302418-65978.jpg,A344BXT88DM2ZH_2022-09-25_06h13.49.540.csv
504,2.0,right,right,1.0,1.8934,0.0,25.0,25.0,25.0,1.0,2901943411-292945.jpg,2898635428-69104.jpg,A344BXT88DM2ZH_2022-09-25_06h13.49.540.csv
505,1.0,right,left,0.0,1.6555,0.0,26.0,26.0,26.0,1.0,2898626385-216899.jpg,2986451363-73599.jpg,A344BXT88DM2ZH_2022-09-25_06h13.49.540.csv
506,3.0,left,right,0.0,1.7526,0.0,27.0,27.0,27.0,1.0,2986451363-73598.jpg,2901942443-69925.jpg,A344BXT88DM2ZH_2022-09-25_06h13.49.540.csv
507,3.0,left,left,1.0,2.1021,0.0,28.0,28.0,28.0,1.0,2981241414-145842.jpg,2427873848-47312.jpg,A344BXT88DM2ZH_2022-09-25_06h13.49.540.csv
508,2.0,right,right,1.0,2.2124,0.0,29.0,29.0,29.0,1.0,2874314526-289684.jpg,2238560245-182099.jpg,A344BXT88DM2ZH_2022-09-25_06h13.49.540.csv
509,3.0,right,right,1.0,1.5713,0.0,30.0,30.0,30.0,1.0,2238480278-19661.jpg,2238480677-317399.jpg,A344BXT88DM2ZH_2022-09-25_06h13.49.540.csv
510,1.0,right,right,1.0,1.1756,0.0,31.0,31.0,31.0,1.0,2981244394-145974.jpg,2964213381-294060.jpg,A344BXT88DM2ZH_2022-09-25_06h13.49.540.csv
511,2.0,right,right,1.0,1.5446,0.0,32.0,32.0,32.0,1.0,2981244403-72215.jpg,2874299429-139694.jpg,A344BXT88DM2ZH_2022-09-25_06h13.49.540.csv
512,2.0,right,left,0.0,1.5652,0.0,33.0,33.0,33.0,1.0,2460547508-51572.jpg,2883273443-68193.jpg,A344BXT88DM2ZH_2022-09-25_06h13.49.540.csv
513,1.0,left,right,0.0,2.0349,0.0,34.0,34.0,34.0,1.0,2460547508-51571.jpg,2452380166-273109.jpg,A344BXT88DM2ZH_2022-09-25_06h13.49.540.csv
514,3.0,right,right,1.0,1.3778,0.0,35.0,35.0,35.0,1.0,2238577590-185467.jpg,2901947423-70311.jpg,A344BXT88DM2ZH_2022-09-25_06h13.49.540.csv
515,1.0,right,left,0.0,1.4599,0.0,36.0,36.0,36.0,1.0,2984615358-72439.jpg,2874307433-66280.jpg,A344BXT88DM2ZH_2022-09-25_06h13.49.540.csv
516,2.0,left,left,1.0,1.4858,0.0,37.0,37.0,37.0,1.0,2238481928-19949.jpg,2864900357-361688.jpg,A344BXT88DM2ZH_2022-09-25_06h13.49.540.csv
517,3.0,right,left,0.0,1.2936,0.0,38.0,38.0,38.0,1.0,2964217461-294238.jpg,2898634397-367080.jpg,A344BXT88DM2ZH_2022-09-25_06h13.49.540.csv
518,1.0,left,left,1.0,1.6378,0.0,39.0,39.0,39.0,1.0,2874303365-214262.jpg,2274829821-263682.jpg,A344BXT88DM2ZH_2022-09-25_06h13.49.540.csv
519,2.0,right,right,1.0,1.4757,0.0,40.0,40.0,40.0,1.0,2901942443-69923.jpg,2874299429-139695.jpg,A344BXT88DM2ZH_2022-09-25_06h13.49.540.csv
520,3.0,left,right,0.0,1.8307,0.0,41.0,41.0,41.0,1.0,2883256307-365057.jpg,2864904453-63933.jpg,A344BXT88DM2ZH_2022-09-25_06h13.49.540.csv
521,2.0,left,right,0.0,1.8633,0.0,42.0,42.0,42.0,1.0,2898618390-216538.jpg,2901939327-367670.jpg,A344BXT88DM2ZH_2022-09-25_06h13.49.540.csv
522,1.0,left,left,1.0,1.872,0.0,43.0,43.0,43.0,1.0,2592380177-354626.jpg,2238576792-334659.jpg,A344BXT88DM2ZH_2022-09-25_06h13.49.540.csv
523,3.0,left,right,0.0,1.5534,0.0,44.0,44.0,44.0,1.0,2898618444-142233.jpg,2898618444-142232.jpg,A344BXT88DM2ZH_2022-09-25_06h13.49.540.csv
524,1.0,right,right,1.0,2.9749,0.0,45.0,45.0,45.0,1.0,2446760601-272099.jpg,2446759803-49249.jpg,A344BXT88DM2ZH_2022-09-25_06h13.49.540.csv
525,1.0,right,left,0.0,1.7648,0.0,46.0,46.0,46.0,1.0,2864901420-212147.jpg,2864907432-362042.jpg,A344BXT88DM2ZH_2022-09-25_06h13.49.540.csv
526,3.0,left,right,0.0,2.0318,0.0,47.0,47.0,47.0,1.0,2238428357-313623.jpg,2986408339-146952.jpg,A344BXT88DM2ZH_2022-09-25_06h13.49.540.csv
527,1.0,left,left,1.0,1.8539,0.0,48.0,48.0,48.0,1.0,2460547467-349421.jpg,2898631394-142727.jpg,A344BXT88DM2ZH_2022-09-25_06h13.49.540.csv
528,1.0,right,right,1.0,2.6598,0.0,49.0,49.0,49.0,1.0,2864902304-137862.jpg,2864910426-287204.jpg,A344BXT88DM2ZH_2022-09-25_06h13.49.540.csv
529,3.0,left,right,0.0,2.2057,0.0,50.0,50.0,50.0,1.0,2868475410-213219.jpg,2868474407-362885.jpg,A344BXT88DM2ZH_2022-09-25_06h13.49.540.csv
530,2.0,left,left,1.0,1.735,0.0,51.0,51.0,51.0,1.0,2238481198-19822.jpg,2901946436-293242.jpg,A344BXT88DM2ZH_2022-09-25_06h13.49.540.csv
531,1.0,left,right,0.0,1.3861,0.0,52.0,52.0,52.0,1.0,2512875899-126682.jpg,2460547536-274179.jpg,A344BXT88DM2ZH_2022-09-25_06h13.49.540.csv
532,1.0,right,left,0.0,1.3855,0.0,53.0,53.0,53.0,1.0,2238480434-93829.jpg,2458347385-199723.jpg,A344BXT88DM2ZH_2022-09-25_06h13.49.540.csv
533,2.0,left,right,0.0,1.3733,0.0,54.0,54.0,54.0,1.0,2901952513-70703.jpg,2868469411-287540.jpg,A344BXT88DM2ZH_2022-09-25_06h13.49.540.csv
534,2.0,right,left,0.0,2.8007,0.0,55.0,55.0,55.0,1.0,2898632385-217138.jpg,2452381505-199546.jpg,A344BXT88DM2ZH_2022-09-25_06h13.49.540.csv
535,2.0,right,left,0.0,1.4582,0.0,56.0,56.0,56.0,1.0,2984615361-295510.jpg,2883268412-365898.jpg,A344BXT88DM2ZH_2022-09-25_06h13.49.540.csv
536,1.0,left,left,1.0,1.5421,0.0,57.0,57.0,57.0,1.0,2898633421-291973.jpg,2512876023-52283.jpg,A344BXT88DM2ZH_2022-09-25_06h13.49.540.csv
537,1.0,right,right,1.0,1.4688,0.0,58.0,58.0,58.0,1.0,2238550816-254000.jpg,2238580740-186218.jpg,A344BXT88DM2ZH_2022-09-25_06h13.49.540.csv
538,3.0,right,right,1.0,1.273,0.0,59.0,59.0,59.0,1.0,2901947323-70275.jpg,2874301407-363895.jpg,A344BXT88DM2ZH_2022-09-25_06h13.49.540.csv
539,1.0,right,right,1.0,1.3419,0.0,0.0,0.0,0.0,1.0,2575963989-130576.jpg,2592379964-131054.jpg,A3E0IFFHYQPLFE_2022-09-25_06h24.41.936.csv
540,3.0,right,right,1.0,0.1855,0.0,1.0,1.0,1.0,1.0,2238436252-314037.jpg,2883268412-365898.jpg,A3E0IFFHYQPLFE_2022-09-25_06h24.41.936.csv
541,3.0,right,right,1.0,0.0959,0.0,2.0,2.0,2.0,1.0,2901939433-69672.jpg,2864910426-287204.jpg,A3E0IFFHYQPLFE_2022-09-25_06h24.41.936.csv
542,3.0,right,right,1.0,0.0964,0.0,3.0,3.0,3.0,1.0,2512875587-350044.jpg,2592380177-354629.jpg,A3E0IFFHYQPLFE_2022-09-25_06h24.41.936.csv
543,1.0,right,left,0.0,0.0069,0.0,4.0,4.0,4.0,1.0,2898618327-366317.jpg,2901941401-292798.jpg,A3E0IFFHYQPLFE_2022-09-25_06h24.41.936.csv
544,1.0,right,right,1.0,0.0072,0.0,5.0,5.0,5.0,1.0,2460547467-349423.jpg,2901939379-143479.jpg,A3E0IFFHYQPLFE_2022-09-25_06h24.41.936.csv
545,1.0,left,right,0.0,0.096,0.0,6.0,6.0,6.0,1.0,2898635428-69104.jpg,2446759803-49250.jpg,A3E0IFFHYQPLFE_2022-09-25_06h24.41.936.csv
546,2.0,right,right,1.0,0.0964,0.0,7.0,7.0,7.0,1.0,2901933382-367209.jpg,2964222378-71332.jpg,A3E0IFFHYQPLFE_2022-09-25_06h24.41.936.csv
547,3.0,left,right,0.0,0.1853,0.0,8.0,8.0,8.0,1.0,2874303365-214262.jpg,2864911457-362260.jpg,A3E0IFFHYQPLFE_2022-09-25_06h24.41.936.csv
548,3.0,left,right,0.0,0.0967,0.0,9.0,9.0,9.0,1.0,2898635427-367120.jpg,2898621427-366486.jpg,A3E0IFFHYQPLFE_2022-09-25_06h24.41.936.csv
549,2.0,right,right,1.0,0.0958,0.0,10.0,10.0,10.0,1.0,2901942443-69923.jpg,2874299429-139695.jpg,A3E0IFFHYQPLFE_2022-09-25_06h24.41.936.csv
550,3.0,right,right,1.0,0.0961,0.0,11.0,11.0,11.0,1.0,2981241419-145844.jpg,2238481928-19949.jpg,A3E0IFFHYQPLFE_2022-09-25_06h24.41.936.csv
551,1.0,left,right,0.0,0.096,0.0,12.0,12.0,12.0,1.0,2238572663-35822.jpg,2238584894-113161.jpg,A3E0IFFHYQPLFE_2022-09-25_06h24.41.936.csv
552,2.0,left,right,0.0,0.0962,0.0,13.0,13.0,13.0,1.0,2460547467-349422.jpg,2868487415-213924.jpg,A3E0IFFHYQPLFE_2022-09-25_06h24.41.936.csv
553,3.0,left,right,0.0,0.0961,0.0,14.0,14.0,14.0,1.0,2964213381-294060.jpg,2964213381-294061.jpg,A3E0IFFHYQPLFE_2022-09-25_06h24.41.936.csv
554,2.0,left,right,0.0,0.186,0.0,15.0,15.0,15.0,1.0,2874299429-139694.jpg,2981244403-72215.jpg,A3E0IFFHYQPLFE_2022-09-25_06h24.41.936.csv
555,3.0,right,right,1.0,0.0964,0.0,16.0,16.0,16.0,1.0,2864904453-63933.jpg,2883256307-365057.jpg,A3E0IFFHYQPLFE_2022-09-25_06h24.41.936.csv
556,1.0,left,right,0.0,0.0975,0.0,17.0,17.0,17.0,1.0,2874301407-363895.jpg,2446761374-124213.jpg,A3E0IFFHYQPLFE_2022-09-25_06h24.41.936.csv
557,1.0,right,left,0.0,0.0959,0.0,18.0,18.0,18.0,1.0,2981240424-145795.jpg,2446758985-197609.jpg,A3E0IFFHYQPLFE_2022-09-25_06h24.41.936.csv
558,3.0,left,right,0.0,0.0071,0.0,19.0,19.0,19.0,1.0,2874302418-65978.jpg,2898633321-291943.jpg,A3E0IFFHYQPLFE_2022-09-25_06h24.41.936.csv
559,1.0,left,left,1.0,0.1899,0.0,20.0,20.0,20.0,1.0,2238480677-317399.jpg,2238481630-168218.jpg,A3E0IFFHYQPLFE_2022-09-25_06h24.41.936.csv
560,2.0,right,left,0.0,0.1848,0.0,21.0,21.0,21.0,1.0,2452380166-273110.jpg,2460547467-349421.jpg,A3E0IFFHYQPLFE_2022-09-25_06h24.41.936.csv
561,2.0,right,left,0.0,0.0961,0.0,22.0,22.0,22.0,1.0,2238436322-314047.jpg,2238425482-313537.jpg,A3E0IFFHYQPLFE_2022-09-25_06h24.41.936.csv
562,3.0,right,left,0.0,0.1855,0.0,23.0,23.0,23.0,1.0,2238531493-28260.jpg,2575120738-55529.jpg,A3E0IFFHYQPLFE_2022-09-25_06h24.41.936.csv
563,2.0,left,left,1.0,0.0961,0.0,24.0,24.0,24.0,1.0,2981231403-71642.jpg,2874305405-214397.jpg,A3E0IFFHYQPLFE_2022-09-25_06h24.41.936.csv
564,2.0,right,left,0.0,0.0958,0.0,25.0,25.0,25.0,1.0,2901934408-69289.jpg,2898634397-367080.jpg,A3E0IFFHYQPLFE_2022-09-25_06h24.41.936.csv
565,2.0,left,right,0.0,0.0967,0.0,26.0,26.0,26.0,1.0,2874307433-66280.jpg,2981246400-220365.jpg,A3E0IFFHYQPLFE_2022-09-25_06h24.41.936.csv
566,2.0,right,right,1.0,0.0961,0.0,27.0,27.0,27.0,1.0,2427874554-121863.jpg,2458347385-199723.jpg,A3E0IFFHYQPLFE_2022-09-25_06h24.41.936.csv
567,3.0,right,right,1.0,0.1847,0.0,28.0,28.0,28.0,1.0,2901948383-70363.jpg,2868474407-362883.jpg,A3E0IFFHYQPLFE_2022-09-25_06h24.41.936.csv
568,3.0,right,right,1.0,0.0958,0.0,29.0,29.0,29.0,1.0,2964207374-144577.jpg,2898617468-68274.jpg,A3E0IFFHYQPLFE_2022-09-25_06h24.41.936.csv
569,2.0,left,right,0.0,0.0959,0.0,30.0,30.0,30.0,1.0,2238580740-186218.jpg,2238521193-26285.jpg,A3E0IFFHYQPLFE_2022-09-25_06h24.41.936.csv
570,1.0,right,right,1.0,0.0956,0.0,31.0,31.0,31.0,1.0,2883268471-290843.jpg,2883268471-290842.jpg,A3E0IFFHYQPLFE_2022-09-25_06h24.41.936.csv
571,3.0,left,right,0.0,0.0965,0.0,32.0,32.0,32.0,1.0,2449442529-124446.jpg,2460547536-274178.jpg,A3E0IFFHYQPLFE_2022-09-25_06h24.41.936.csv
572,1.0,left,left,1.0,0.0965,0.0,33.0,33.0,33.0,1.0,2898624426-291546.jpg,2964218432-369263.jpg,A3E0IFFHYQPLFE_2022-09-25_06h24.41.936.csv
573,1.0,left,right,0.0,0.164,0.0,34.0,34.0,34.0,1.0,2898618444-142233.jpg,2898631359-142721.jpg,A3E0IFFHYQPLFE_2022-09-25_06h24.41.936.csv
574,1.0,left,right,0.0,0.096,0.0,35.0,35.0,35.0,1.0,2898618390-216538.jpg,2237856148-989.jpg,A3E0IFFHYQPLFE_2022-09-25_06h24.41.936.csv
575,2.0,left,left,1.0,0.0961,0.0,36.0,36.0,36.0,1.0,2964216465-219242.jpg,2864900319-137787.jpg,A3E0IFFHYQPLFE_2022-09-25_06h24.41.936.csv
576,1.0,left,left,1.0,0.1856,0.0,37.0,37.0,37.0,1.0,2446759803-49249.jpg,2446760601-272099.jpg,A3E0IFFHYQPLFE_2022-09-25_06h24.41.936.csv
577,2.0,right,left,0.0,0.186,0.0,38.0,38.0,38.0,1.0,2446759306-271734.jpg,2964218374-144967.jpg,A3E0IFFHYQPLFE_2022-09-25_06h24.41.936.csv
578,2.0,left,right,0.0,0.0966,0.0,39.0,39.0,39.0,1.0,2874302418-65979.jpg,2238480648-19714.jpg,A3E0IFFHYQPLFE_2022-09-25_06h24.41.936.csv
579,1.0,left,right,0.0,0.0961,0.0,40.0,40.0,40.0,1.0,2238428357-313623.jpg,2238499057-320266.jpg,A3E0IFFHYQPLFE_2022-09-25_06h24.41.936.csv
580,2.0,left,right,0.0,0.0962,0.0,41.0,41.0,41.0,1.0,2986451363-73598.jpg,2984628361-295995.jpg,A3E0IFFHYQPLFE_2022-09-25_06h24.41.936.csv
581,1.0,right,right,1.0,0.096,0.0,42.0,42.0,42.0,1.0,2238576792-334659.jpg,2592380177-354626.jpg,A3E0IFFHYQPLFE_2022-09-25_06h24.41.936.csv
582,1.0,left,right,0.0,0.0985,0.0,43.0,43.0,43.0,1.0,2238481198-19822.jpg,2862691449-137104.jpg,A3E0IFFHYQPLFE_2022-09-25_06h24.41.936.csv
583,3.0,left,right,0.0,0.1872,0.0,44.0,44.0,44.0,1.0,2452380832-348593.jpg,2237858942-299356.jpg,A3E0IFFHYQPLFE_2022-09-25_06h24.41.936.csv
584,2.0,left,left,1.0,0.0958,0.0,45.0,45.0,45.0,1.0,2898633421-291973.jpg,2575118671-277663.jpg,A3E0IFFHYQPLFE_2022-09-25_06h24.41.936.csv
585,3.0,right,right,1.0,0.1851,0.0,46.0,46.0,46.0,1.0,2994401319-148290.jpg,2452381505-199546.jpg,A3E0IFFHYQPLFE_2022-09-25_06h24.41.936.csv
586,2.0,left,right,0.0,0.096,0.0,47.0,47.0,47.0,1.0,2964223381-294447.jpg,2901941438-69836.jpg,A3E0IFFHYQPLFE_2022-09-25_06h24.41.936.csv
587,2.0,right,left,0.0,0.0071,0.0,48.0,48.0,48.0,1.0,2868469411-287540.jpg,2901952513-70703.jpg,A3E0IFFHYQPLFE_2022-09-25_06h24.41.936.csv
588,3.0,right,right,1.0,0.007,0.0,49.0,49.0,49.0,1.0,2238480980-168129.jpg,2238560245-182099.jpg,A3E0IFFHYQPLFE_2022-09-25_06h24.41.936.csv
589,2.0,right,right,1.0,0.0968,0.0,50.0,50.0,50.0,1.0,2238573447-333826.jpg,2901947423-70311.jpg,A3E0IFFHYQPLFE_2022-09-25_06h24.41.936.csv
590,1.0,right,left,0.0,0.0076,0.0,51.0,51.0,51.0,1.0,2460547536-274179.jpg,2512875899-126682.jpg,A3E0IFFHYQPLFE_2022-09-25_06h24.41.936.csv
591,2.0,left,right,0.0,0.007,0.0,52.0,52.0,52.0,1.0,2449442529-124445.jpg,2986408373-73286.jpg,A3E0IFFHYQPLFE_2022-09-25_06h24.41.936.csv
592,3.0,right,left,0.0,0.007,0.0,53.0,53.0,53.0,1.0,2898632385-217139.jpg,2901939379-143480.jpg,A3E0IFFHYQPLFE_2022-09-25_06h24.41.936.csv
593,1.0,right,right,1.0,0.096,0.0,54.0,54.0,54.0,1.0,2864901420-212147.jpg,2864907432-362042.jpg,A3E0IFFHYQPLFE_2022-09-25_06h24.41.936.csv
594,1.0,left,left,1.0,0.0069,0.0,55.0,55.0,55.0,1.0,2868475410-213219.jpg,2901946465-218350.jpg,A3E0IFFHYQPLFE_2022-09-25_06h24.41.936.csv
595,3.0,left,right,0.0,0.099,0.0,56.0,56.0,56.0,1.0,2460547508-51571.jpg,2901941438-69835.jpg,A3E0IFFHYQPLFE_2022-09-25_06h24.41.936.csv
596,1.0,right,left,0.0,0.007,0.0,57.0,57.0,57.0,1.0,2898626385-216899.jpg,2986451363-73599.jpg,A3E0IFFHYQPLFE_2022-09-25_06h24.41.936.csv
597,3.0,left,right,0.0,0.007,0.0,58.0,58.0,58.0,1.0,2883273443-68193.jpg,2898627427-366763.jpg,A3E0IFFHYQPLFE_2022-09-25_06h24.41.936.csv
598,3.0,right,left,0.0,0.007,0.0,59.0,59.0,59.0,1.0,2427873848-47312.jpg,2981241414-145842.jpg,A3E0IFFHYQPLFE_2022-09-25_06h24.41.936.csv
599,3.0,left,right,0.0,2.8579,0.0,0.0,0.0,0.0,1.0,2238572663-35822.jpg,2864903351-286874.jpg,A3JQOR9SGS3YFS_2022-09-25_06h14.37.633.csv
600,1.0,left,left,1.0,1.9385,0.0,1.0,1.0,1.0,1.0,2868475410-213219.jpg,2901946465-218350.jpg,A3JQOR9SGS3YFS_2022-09-25_06h14.37.633.csv
601,1.0,right,left,0.0,1.3384,0.0,2.0,2.0,2.0,1.0,2460547536-274179.jpg,2512875899-126682.jpg,A3JQOR9SGS3YFS_2022-09-25_06h14.37.633.csv
602,1.0,left,left,1.0,1.4352,0.0,3.0,3.0,3.0,1.0,2460547467-349422.jpg,2898618440-216545.jpg,A3JQOR9SGS3YFS_2022-09-25_06h14.37.633.csv
603,1.0,left,left,1.0,1.6918,0.0,4.0,4.0,4.0,1.0,2449442529-124446.jpg,2446759803-49251.jpg,A3JQOR9SGS3YFS_2022-09-25_06h14.37.633.csv
604,2.0,right,right,1.0,1.2209,0.0,5.0,5.0,5.0,1.0,2901942443-69923.jpg,2874299429-139695.jpg,A3JQOR9SGS3YFS_2022-09-25_06h14.37.633.csv
605,3.0,left,left,1.0,2.0546,0.0,6.0,6.0,6.0,1.0,2898618390-216538.jpg,2575120609-129862.jpg,A3JQOR9SGS3YFS_2022-09-25_06h14.37.633.csv
606,3.0,left,right,0.0,1.8231,0.0,7.0,7.0,7.0,1.0,2901939379-143480.jpg,2898632385-217139.jpg,A3JQOR9SGS3YFS_2022-09-25_06h14.37.633.csv
607,3.0,right,left,0.0,1.4544,0.0,8.0,8.0,8.0,1.0,2864904453-63933.jpg,2883256307-365057.jpg,A3JQOR9SGS3YFS_2022-09-25_06h14.37.633.csv
608,3.0,left,left,1.0,1.9488,0.0,9.0,9.0,9.0,1.0,2901947423-70311.jpg,2238577590-185467.jpg,A3JQOR9SGS3YFS_2022-09-25_06h14.37.633.csv
609,1.0,right,right,1.0,1.2062,0.0,10.0,10.0,10.0,1.0,2862691449-137104.jpg,2238481198-19822.jpg,A3JQOR9SGS3YFS_2022-09-25_06h14.37.633.csv
610,3.0,left,right,0.0,1.3176,0.0,11.0,11.0,11.0,1.0,2964223381-294447.jpg,2898628438-68785.jpg,A3JQOR9SGS3YFS_2022-09-25_06h14.37.633.csv
611,1.0,right,right,1.0,1.9678,0.0,12.0,12.0,12.0,1.0,2238471391-240918.jpg,2238425482-313537.jpg,A3JQOR9SGS3YFS_2022-09-25_06h14.37.633.csv
612,2.0,right,right,1.0,2.2998,0.0,13.0,13.0,13.0,1.0,2864901386-286797.jpg,2592380177-354626.jpg,A3JQOR9SGS3YFS_2022-09-25_06h14.37.633.csv
613,1.0,left,left,1.0,1.4229,0.0,14.0,14.0,14.0,1.0,2446759803-49249.jpg,2446760601-272099.jpg,A3JQOR9SGS3YFS_2022-09-25_06h14.37.633.csv
614,3.0,right,right,1.0,1.5739,0.0,15.0,15.0,15.0,1.0,2898633321-291943.jpg,2874302418-65978.jpg,A3JQOR9SGS3YFS_2022-09-25_06h14.37.633.csv
615,3.0,right,right,1.0,1.8061,0.0,16.0,16.0,16.0,1.0,2238550049-105691.jpg,2898633421-291973.jpg,A3JQOR9SGS3YFS_2022-09-25_06h14.37.633.csv
616,2.0,left,left,1.0,1.8364,0.0,17.0,17.0,17.0,1.0,2883273443-68193.jpg,2460547508-51572.jpg,A3JQOR9SGS3YFS_2022-09-25_06h14.37.633.csv
617,3.0,right,right,1.0,1.6856,0.0,18.0,18.0,18.0,1.0,2427873848-47312.jpg,2981241414-145842.jpg,A3JQOR9SGS3YFS_2022-09-25_06h14.37.633.csv
618,2.0,right,right,1.0,3.033,0.0,19.0,19.0,19.0,1.0,2981246400-220363.jpg,2868474407-362883.jpg,A3JQOR9SGS3YFS_2022-09-25_06h14.37.633.csv
619,3.0,right,right,1.0,2.0163,0.0,20.0,20.0,20.0,1.0,2981235446-294901.jpg,2460547467-349421.jpg,A3JQOR9SGS3YFS_2022-09-25_06h14.37.633.csv
620,1.0,left,left,1.0,1.1771,0.0,21.0,21.0,21.0,1.0,2981231403-71642.jpg,2579432519-130698.jpg,A3JQOR9SGS3YFS_2022-09-25_06h14.37.633.csv
621,1.0,left,left,1.0,2.3005,0.0,22.0,22.0,22.0,1.0,2898635427-367120.jpg,2964221435-219434.jpg,A3JQOR9SGS3YFS_2022-09-25_06h14.37.633.csv
622,2.0,right,right,1.0,1.474,0.0,23.0,23.0,23.0,1.0,2446758985-197610.jpg,2901939379-143479.jpg,A3JQOR9SGS3YFS_2022-09-25_06h14.37.633.csv
623,1.0,right,right,1.0,1.3204,0.0,24.0,24.0,24.0,1.0,2898618327-366317.jpg,2901941401-292798.jpg,A3JQOR9SGS3YFS_2022-09-25_06h14.37.633.csv
624,1.0,left,left,1.0,1.5734,0.0,25.0,25.0,25.0,1.0,2864907432-362042.jpg,2864901420-212147.jpg,A3JQOR9SGS3YFS_2022-09-25_06h14.37.633.csv
625,1.0,right,right,1.0,1.5762,0.0,26.0,26.0,26.0,1.0,2964218374-144968.jpg,2964218374-144967.jpg,A3JQOR9SGS3YFS_2022-09-25_06h14.37.633.csv
626,2.0,right,right,1.0,1.3099,0.0,27.0,27.0,27.0,1.0,2981236443-71859.jpg,2898624426-291546.jpg,A3JQOR9SGS3YFS_2022-09-25_06h14.37.633.csv
627,2.0,right,left,0.0,1.3487,0.0,28.0,28.0,28.0,1.0,2901933382-367209.jpg,2964222378-71332.jpg,A3JQOR9SGS3YFS_2022-09-25_06h14.37.633.csv
628,2.0,left,left,1.0,1.8983,0.0,29.0,29.0,29.0,1.0,2446758985-197609.jpg,2864909447-362144.jpg,A3JQOR9SGS3YFS_2022-09-25_06h14.37.633.csv
629,3.0,left,left,1.0,1.2081,0.0,30.0,30.0,30.0,1.0,2592379964-131054.jpg,2592380272-354673.jpg,A3JQOR9SGS3YFS_2022-09-25_06h14.37.633.csv
630,1.0,left,left,1.0,2.7612,0.0,31.0,31.0,31.0,1.0,2898634397-367080.jpg,2237944827-301472.jpg,A3JQOR9SGS3YFS_2022-09-25_06h14.37.633.csv
631,2.0,right,right,1.0,1.7709,0.0,32.0,32.0,32.0,1.0,2981232437-369759.jpg,2460547508-51571.jpg,A3JQOR9SGS3YFS_2022-09-25_06h14.37.633.csv
632,2.0,left,right,0.0,1.4517,0.0,33.0,33.0,33.0,1.0,2986451363-73598.jpg,2984628361-295995.jpg,A3JQOR9SGS3YFS_2022-09-25_06h14.37.633.csv
633,1.0,right,right,1.0,1.4327,0.0,34.0,34.0,34.0,1.0,2901946439-144040.jpg,2898617468-68274.jpg,A3JQOR9SGS3YFS_2022-09-25_06h14.37.633.csv
634,3.0,right,right,1.0,1.3185,0.0,35.0,35.0,35.0,1.0,2237858942-299356.jpg,2452380832-348593.jpg,A3JQOR9SGS3YFS_2022-09-25_06h14.37.633.csv
635,1.0,right,left,0.0,1.2101,0.0,36.0,36.0,36.0,1.0,2984615358-72439.jpg,2874307433-66280.jpg,A3JQOR9SGS3YFS_2022-09-25_06h14.37.633.csv
636,2.0,right,right,1.0,1.3206,0.0,37.0,37.0,37.0,1.0,2458348012-349114.jpg,2964213381-294060.jpg,A3JQOR9SGS3YFS_2022-09-25_06h14.37.633.csv
637,3.0,left,left,1.0,1.3093,0.0,38.0,38.0,38.0,1.0,2874302418-65979.jpg,2238578544-111698.jpg,A3JQOR9SGS3YFS_2022-09-25_06h14.37.633.csv
638,3.0,left,left,1.0,1.5482,0.0,39.0,39.0,39.0,1.0,2449442529-124445.jpg,2898632385-217137.jpg,A3JQOR9SGS3YFS_2022-09-25_06h14.37.633.csv
639,2.0,right,right,1.0,1.1857,0.0,40.0,40.0,40.0,1.0,2238573546-258454.jpg,2238480677-317399.jpg,A3JQOR9SGS3YFS_2022-09-25_06h14.37.633.csv
640,2.0,left,left,1.0,1.5365,0.0,41.0,41.0,41.0,1.0,2238580740-186218.jpg,2238521193-26285.jpg,A3JQOR9SGS3YFS_2022-09-25_06h14.37.633.csv
641,1.0,left,right,0.0,1.2429,0.0,42.0,42.0,42.0,1.0,2458347385-199723.jpg,2238480434-93829.jpg,A3JQOR9SGS3YFS_2022-09-25_06h14.37.633.csv
642,1.0,left,left,1.0,1.333,0.0,43.0,43.0,43.0,1.0,2874301407-363895.jpg,2446761374-124213.jpg,A3JQOR9SGS3YFS_2022-09-25_06h14.37.633.csv
643,2.0,right,right,1.0,2.3302,0.0,44.0,44.0,44.0,1.0,2575120738-55528.jpg,2575120738-55529.jpg,A3JQOR9SGS3YFS_2022-09-25_06h14.37.633.csv
644,1.0,left,left,1.0,1.4567,0.0,45.0,45.0,45.0,1.0,2898618444-142233.jpg,2898631359-142721.jpg,A3JQOR9SGS3YFS_2022-09-25_06h14.37.633.csv
645,2.0,left,left,1.0,1.4093,0.0,46.0,46.0,46.0,1.0,2898635428-69104.jpg,2901943411-292945.jpg,A3JQOR9SGS3YFS_2022-09-25_06h14.37.633.csv
646,3.0,right,right,1.0,2.0745,0.0,47.0,47.0,47.0,1.0,2883266367-365742.jpg,2874299429-139694.jpg,A3JQOR9SGS3YFS_2022-09-25_06h14.37.633.csv
647,2.0,left,right,0.0,1.4424,0.0,48.0,48.0,48.0,1.0,2986451363-73599.jpg,2860302315-210704.jpg,A3JQOR9SGS3YFS_2022-09-25_06h14.37.633.csv
648,3.0,right,left,0.0,1.119,0.0,49.0,49.0,49.0,1.0,2981241419-145844.jpg,2238481928-19949.jpg,A3JQOR9SGS3YFS_2022-09-25_06h14.37.633.csv
649,3.0,right,left,0.0,1.9361,0.0,50.0,50.0,50.0,1.0,2238436252-314037.jpg,2883268412-365898.jpg,A3JQOR9SGS3YFS_2022-09-25_06h14.37.633.csv
650,3.0,left,right,0.0,1.3506,0.0,51.0,51.0,51.0,1.0,2452381505-199546.jpg,2994401319-148290.jpg,A3JQOR9SGS3YFS_2022-09-25_06h14.37.633.csv
651,2.0,right,right,1.0,1.1039,0.0,52.0,52.0,52.0,1.0,2874314526-289684.jpg,2238560245-182099.jpg,A3JQOR9SGS3YFS_2022-09-25_06h14.37.633.csv
652,1.0,right,right,1.0,2.3571,0.0,53.0,53.0,53.0,1.0,2864902304-137862.jpg,2864910426-287204.jpg,A3JQOR9SGS3YFS_2022-09-25_06h14.37.633.csv
653,2.0,left,left,1.0,1.1847,0.0,54.0,54.0,54.0,1.0,2883268471-290842.jpg,2883255450-215310.jpg,A3JQOR9SGS3YFS_2022-09-25_06h14.37.633.csv
654,3.0,right,left,0.0,1.6781,0.0,55.0,55.0,55.0,1.0,2238481198-19821.jpg,2901952513-70703.jpg,A3JQOR9SGS3YFS_2022-09-25_06h14.37.633.csv
655,1.0,right,right,1.0,1.5473,0.0,56.0,56.0,56.0,1.0,2898633421-291974.jpg,2592380177-354629.jpg,A3JQOR9SGS3YFS_2022-09-25_06h14.37.633.csv
656,3.0,left,left,1.0,1.467,0.0,57.0,57.0,57.0,1.0,2964216465-219242.jpg,2898619327-366362.jpg,A3JQOR9SGS3YFS_2022-09-25_06h14.37.633.csv
657,2.0,right,left,0.0,1.2306,0.0,58.0,58.0,58.0,1.0,2984615361-295509.jpg,2238428357-313623.jpg,A3JQOR9SGS3YFS_2022-09-25_06h14.37.633.csv
658,2.0,right,right,1.0,1.6819,0.0,59.0,59.0,59.0,1.0,2238563377-332054.jpg,2874303365-214262.jpg,A3JQOR9SGS3YFS_2022-09-25_06h14.37.633.csv
659,1.0,left,right,0.0,1.655,0.0,0.0,0.0,0.0,1.0,2964223381-294447.jpg,2427874231-269884.jpg,A1KR5B9ABZ7U4O_2022-09-25_06h17.10.359.csv
660,3.0,left,right,0.0,0.1294,0.0,1.0,1.0,1.0,1.0,2238481198-19822.jpg,2238480803-19737.jpg,A1KR5B9ABZ7U4O_2022-09-25_06h17.10.359.csv
661,1.0,left,right,0.0,0.009,0.0,2.0,2.0,2.0,1.0,2883256307-365057.jpg,2611628310-206388.jpg,A1KR5B9ABZ7U4O_2022-09-25_06h17.10.359.csv
662,1.0,right,right,1.0,1.0917,0.0,3.0,3.0,3.0,1.0,2452380171-273112.jpg,2449442529-124445.jpg,A1KR5B9ABZ7U4O_2022-09-25_06h17.10.359.csv
663,2.0,right,right,1.0,0.125,0.0,4.0,4.0,4.0,1.0,2981244403-72215.jpg,2874299429-139694.jpg,A1KR5B9ABZ7U4O_2022-09-25_06h17.10.359.csv
664,2.0,right,right,1.0,0.0075,0.0,5.0,5.0,5.0,1.0,2868479517-363220.jpg,2898635427-367120.jpg,A1KR5B9ABZ7U4O_2022-09-25_06h17.10.359.csv
665,2.0,right,right,1.0,0.1349,0.0,6.0,6.0,6.0,1.0,2874314526-289684.jpg,2238560245-182099.jpg,A1KR5B9ABZ7U4O_2022-09-25_06h17.10.359.csv
666,1.0,right,left,0.0,0.5963,0.0,7.0,7.0,7.0,1.0,2901946465-218350.jpg,2868475410-213219.jpg,A1KR5B9ABZ7U4O_2022-09-25_06h17.10.359.csv
667,1.0,right,left,0.0,0.0076,0.0,8.0,8.0,8.0,1.0,2512876023-52283.jpg,2898633421-291973.jpg,A1KR5B9ABZ7U4O_2022-09-25_06h17.10.359.csv
668,3.0,left,right,0.0,0.6172,0.0,9.0,9.0,9.0,1.0,2874307433-66280.jpg,2981231422-369714.jpg,A1KR5B9ABZ7U4O_2022-09-25_06h17.10.359.csv
669,1.0,left,right,0.0,0.0091,0.0,10.0,10.0,10.0,1.0,2901939379-143480.jpg,2901942428-69919.jpg,A1KR5B9ABZ7U4O_2022-09-25_06h17.10.359.csv
670,1.0,left,right,0.0,0.7294,0.0,11.0,11.0,11.0,1.0,2874302418-65978.jpg,2964224310-219528.jpg,A1KR5B9ABZ7U4O_2022-09-25_06h17.10.359.csv
671,3.0,left,right,0.0,0.1305,0.0,12.0,12.0,12.0,1.0,2901941401-292798.jpg,2898631468-68931.jpg,A1KR5B9ABZ7U4O_2022-09-25_06h17.10.359.csv
672,1.0,right,right,1.0,0.0077,0.0,13.0,13.0,13.0,1.0,2575963989-130576.jpg,2592379964-131054.jpg,A1KR5B9ABZ7U4O_2022-09-25_06h17.10.359.csv
673,3.0,right,right,1.0,2.4062,0.0,14.0,14.0,14.0,1.0,2901947448-70314.jpg,2883268471-290842.jpg,A1KR5B9ABZ7U4O_2022-09-25_06h17.10.359.csv
674,1.0,right,right,1.0,0.0073,0.0,15.0,15.0,15.0,1.0,2446759803-49251.jpg,2449442529-124446.jpg,A1KR5B9ABZ7U4O_2022-09-25_06h17.10.359.csv
675,2.0,left,right,0.0,0.1269,0.0,16.0,16.0,16.0,1.0,2898618444-142233.jpg,2238555262-330312.jpg,A1KR5B9ABZ7U4O_2022-09-25_06h17.10.359.csv
676,2.0,left,right,0.0,0.1201,0.0,17.0,17.0,17.0,1.0,2592380177-354629.jpg,2579432534-130704.jpg,A1KR5B9ABZ7U4O_2022-09-25_06h17.10.359.csv
677,3.0,right,left,0.0,1.787,0.0,18.0,18.0,18.0,1.0,2898619327-366362.jpg,2964216465-219242.jpg,A1KR5B9ABZ7U4O_2022-09-25_06h17.10.359.csv
678,2.0,left,right,0.0,5.2417,0.0,19.0,19.0,19.0,1.0,2981241414-145842.jpg,2874301404-139813.jpg,A1KR5B9ABZ7U4O_2022-09-25_06h17.10.359.csv
679,3.0,right,right,1.0,0.0079,0.0,20.0,20.0,20.0,1.0,2864909447-362146.jpg,2460547467-349422.jpg,A1KR5B9ABZ7U4O_2022-09-25_06h17.10.359.csv
680,2.0,right,right,1.0,0.1243,0.0,21.0,21.0,21.0,1.0,2883268412-365899.jpg,2864910426-287204.jpg,A1KR5B9ABZ7U4O_2022-09-25_06h17.10.359.csv
681,3.0,left,left,1.0,0.9618,0.0,22.0,22.0,22.0,1.0,2874302418-65979.jpg,2238578544-111698.jpg,A1KR5B9ABZ7U4O_2022-09-25_06h17.10.359.csv
682,2.0,left,left,1.0,0.1298,0.0,23.0,23.0,23.0,1.0,2964213381-294060.jpg,2458348012-349114.jpg,A1KR5B9ABZ7U4O_2022-09-25_06h17.10.359.csv
683,1.0,left,right,0.0,0.9927,0.0,24.0,24.0,24.0,1.0,2898635428-69104.jpg,2446759803-49250.jpg,A1KR5B9ABZ7U4O_2022-09-25_06h17.10.359.csv
684,1.0,right,right,1.0,0.125,0.0,25.0,25.0,25.0,1.0,2964218374-144968.jpg,2964218374-144967.jpg,A1KR5B9ABZ7U4O_2022-09-25_06h17.10.359.csv
685,1.0,left,right,0.0,0.12,0.0,26.0,26.0,26.0,1.0,2452380832-348593.jpg,2238328478-11678.jpg,A1KR5B9ABZ7U4O_2022-09-25_06h17.10.359.csv
686,2.0,right,right,1.0,0.1224,0.0,27.0,27.0,27.0,1.0,2446758985-197610.jpg,2901939379-143479.jpg,A1KR5B9ABZ7U4O_2022-09-25_06h17.10.359.csv
687,3.0,left,right,0.0,2.985,0.0,28.0,28.0,28.0,1.0,2901947423-70311.jpg,2238577590-185467.jpg,A1KR5B9ABZ7U4O_2022-09-25_06h17.10.359.csv
688,2.0,right,right,1.0,0.0077,0.0,29.0,29.0,29.0,1.0,2898632385-217138.jpg,2452381505-199546.jpg,A1KR5B9ABZ7U4O_2022-09-25_06h17.10.359.csv
689,3.0,left,right,0.0,0.1252,0.0,30.0,30.0,30.0,1.0,2883273443-68193.jpg,2898627427-366763.jpg,A1KR5B9ABZ7U4O_2022-09-25_06h17.10.359.csv
690,3.0,right,right,1.0,0.1235,0.0,31.0,31.0,31.0,1.0,2964220333-71258.jpg,2238580740-186218.jpg,A1KR5B9ABZ7U4O_2022-09-25_06h17.10.359.csv
691,1.0,left,left,1.0,0.6191,0.0,32.0,32.0,32.0,1.0,2460547467-349421.jpg,2898631394-142727.jpg,A1KR5B9ABZ7U4O_2022-09-25_06h17.10.359.csv
692,3.0,left,left,1.0,0.0086,0.0,33.0,33.0,33.0,1.0,2874301407-363895.jpg,2901947323-70275.jpg,A1KR5B9ABZ7U4O_2022-09-25_06h17.10.359.csv
693,2.0,left,right,0.0,1.5126,0.0,34.0,34.0,34.0,1.0,2512875899-126682.jpg,2592380177-354628.jpg,A1KR5B9ABZ7U4O_2022-09-25_06h17.10.359.csv
694,1.0,right,right,1.0,0.0075,0.0,35.0,35.0,35.0,1.0,2898626385-216899.jpg,2986451363-73599.jpg,A1KR5B9ABZ7U4O_2022-09-25_06h17.10.359.csv
695,2.0,left,right,0.0,0.1246,0.0,36.0,36.0,36.0,1.0,2446758985-197609.jpg,2864909447-362144.jpg,A1KR5B9ABZ7U4O_2022-09-25_06h17.10.359.csv
696,2.0,right,right,1.0,0.1266,0.0,37.0,37.0,37.0,1.0,2981236443-71859.jpg,2898624426-291546.jpg,A1KR5B9ABZ7U4O_2022-09-25_06h17.10.359.csv
697,3.0,left,right,0.0,0.1285,0.0,38.0,38.0,38.0,1.0,2238572663-35822.jpg,2864903351-286874.jpg,A1KR5B9ABZ7U4O_2022-09-25_06h17.10.359.csv
698,2.0,left,left,1.0,0.1291,0.0,39.0,39.0,39.0,1.0,2238480677-317399.jpg,2238573546-258454.jpg,A1KR5B9ABZ7U4O_2022-09-25_06h17.10.359.csv
699,2.0,left,left,1.0,0.009,0.0,40.0,40.0,40.0,1.0,2898618390-216538.jpg,2901939327-367670.jpg,A1KR5B9ABZ7U4O_2022-09-25_06h17.10.359.csv
700,3.0,right,left,0.0,0.1298,0.0,41.0,41.0,41.0,1.0,2964207374-144577.jpg,2898617468-68274.jpg,A1KR5B9ABZ7U4O_2022-09-25_06h17.10.359.csv
701,1.0,right,left,0.0,0.1336,0.0,42.0,42.0,42.0,1.0,2981240424-145794.jpg,2964222378-71332.jpg,A1KR5B9ABZ7U4O_2022-09-25_06h17.10.359.csv
702,1.0,left,left,1.0,0.1347,0.0,43.0,43.0,43.0,1.0,2874303365-214262.jpg,2274829821-263682.jpg,A1KR5B9ABZ7U4O_2022-09-25_06h17.10.359.csv
703,2.0,right,left,0.0,0.0078,0.0,44.0,44.0,44.0,1.0,2901942443-69923.jpg,2874299429-139695.jpg,A1KR5B9ABZ7U4O_2022-09-25_06h17.10.359.csv
704,2.0,left,left,1.0,0.1303,0.0,45.0,45.0,45.0,1.0,2868474407-362883.jpg,2981246400-220363.jpg,A1KR5B9ABZ7U4O_2022-09-25_06h17.10.359.csv
705,3.0,right,left,0.0,0.1306,0.0,46.0,46.0,46.0,1.0,2901942443-69925.jpg,2986451363-73598.jpg,A1KR5B9ABZ7U4O_2022-09-25_06h17.10.359.csv
706,3.0,right,left,0.0,0.1304,0.0,47.0,47.0,47.0,1.0,2238531493-28260.jpg,2575120738-55529.jpg,A1KR5B9ABZ7U4O_2022-09-25_06h17.10.359.csv
707,2.0,right,right,1.0,0.4755,0.0,48.0,48.0,48.0,1.0,2864901386-286797.jpg,2592380177-354626.jpg,A1KR5B9ABZ7U4O_2022-09-25_06h17.10.359.csv
708,3.0,right,right,1.0,0.0076,0.0,49.0,49.0,49.0,1.0,2238481198-19821.jpg,2901952513-70703.jpg,A1KR5B9ABZ7U4O_2022-09-25_06h17.10.359.csv
709,3.0,left,right,0.0,0.1264,0.0,50.0,50.0,50.0,1.0,2864907432-362042.jpg,2989726338-74002.jpg,A1KR5B9ABZ7U4O_2022-09-25_06h17.10.359.csv
710,1.0,right,right,1.0,0.1279,0.0,51.0,51.0,51.0,1.0,2237944827-301472.jpg,2898634397-367080.jpg,A1KR5B9ABZ7U4O_2022-09-25_06h17.10.359.csv
711,1.0,left,right,0.0,0.1279,0.0,52.0,52.0,52.0,1.0,2458347385-199723.jpg,2238480434-93829.jpg,A1KR5B9ABZ7U4O_2022-09-25_06h17.10.359.csv
712,3.0,right,right,1.0,0.0077,0.0,53.0,53.0,53.0,1.0,2901941438-69835.jpg,2460547508-51571.jpg,A1KR5B9ABZ7U4O_2022-09-25_06h17.10.359.csv
713,1.0,right,right,1.0,0.1337,0.0,54.0,54.0,54.0,1.0,2238471391-240918.jpg,2238425482-313537.jpg,A1KR5B9ABZ7U4O_2022-09-25_06h17.10.359.csv
714,3.0,right,right,1.0,0.1251,0.0,55.0,55.0,55.0,1.0,2901951392-368654.jpg,2446759803-49249.jpg,A1KR5B9ABZ7U4O_2022-09-25_06h17.10.359.csv
715,2.0,left,right,0.0,0.1262,0.0,56.0,56.0,56.0,1.0,2238428357-313623.jpg,2984615361-295509.jpg,A1KR5B9ABZ7U4O_2022-09-25_06h17.10.359.csv
716,2.0,right,right,1.0,0.0071,0.0,57.0,57.0,57.0,1.0,2864900357-361688.jpg,2238481928-19949.jpg,A1KR5B9ABZ7U4O_2022-09-25_06h17.10.359.csv
717,1.0,left,right,0.0,0.126,0.0,58.0,58.0,58.0,1.0,2981231403-71642.jpg,2579432519-130698.jpg,A1KR5B9ABZ7U4O_2022-09-25_06h17.10.359.csv
718,3.0,right,right,1.0,0.1282,0.0,59.0,59.0,59.0,1.0,2238436252-314037.jpg,2883268412-365898.jpg,A1KR5B9ABZ7U4O_2022-09-25_06h17.10.359.csv
719,3.0,left,left,1.0,4.7657,0.0,0.0,0.0,0.0,1.0,2874307433-66280.jpg,2981231422-369714.jpg,A38L8T6E70LVYE_2022-09-25_06h23.23.531.csv
