button.numClicks,button.timesOn,button.timesOff,workID,Age,Gender,Hours slept (last night),date,expName,psychopyVersion,OS,frameRate,space_key_responce.keys,space_key_responce.rt,demo_encoding_response.keys,demo_encoding_response.corr,demo_encoding_loop.thisRepN,demo_encoding_loop.thisTrialN,demo_encoding_loop.thisN,demo_encoding_loop.thisIndex,demo_encoding_loop.ran,DemoImage,DemoCorrect,demo_encoding_response.rt,demo_test_response.keys,demo_test_response.corr,demo_test_response.rt,demo_test_loop.thisRepN,demo_test_loop.thisTrialN,demo_test_loop.thisN,demo_test_loop.thisIndex,demo_test_loop.ran,DemoImage1,DemoImage2,DemoCorrectTest,test_encoding_response.keys,test_encoding_response.corr,trials.thisRepN,trials.thisTrialN,trials.thisN,trials.thisIndex,trials.ran,target_image,pair,layer,correct,test_encoding_response.rt,key_resp_end.keys,key_resp_end.rt,test_test_response.keys,test_test_response.corr,test_test_response.rt,trials_2.thisRepN,trials_2.thisTrialN,trials_2.thisN,trials_2.thisIndex,trials_2.ran,image1,image2,key_resp_end_2.keys,key_resp_end_2.rt
1,[25.74589999997616],[25.74600000000001],A2N1LD0IFPHF4B,25,FEMALE,8 hours,2022-10-06_06h54.49.183,memory_pilot_most_recent,2022.2.4,Win32,15.54533018,,,,,,,,,,,,,,,,,,,,,,,,,,,,,,,,,,,,,,,,,,,,,,,,,
,,,A2N1LD0IFPHF4B,25,FEMALE,8 hours,2022-10-06_06h54.49.183,memory_pilot_most_recent,2022.2.4,Win32,15.54533018,,,,,,,,,,,,,,,,,,,,,,,,,,,,,,,,,,,,,,,,,,,,,,,,,
,,,A2N1LD0IFPHF4B,25,FEMALE,8 hours,2022-10-06_06h54.49.183,memory_pilot_most_recent,2022.2.4,Win32,15.54533018,space,11.1285,,,,,,,,,,,,,,,,,,,,,,,,,,,,,,,,,,,,,,,,,,,,,,,
,,,A2N1LD0IFPHF4B,25,FEMALE,8 hours,2022-10-06_06h54.49.183,memory_pilot_most_recent,2022.2.4,Win32,15.54533018,,,,,,,,,,,,,,,,,,,,,,,,,,,,,,,,,,,,,,,,,,,,,,,,,
,,,A2N1LD0IFPHF4B,25,FEMALE,8 hours,2022-10-06_06h54.49.183,memory_pilot_most_recent,2022.2.4,Win32,15.54533018,,,,1,0,0,0,0,1,flower1.jpg,,,,,,,,,,,,,,,,,,,,,,,,,,,,,,,,,,,,,,,
,,,A2N1LD0IFPHF4B,25,FEMALE,8 hours,2022-10-06_06h54.49.183,memory_pilot_most_recent,2022.2.4,Win32,15.54533018,,,,1,0,1,1,1,1,flower2.jpg,,,,,,,,,,,,,,,,,,,,,,,,,,,,,,,,,,,,,,,
,,,A2N1LD0IFPHF4B,25,FEMALE,8 hours,2022-10-06_06h54.49.183,memory_pilot_most_recent,2022.2.4,Win32,15.54533018,,,left,1,0,2,2,2,1,left.jpg,left,1.1362,,,,,,,,,,,,,,,,,,,,,,,,,,,,,,,,,,,,,
,,,A2N1LD0IFPHF4B,25,FEMALE,8 hours,2022-10-06_06h54.49.183,memory_pilot_most_recent,2022.2.4,Win32,15.54533018,,,,1,0,3,3,3,1,flower3.jpg,,,,,,,,,,,,,,,,,,,,,,,,,,,,,,,,,,,,,,,
,,,A2N1LD0IFPHF4B,25,FEMALE,8 hours,2022-10-06_06h54.49.183,memory_pilot_most_recent,2022.2.4,Win32,15.54533018,,,,1,0,4,4,4,1,flower4.jpg,,,,,,,,,,,,,,,,,,,,,,,,,,,,,,,,,,,,,,,
,,,A2N1LD0IFPHF4B,25,FEMALE,8 hours,2022-10-06_06h54.49.183,memory_pilot_most_recent,2022.2.4,Win32,15.54533018,,,,1,0,5,5,5,1,flower5.jpg,,,,,,,,,,,,,,,,,,,,,,,,,,,,,,,,,,,,,,,
,,,A2N1LD0IFPHF4B,25,FEMALE,8 hours,2022-10-06_06h54.49.183,memory_pilot_most_recent,2022.2.4,Win32,15.54533018,,,,1,0,6,6,6,1,flower6.jpg,,,,,,,,,,,,,,,,,,,,,,,,,,,,,,,,,,,,,,,
,,,A2N1LD0IFPHF4B,25,FEMALE,8 hours,2022-10-06_06h54.49.183,memory_pilot_most_recent,2022.2.4,Win32,15.54533018,,,,,,,,,,,,,,,,,,,,,,,,,,,,,,,,,,,,,,,,,,,,,,,,,
,,,A2N1LD0IFPHF4B,25,FEMALE,8 hours,2022-10-06_06h54.49.183,memory_pilot_most_recent,2022.2.4,Win32,15.54533018,,,,,,,,,,,,,right,0,5.374,0,0,0,0,1,flower1.jpg,flower1_pair.jpg,left,,,,,,,,,,,,,,,,,,,,,,,,,,
,,,A2N1LD0IFPHF4B,25,FEMALE,8 hours,2022-10-06_06h54.49.183,memory_pilot_most_recent,2022.2.4,Win32,15.54533018,,,,,,,,,,,,,left,0,1.8917,0,1,1,1,1,flower2_pair.jpg,flower2.jpg,right,,,,,,,,,,,,,,,,,,,,,,,,,,
,,,A2N1LD0IFPHF4B,25,FEMALE,8 hours,2022-10-06_06h54.49.183,memory_pilot_most_recent,2022.2.4,Win32,15.54533018,,,,,,,,,,,,,right,0,1.4849,0,2,2,2,1,flower3.jpg,flower3_pair.jpg,left,,,,,,,,,,,,,,,,,,,,,,,,,,
,,,A2N1LD0IFPHF4B,25,FEMALE,8 hours,2022-10-06_06h54.49.183,memory_pilot_most_recent,2022.2.4,Win32,15.54533018,,,,,,,,,,,,,right,0,3.3043,0,3,3,3,1,flower4.jpg,flower4_pair.jpg,left,,,,,,,,,,,,,,,,,,,,,,,,,,
,,,A2N1LD0IFPHF4B,25,FEMALE,8 hours,2022-10-06_06h54.49.183,memory_pilot_most_recent,2022.2.4,Win32,15.54533018,,,,,,,,,,,,,right,1,3.469,0,4,4,4,1,flower5_pair.jpg,flower5.jpg,right,,,,,,,,,,,,,,,,,,,,,,,,,,
,,,A2N1LD0IFPHF4B,25,FEMALE,8 hours,2022-10-06_06h54.49.183,memory_pilot_most_recent,2022.2.4,Win32,15.54533018,,,,,,,,,,,,,right,0,1.2288,0,5,5,5,1,flower6.jpg,flower6_pair.jpg,left,,,,,,,,,,,,,,,,,,,,,,,,,,
,,,A2N1LD0IFPHF4B,25,FEMALE,8 hours,2022-10-06_06h54.49.183,memory_pilot_most_recent,2022.2.4,Win32,15.54533018,,,,,,,,,,,,,,,,,,,,,,,,,,,,,,,,,,,,,,,,,,,,,,,,,
,,,A2N1LD0IFPHF4B,25,FEMALE,8 hours,2022-10-06_06h54.49.183,memory_pilot_most_recent,2022.2.4,Win32,15.54533018,space,9.4763,,,,,,,,,,,,,,,,,,,,,,,,,,,,,,,,,,,,,,,,,,,,,,,
,,,A2N1LD0IFPHF4B,25,FEMALE,8 hours,2022-10-06_06h54.49.183,memory_pilot_most_recent,2022.2.4,Win32,15.54533018,,,,,,,,,,,,,,,,,,,,,,,,,1,0,0,0,0,1,2449442529-124445.jpg,2986408373-73286.jpg,2,,,,,,,,,,,,,,,,
,,,A2N1LD0IFPHF4B,25,FEMALE,8 hours,2022-10-06_06h54.49.183,memory_pilot_most_recent,2022.2.4,Win32,15.54533018,,,,,,,,,,,,,,,,,,,,,,,,,1,0,1,1,1,1,2901941401-292798.jpg,2898631468-68931.jpg,3,,,,,,,,,,,,,,,,
,,,A2N1LD0IFPHF4B,25,FEMALE,8 hours,2022-10-06_06h54.49.183,memory_pilot_most_recent,2022.2.4,Win32,15.54533018,,,,,,,,,,,,,,,,,,,,,,,,,1,0,2,2,2,1,2898618390-216538.jpg,2575120609-129862.jpg,3,,,,,,,,,,,,,,,,
,,,A2N1LD0IFPHF4B,25,FEMALE,8 hours,2022-10-06_06h54.49.183,memory_pilot_most_recent,2022.2.4,Win32,15.54533018,,,,,,,,,,,,,,,,,,,,,,,,,1,0,3,3,3,1,2964213381-294060.jpg,2981244394-145974.jpg,1,,,,,,,,,,,,,,,,
,,,A2N1LD0IFPHF4B,25,FEMALE,8 hours,2022-10-06_06h54.49.183,memory_pilot_most_recent,2022.2.4,Win32,15.54533018,,,,,,,,,,,,,,,,,,,,,,,,,1,0,4,4,4,1,2592380177-354626.jpg,2238117096-228518.jpg,3,,,,,,,,,,,,,,,,
,,,A2N1LD0IFPHF4B,25,FEMALE,8 hours,2022-10-06_06h54.49.183,memory_pilot_most_recent,2022.2.4,Win32,15.54533018,,,,,,,,,,,,,,,,,,,,,,,,,1,0,5,5,5,1,2446758985-197609.jpg,2864909447-362144.jpg,2,,,,,,,,,,,,,,,,
,,,A2N1LD0IFPHF4B,25,FEMALE,8 hours,2022-10-06_06h54.49.183,memory_pilot_most_recent,2022.2.4,Win32,15.54533018,,,,,,,,,,,,,,,,,,,,,,,,,1,0,6,6,6,1,2460547508-51571.jpg,2981232437-369759.jpg,2,,,,,,,,,,,,,,,,
,,,A2N1LD0IFPHF4B,25,FEMALE,8 hours,2022-10-06_06h54.49.183,memory_pilot_most_recent,2022.2.4,Win32,15.54533018,,,,,,,,,,,,,,,,,,,,,,,,,1,0,7,7,7,1,2883273443-68193.jpg,2898627427-366763.jpg,3,,,,,,,,,,,,,,,,
,,,A2N1LD0IFPHF4B,25,FEMALE,8 hours,2022-10-06_06h54.49.183,memory_pilot_most_recent,2022.2.4,Win32,15.54533018,,,,,,,,,,,,,,,,,,,,,,,,,1,0,8,8,8,1,2981231403-71642.jpg,2874305405-214397.jpg,2,,,,,,,,,,,,,,,,
,,,A2N1LD0IFPHF4B,25,FEMALE,8 hours,2022-10-06_06h54.49.183,memory_pilot_most_recent,2022.2.4,Win32,15.54533018,,,,,,,,,,,,,,,,,,,,,,,,left,1,0,9,9,9,1,left.jpg,,,left,1.2184,,,,,,,,,,,,,,
,,,A2N1LD0IFPHF4B,25,FEMALE,8 hours,2022-10-06_06h54.49.183,memory_pilot_most_recent,2022.2.4,Win32,15.54533018,,,,,,,,,,,,,,,,,,,,,,,,,1,0,10,10,10,1,2238425482-313537.jpg,2238471391-240918.jpg,1,,,,,,,,,,,,,,,,
,,,A2N1LD0IFPHF4B,25,FEMALE,8 hours,2022-10-06_06h54.49.183,memory_pilot_most_recent,2022.2.4,Win32,15.54533018,,,,,,,,,,,,,,,,,,,,,,,,,1,0,11,11,11,1,2592380177-354629.jpg,2579432534-130704.jpg,2,,,,,,,,,,,,,,,,
,,,A2N1LD0IFPHF4B,25,FEMALE,8 hours,2022-10-06_06h54.49.183,memory_pilot_most_recent,2022.2.4,Win32,15.54533018,,,,,,,,,,,,,,,,,,,,,,,,,1,0,12,12,12,1,2460547467-349421.jpg,2981235446-294901.jpg,3,,,,,,,,,,,,,,,,
,,,A2N1LD0IFPHF4B,25,FEMALE,8 hours,2022-10-06_06h54.49.183,memory_pilot_most_recent,2022.2.4,Win32,15.54533018,,,,,,,,,,,,,,,,,,,,,,,,,1,0,13,13,13,1,2898618444-142233.jpg,2898631359-142721.jpg,1,,,,,,,,,,,,,,,,
,,,A2N1LD0IFPHF4B,25,FEMALE,8 hours,2022-10-06_06h54.49.183,memory_pilot_most_recent,2022.2.4,Win32,15.54533018,,,,,,,,,,,,,,,,,,,,,,,,,1,0,14,14,14,1,2575120738-55529.jpg,2238531493-28260.jpg,3,,,,,,,,,,,,,,,,
,,,A2N1LD0IFPHF4B,25,FEMALE,8 hours,2022-10-06_06h54.49.183,memory_pilot_most_recent,2022.2.4,Win32,15.54533018,,,,,,,,,,,,,,,,,,,,,,,,,1,0,15,15,15,1,2898633421-291973.jpg,2512876023-52283.jpg,1,,,,,,,,,,,,,,,,
,,,A2N1LD0IFPHF4B,25,FEMALE,8 hours,2022-10-06_06h54.49.183,memory_pilot_most_recent,2022.2.4,Win32,15.54533018,,,,,,,,,,,,,,,,,,,,,,,,,1,0,16,16,16,1,2458347385-199723.jpg,2238480434-93829.jpg,1,,,,,,,,,,,,,,,,
,,,A2N1LD0IFPHF4B,25,FEMALE,8 hours,2022-10-06_06h54.49.183,memory_pilot_most_recent,2022.2.4,Win32,15.54533018,,,,,,,,,,,,,,,,,,,,,,,,,1,0,17,17,17,1,2964216465-219242.jpg,2864900319-137787.jpg,2,,,,,,,,,,,,,,,,
,,,A2N1LD0IFPHF4B,25,FEMALE,8 hours,2022-10-06_06h54.49.183,memory_pilot_most_recent,2022.2.4,Win32,15.54533018,,,,,,,,,,,,,,,,,,,,,,,,,1,0,18,18,18,1,2238428357-313623.jpg,2984615361-295509.jpg,2,,,,,,,,,,,,,,,,
,,,A2N1LD0IFPHF4B,25,FEMALE,8 hours,2022-10-06_06h54.49.183,memory_pilot_most_recent,2022.2.4,Win32,15.54533018,,,,,,,,,,,,,,,,,,,,,,,,,1,0,19,19,19,1,2864910426-287204.jpg,2864902304-137862.jpg,1,,,,,,,,,,,,,,,,
,,,A2N1LD0IFPHF4B,25,FEMALE,8 hours,2022-10-06_06h54.49.183,memory_pilot_most_recent,2022.2.4,Win32,15.54533018,,,,,,,,,,,,,,,,,,,,,,,,right,1,0,20,20,20,1,right.jpg,,,right,1.223,,,,,,,,,,,,,,
,,,A2N1LD0IFPHF4B,25,FEMALE,8 hours,2022-10-06_06h54.49.183,memory_pilot_most_recent,2022.2.4,Win32,15.54533018,,,,,,,,,,,,,,,,,,,,,,,,,1,0,21,21,21,1,2238572663-35822.jpg,2864903351-286874.jpg,3,,,,,,,,,,,,,,,,
,,,A2N1LD0IFPHF4B,25,FEMALE,8 hours,2022-10-06_06h54.49.183,memory_pilot_most_recent,2022.2.4,Win32,15.54533018,,,,,,,,,,,,,,,,,,,,,,,,,1,0,22,22,22,1,2898635428-69104.jpg,2898625336-291572.jpg,3,,,,,,,,,,,,,,,,
,,,A2N1LD0IFPHF4B,25,FEMALE,8 hours,2022-10-06_06h54.49.183,memory_pilot_most_recent,2022.2.4,Win32,15.54533018,,,,,,,,,,,,,,,,,,,,,,,,,1,0,23,23,23,1,2238580740-186218.jpg,2238550816-254000.jpg,1,,,,,,,,,,,,,,,,
,,,A2N1LD0IFPHF4B,25,FEMALE,8 hours,2022-10-06_06h54.49.183,memory_pilot_most_recent,2022.2.4,Win32,15.54533018,,,,,,,,,,,,,,,,,,,,,,,,,1,0,24,24,24,1,2901939379-143480.jpg,2898632385-217139.jpg,3,,,,,,,,,,,,,,,,
,,,A2N1LD0IFPHF4B,25,FEMALE,8 hours,2022-10-06_06h54.49.183,memory_pilot_most_recent,2022.2.4,Win32,15.54533018,,,,,,,,,,,,,,,,,,,,,,,,,1,0,25,25,25,1,2898624426-291546.jpg,2981235446-294900.jpg,3,,,,,,,,,,,,,,,,
,,,A2N1LD0IFPHF4B,25,FEMALE,8 hours,2022-10-06_06h54.49.183,memory_pilot_most_recent,2022.2.4,Win32,15.54533018,,,,,,,,,,,,,,,,,,,,,,,,,1,0,26,26,26,1,2874303365-214262.jpg,2864911457-362260.jpg,3,,,,,,,,,,,,,,,,
,,,A2N1LD0IFPHF4B,25,FEMALE,8 hours,2022-10-06_06h54.49.183,memory_pilot_most_recent,2022.2.4,Win32,15.54533018,,,,,,,,,,,,,,,,,,,,,,,,,1,0,27,27,27,1,2874302418-65979.jpg,2238578544-111698.jpg,3,,,,,,,,,,,,,,,,
,,,A2N1LD0IFPHF4B,25,FEMALE,8 hours,2022-10-06_06h54.49.183,memory_pilot_most_recent,2022.2.4,Win32,15.54533018,,,,,,,,,,,,,,,,,,,,,,,,,1,0,28,28,28,1,2592379964-131054.jpg,2238479053-19457.jpg,2,,,,,,,,,,,,,,,,
,,,A2N1LD0IFPHF4B,25,FEMALE,8 hours,2022-10-06_06h54.49.183,memory_pilot_most_recent,2022.2.4,Win32,15.54533018,,,,,,,,,,,,,,,,,,,,,,,,,1,0,29,29,29,1,2238480677-317399.jpg,2238573546-258454.jpg,2,,,,,,,,,,,,,,,,
,,,A2N1LD0IFPHF4B,25,FEMALE,8 hours,2022-10-06_06h54.49.183,memory_pilot_most_recent,2022.2.4,Win32,15.54533018,,,,,,,,,,,,,,,,,,,,,,,,,1,0,30,30,30,1,2901952513-70703.jpg,2868469411-287540.jpg,2,,,,,,,,,,,,,,,,
,,,A2N1LD0IFPHF4B,25,FEMALE,8 hours,2022-10-06_06h54.49.183,memory_pilot_most_recent,2022.2.4,Win32,15.54533018,,,,,,,,,,,,,,,,,,,,,,,,,1,0,31,31,31,1,2452380832-348593.jpg,2238328478-11678.jpg,1,,,,,,,,,,,,,,,,
,,,A2N1LD0IFPHF4B,25,FEMALE,8 hours,2022-10-06_06h54.49.183,memory_pilot_most_recent,2022.2.4,Win32,15.54533018,,,,,,,,,,,,,,,,,,,,,,,,,1,0,32,32,32,1,2874299429-139694.jpg,2986447306-296584.jpg,1,,,,,,,,,,,,,,,,
,,,A2N1LD0IFPHF4B,25,FEMALE,8 hours,2022-10-06_06h54.49.183,memory_pilot_most_recent,2022.2.4,Win32,15.54533018,,,,,,,,,,,,,,,,,,,,,,,,,1,0,33,33,33,1,2449442529-124446.jpg,2446759803-49251.jpg,1,,,,,,,,,,,,,,,,
,,,A2N1LD0IFPHF4B,25,FEMALE,8 hours,2022-10-06_06h54.49.183,memory_pilot_most_recent,2022.2.4,Win32,15.54533018,,,,,,,,,,,,,,,,,,,,,,,,left,1,0,34,34,34,1,left.jpg,,,left,1.0503,,,,,,,,,,,,,,
,,,A2N1LD0IFPHF4B,25,FEMALE,8 hours,2022-10-06_06h54.49.183,memory_pilot_most_recent,2022.2.4,Win32,15.54533018,,,,,,,,,,,,,,,,,,,,,,,,,1,0,35,35,35,1,2874307433-66280.jpg,2981246400-220365.jpg,2,,,,,,,,,,,,,,,,
,,,A2N1LD0IFPHF4B,25,FEMALE,8 hours,2022-10-06_06h54.49.183,memory_pilot_most_recent,2022.2.4,Win32,15.54533018,,,,,,,,,,,,,,,,,,,,,,,,,1,0,36,36,36,1,2864907432-362042.jpg,2864901420-212147.jpg,1,,,,,,,,,,,,,,,,
,,,A2N1LD0IFPHF4B,25,FEMALE,8 hours,2022-10-06_06h54.49.183,memory_pilot_most_recent,2022.2.4,Win32,15.54533018,,,,,,,,,,,,,,,,,,,,,,,,,1,0,37,37,37,1,2874299429-139695.jpg,2901942443-69923.jpg,2,,,,,,,,,,,,,,,,
,,,A2N1LD0IFPHF4B,25,FEMALE,8 hours,2022-10-06_06h54.49.183,memory_pilot_most_recent,2022.2.4,Win32,15.54533018,,,,,,,,,,,,,,,,,,,,,,,,,1,0,38,38,38,1,2898634397-367080.jpg,2901934408-69289.jpg,2,,,,,,,,,,,,,,,,
,,,A2N1LD0IFPHF4B,25,FEMALE,8 hours,2022-10-06_06h54.49.183,memory_pilot_most_recent,2022.2.4,Win32,15.54533018,,,,,,,,,,,,,,,,,,,,,,,,,1,0,39,39,39,1,2512875899-126682.jpg,2592380177-354628.jpg,2,,,,,,,,,,,,,,,,
,,,A2N1LD0IFPHF4B,25,FEMALE,8 hours,2022-10-06_06h54.49.183,memory_pilot_most_recent,2022.2.4,Win32,15.54533018,,,,,,,,,,,,,,,,,,,,,,,,,1,0,40,40,40,1,2238481198-19822.jpg,2862691449-137104.jpg,1,,,,,,,,,,,,,,,,
,,,A2N1LD0IFPHF4B,25,FEMALE,8 hours,2022-10-06_06h54.49.183,memory_pilot_most_recent,2022.2.4,Win32,15.54533018,,,,,,,,,,,,,,,,,,,,,,,,,1,0,41,41,41,1,2981241414-145842.jpg,2874301404-139813.jpg,2,,,,,,,,,,,,,,,,
,,,A2N1LD0IFPHF4B,25,FEMALE,8 hours,2022-10-06_06h54.49.183,memory_pilot_most_recent,2022.2.4,Win32,15.54533018,,,,,,,,,,,,,,,,,,,,,,,,,1,0,42,42,42,1,2238560245-182099.jpg,2238480980-168129.jpg,3,,,,,,,,,,,,,,,,
,,,A2N1LD0IFPHF4B,25,FEMALE,8 hours,2022-10-06_06h54.49.183,memory_pilot_most_recent,2022.2.4,Win32,15.54533018,,,,,,,,,,,,,,,,,,,,,,,,left,1,0,43,43,43,1,left.jpg,,,left,0.962,,,,,,,,,,,,,,
,,,A2N1LD0IFPHF4B,25,FEMALE,8 hours,2022-10-06_06h54.49.183,memory_pilot_most_recent,2022.2.4,Win32,15.54533018,,,,,,,,,,,,,,,,,,,,,,,,,1,0,44,44,44,1,2883268471-290842.jpg,2901947448-70314.jpg,3,,,,,,,,,,,,,,,,
,,,A2N1LD0IFPHF4B,25,FEMALE,8 hours,2022-10-06_06h54.49.183,memory_pilot_most_recent,2022.2.4,Win32,15.54533018,,,,,,,,,,,,,,,,,,,,,,,,,1,0,45,45,45,1,2964218374-144967.jpg,2446759306-271734.jpg,2,,,,,,,,,,,,,,,,
,,,A2N1LD0IFPHF4B,25,FEMALE,8 hours,2022-10-06_06h54.49.183,memory_pilot_most_recent,2022.2.4,Win32,15.54533018,,,,,,,,,,,,,,,,,,,,,,,,,1,0,46,46,46,1,2874302418-65978.jpg,2964224310-219528.jpg,1,,,,,,,,,,,,,,,,
,,,A2N1LD0IFPHF4B,25,FEMALE,8 hours,2022-10-06_06h54.49.183,memory_pilot_most_recent,2022.2.4,Win32,15.54533018,,,,,,,,,,,,,,,,,,,,,,,,,1,0,47,47,47,1,2901939379-143479.jpg,2964216376-294181.jpg,3,,,,,,,,,,,,,,,,
,,,A2N1LD0IFPHF4B,25,FEMALE,8 hours,2022-10-06_06h54.49.183,memory_pilot_most_recent,2022.2.4,Win32,15.54533018,,,,,,,,,,,,,,,,,,,,,,,,right,1,0,48,48,48,1,right.jpg,,,right,1.0554,,,,,,,,,,,,,,
,,,A2N1LD0IFPHF4B,25,FEMALE,8 hours,2022-10-06_06h54.49.183,memory_pilot_most_recent,2022.2.4,Win32,15.54533018,,,,,,,,,,,,,,,,,,,,,,,,,1,0,49,49,49,1,2901947423-70311.jpg,2238573447-333826.jpg,2,,,,,,,,,,,,,,,,
,,,A2N1LD0IFPHF4B,25,FEMALE,8 hours,2022-10-06_06h54.49.183,memory_pilot_most_recent,2022.2.4,Win32,15.54533018,,,,,,,,,,,,,,,,,,,,,,,,,1,0,50,50,50,1,2898617468-68274.jpg,2901946439-144040.jpg,1,,,,,,,,,,,,,,,,
,,,A2N1LD0IFPHF4B,25,FEMALE,8 hours,2022-10-06_06h54.49.183,memory_pilot_most_recent,2022.2.4,Win32,15.54533018,,,,,,,,,,,,,,,,,,,,,,,,,1,0,51,51,51,1,2898635427-367120.jpg,2964221435-219434.jpg,1,,,,,,,,,,,,,,,,
,,,A2N1LD0IFPHF4B,25,FEMALE,8 hours,2022-10-06_06h54.49.183,memory_pilot_most_recent,2022.2.4,Win32,15.54533018,,,,,,,,,,,,,,,,,,,,,,,,,1,0,52,52,52,1,2883256307-365057.jpg,2611628310-206388.jpg,1,,,,,,,,,,,,,,,,
,,,A2N1LD0IFPHF4B,25,FEMALE,8 hours,2022-10-06_06h54.49.183,memory_pilot_most_recent,2022.2.4,Win32,15.54533018,,,,,,,,,,,,,,,,,,,,,,,,,1,0,53,53,53,1,2868474407-362883.jpg,2981246400-220363.jpg,2,,,,,,,,,,,,,,,,
,,,A2N1LD0IFPHF4B,25,FEMALE,8 hours,2022-10-06_06h54.49.183,memory_pilot_most_recent,2022.2.4,Win32,15.54533018,,,,,,,,,,,,,,,,,,,,,,,,,1,0,54,54,54,1,2446759803-49249.jpg,2901951392-368654.jpg,3,,,,,,,,,,,,,,,,
,,,A2N1LD0IFPHF4B,25,FEMALE,8 hours,2022-10-06_06h54.49.183,memory_pilot_most_recent,2022.2.4,Win32,15.54533018,,,,,,,,,,,,,,,,,,,,,,,,,1,0,55,55,55,1,2238481928-19949.jpg,2864900357-361688.jpg,2,,,,,,,,,,,,,,,,
,,,A2N1LD0IFPHF4B,25,FEMALE,8 hours,2022-10-06_06h54.49.183,memory_pilot_most_recent,2022.2.4,Win32,15.54533018,,,,,,,,,,,,,,,,,,,,,,,,,1,0,56,56,56,1,2964223381-294447.jpg,2898628438-68785.jpg,3,,,,,,,,,,,,,,,,
,,,A2N1LD0IFPHF4B,25,FEMALE,8 hours,2022-10-06_06h54.49.183,memory_pilot_most_recent,2022.2.4,Win32,15.54533018,,,,,,,,,,,,,,,,,,,,,,,,,1,0,57,57,57,1,2964222378-71332.jpg,2981240427-370099.jpg,3,,,,,,,,,,,,,,,,
,,,A2N1LD0IFPHF4B,25,FEMALE,8 hours,2022-10-06_06h54.49.183,memory_pilot_most_recent,2022.2.4,Win32,15.54533018,,,,,,,,,,,,,,,,,,,,,,,,,1,0,58,58,58,1,2874301407-363895.jpg,2446761374-124213.jpg,1,,,,,,,,,,,,,,,,
,,,A2N1LD0IFPHF4B,25,FEMALE,8 hours,2022-10-06_06h54.49.183,memory_pilot_most_recent,2022.2.4,Win32,15.54533018,,,,,,,,,,,,,,,,,,,,,,,,,1,0,59,59,59,1,2986451363-73599.jpg,2898626385-216899.jpg,1,,,,,,,,,,,,,,,,
,,,A2N1LD0IFPHF4B,25,FEMALE,8 hours,2022-10-06_06h54.49.183,memory_pilot_most_recent,2022.2.4,Win32,15.54533018,,,,,,,,,,,,,,,,,,,,,,,,,1,0,60,60,60,1,2986451363-73598.jpg,2984628361-295995.jpg,2,,,,,,,,,,,,,,,,
,,,A2N1LD0IFPHF4B,25,FEMALE,8 hours,2022-10-06_06h54.49.183,memory_pilot_most_recent,2022.2.4,Win32,15.54533018,,,,,,,,,,,,,,,,,,,,,,,,,1,0,61,61,61,1,2460547467-349422.jpg,2864909447-362146.jpg,3,,,,,,,,,,,,,,,,
,,,A2N1LD0IFPHF4B,25,FEMALE,8 hours,2022-10-06_06h54.49.183,memory_pilot_most_recent,2022.2.4,Win32,15.54533018,,,,,,,,,,,,,,,,,,,,,,,,,1,0,62,62,62,1,2452381505-199546.jpg,2994401319-148290.jpg,3,,,,,,,,,,,,,,,,
,,,A2N1LD0IFPHF4B,25,FEMALE,8 hours,2022-10-06_06h54.49.183,memory_pilot_most_recent,2022.2.4,Win32,15.54533018,,,,,,,,,,,,,,,,,,,,,,,,,1,0,63,63,63,1,2868475410-213219.jpg,2901946465-218350.jpg,1,,,,,,,,,,,,,,,,
,,,A2N1LD0IFPHF4B,25,FEMALE,8 hours,2022-10-06_06h54.49.183,memory_pilot_most_recent,2022.2.4,Win32,15.54533018,,,,,,,,,,,,,,,,,,,,,,,,,1,0,64,64,64,1,2883268412-365898.jpg,2984626312-370849.jpg,1,,,,,,,,,,,,,,,,
,,,A2N1LD0IFPHF4B,25,FEMALE,8 hours,2022-10-06_06h54.49.183,memory_pilot_most_recent,2022.2.4,Win32,15.54533018,,,,,,,,,,,,,,,,,,,,,,,,,,,,,,,,,,,,space,5.2092,,,,,,,,,,,,
,,,A2N1LD0IFPHF4B,25,FEMALE,8 hours,2022-10-06_06h54.49.183,memory_pilot_most_recent,2022.2.4,Win32,15.54533018,,,,,,,,,,,,,,,,,,,,,,,,,,,,,,,,,,,,,,,,,,,,,,,,,
,,,A2N1LD0IFPHF4B,25,FEMALE,8 hours,2022-10-06_06h54.49.183,memory_pilot_most_recent,2022.2.4,Win32,15.54533018,,,,,,,,,,,,,,,,,,,,,,,,,,,,,,,,,1,left,,,,left,1,2.8988,0,0,0,0,1,2238425482-313537.jpg,2238471391-240918.jpg,,
,,,A2N1LD0IFPHF4B,25,FEMALE,8 hours,2022-10-06_06h54.49.183,memory_pilot_most_recent,2022.2.4,Win32,15.54533018,,,,,,,,,,,,,,,,,,,,,,,,,,,,,,,,,1,right,,,,right,1,3.0629,0,1,1,1,1,2864901420-212147.jpg,2864907432-362042.jpg,,
,,,A2N1LD0IFPHF4B,25,FEMALE,8 hours,2022-10-06_06h54.49.183,memory_pilot_most_recent,2022.2.4,Win32,15.54533018,,,,,,,,,,,,,,,,,,,,,,,,,,,,,,,,,1,right,,,,right,1,2.2691,0,2,2,2,1,2446759803-49251.jpg,2449442529-124446.jpg,,
,,,A2N1LD0IFPHF4B,25,FEMALE,8 hours,2022-10-06_06h54.49.183,memory_pilot_most_recent,2022.2.4,Win32,15.54533018,,,,,,,,,,,,,,,,,,,,,,,,,,,,,,,,,2,right,,,,right,1,2.4571,0,3,3,3,1,2238573447-333826.jpg,2901947423-70311.jpg,,
,,,A2N1LD0IFPHF4B,25,FEMALE,8 hours,2022-10-06_06h54.49.183,memory_pilot_most_recent,2022.2.4,Win32,15.54533018,,,,,,,,,,,,,,,,,,,,,,,,,,,,,,,,,2,right,,,,right,1,1.6107,0,4,4,4,1,2592380177-354628.jpg,2512875899-126682.jpg,,
,,,A2N1LD0IFPHF4B,25,FEMALE,8 hours,2022-10-06_06h54.49.183,memory_pilot_most_recent,2022.2.4,Win32,15.54533018,,,,,,,,,,,,,,,,,,,,,,,,,,,,,,,,,1,right,,,,right,1,1.9727,0,5,5,5,1,2986447306-296584.jpg,2874299429-139694.jpg,,
,,,A2N1LD0IFPHF4B,25,FEMALE,8 hours,2022-10-06_06h54.49.183,memory_pilot_most_recent,2022.2.4,Win32,15.54533018,,,,,,,,,,,,,,,,,,,,,,,,,,,,,,,,,2,left,,,,left,1,1.6992,0,6,6,6,1,2868474407-362883.jpg,2981246400-220363.jpg,,
,,,A2N1LD0IFPHF4B,25,FEMALE,8 hours,2022-10-06_06h54.49.183,memory_pilot_most_recent,2022.2.4,Win32,15.54533018,,,,,,,,,,,,,,,,,,,,,,,,,,,,,,,,,2,right,,,,right,1,2.722,0,7,7,7,1,2446759306-271734.jpg,2964218374-144967.jpg,,
,,,A2N1LD0IFPHF4B,25,FEMALE,8 hours,2022-10-06_06h54.49.183,memory_pilot_most_recent,2022.2.4,Win32,15.54533018,,,,,,,,,,,,,,,,,,,,,,,,,,,,,,,,,2,right,,,,right,1,1.7683,0,8,8,8,1,2874305405-214397.jpg,2981231403-71642.jpg,,
,,,A2N1LD0IFPHF4B,25,FEMALE,8 hours,2022-10-06_06h54.49.183,memory_pilot_most_recent,2022.2.4,Win32,15.54533018,,,,,,,,,,,,,,,,,,,,,,,,,,,,,,,,,3,right,,,,right,1,1.8909,0,9,9,9,1,2898632385-217139.jpg,2901939379-143480.jpg,,
,,,A2N1LD0IFPHF4B,25,FEMALE,8 hours,2022-10-06_06h54.49.183,memory_pilot_most_recent,2022.2.4,Win32,15.54533018,,,,,,,,,,,,,,,,,,,,,,,,,,,,,,,,,3,right,,,,right,1,1.5116,0,10,10,10,1,2238578544-111698.jpg,2874302418-65979.jpg,,
,,,A2N1LD0IFPHF4B,25,FEMALE,8 hours,2022-10-06_06h54.49.183,memory_pilot_most_recent,2022.2.4,Win32,15.54533018,,,,,,,,,,,,,,,,,,,,,,,,,,,,,,,,,3,left,,,,left,1,1.7965,0,11,11,11,1,2901941401-292798.jpg,2898631468-68931.jpg,,
,,,A2N1LD0IFPHF4B,25,FEMALE,8 hours,2022-10-06_06h54.49.183,memory_pilot_most_recent,2022.2.4,Win32,15.54533018,,,,,,,,,,,,,,,,,,,,,,,,,,,,,,,,,3,right,,,,right,1,1.7867,0,12,12,12,1,2238531493-28260.jpg,2575120738-55529.jpg,,
,,,A2N1LD0IFPHF4B,25,FEMALE,8 hours,2022-10-06_06h54.49.183,memory_pilot_most_recent,2022.2.4,Win32,15.54533018,,,,,,,,,,,,,,,,,,,,,,,,,,,,,,,,,3,right,,,,right,1,1.5011,0,13,13,13,1,2981240427-370099.jpg,2964222378-71332.jpg,,
,,,A2N1LD0IFPHF4B,25,FEMALE,8 hours,2022-10-06_06h54.49.183,memory_pilot_most_recent,2022.2.4,Win32,15.54533018,,,,,,,,,,,,,,,,,,,,,,,,,,,,,,,,,1,left,,,,left,1,1.4069,0,14,14,14,1,2964213381-294060.jpg,2981244394-145974.jpg,,
,,,A2N1LD0IFPHF4B,25,FEMALE,8 hours,2022-10-06_06h54.49.183,memory_pilot_most_recent,2022.2.4,Win32,15.54533018,,,,,,,,,,,,,,,,,,,,,,,,,,,,,,,,,1,left,,,,left,1,4.4016,0,15,15,15,1,2986451363-73599.jpg,2898626385-216899.jpg,,
,,,A2N1LD0IFPHF4B,25,FEMALE,8 hours,2022-10-06_06h54.49.183,memory_pilot_most_recent,2022.2.4,Win32,15.54533018,,,,,,,,,,,,,,,,,,,,,,,,,,,,,,,,,2,left,,,,left,1,2.248,0,16,16,16,1,2460547508-51571.jpg,2981232437-369759.jpg,,
,,,A2N1LD0IFPHF4B,25,FEMALE,8 hours,2022-10-06_06h54.49.183,memory_pilot_most_recent,2022.2.4,Win32,15.54533018,,,,,,,,,,,,,,,,,,,,,,,,,,,,,,,,,3,left,,,,left,1,2.9718,0,17,17,17,1,2898635428-69104.jpg,2898625336-291572.jpg,,
,,,A2N1LD0IFPHF4B,25,FEMALE,8 hours,2022-10-06_06h54.49.183,memory_pilot_most_recent,2022.2.4,Win32,15.54533018,,,,,,,,,,,,,,,,,,,,,,,,,,,,,,,,,2,right,,,,right,1,1.8957,0,18,18,18,1,2864909447-362144.jpg,2446758985-197609.jpg,,
,,,A2N1LD0IFPHF4B,25,FEMALE,8 hours,2022-10-06_06h54.49.183,memory_pilot_most_recent,2022.2.4,Win32,15.54533018,,,,,,,,,,,,,,,,,,,,,,,,,,,,,,,,,1,left,,,,left,1,1.4166,0,19,19,19,1,2868475410-213219.jpg,2901946465-218350.jpg,,
,,,A2N1LD0IFPHF4B,25,FEMALE,8 hours,2022-10-06_06h54.49.183,memory_pilot_most_recent,2022.2.4,Win32,15.54533018,,,,,,,,,,,,,,,,,,,,,,,,,,,,,,,,,1,left,,,,left,1,1.3095,0,20,20,20,1,2452380832-348593.jpg,2238328478-11678.jpg,,
,,,A2N1LD0IFPHF4B,25,FEMALE,8 hours,2022-10-06_06h54.49.183,memory_pilot_most_recent,2022.2.4,Win32,15.54533018,,,,,,,,,,,,,,,,,,,,,,,,,,,,,,,,,3,right,,,,right,1,1.8811,0,21,21,21,1,2864903351-286874.jpg,2238572663-35822.jpg,,
,,,A2N1LD0IFPHF4B,25,FEMALE,8 hours,2022-10-06_06h54.49.183,memory_pilot_most_recent,2022.2.4,Win32,15.54533018,,,,,,,,,,,,,,,,,,,,,,,,,,,,,,,,,1,right,,,,right,1,4.4152,0,22,22,22,1,2864902304-137862.jpg,2864910426-287204.jpg,,
,,,A2N1LD0IFPHF4B,25,FEMALE,8 hours,2022-10-06_06h54.49.183,memory_pilot_most_recent,2022.2.4,Win32,15.54533018,,,,,,,,,,,,,,,,,,,,,,,,,,,,,,,,,3,right,,,,right,1,2.5495,0,23,23,23,1,2964216376-294181.jpg,2901939379-143479.jpg,,
,,,A2N1LD0IFPHF4B,25,FEMALE,8 hours,2022-10-06_06h54.49.183,memory_pilot_most_recent,2022.2.4,Win32,15.54533018,,,,,,,,,,,,,,,,,,,,,,,,,,,,,,,,,1,left,,,,left,1,0.95,0,24,24,24,1,2458347385-199723.jpg,2238480434-93829.jpg,,
,,,A2N1LD0IFPHF4B,25,FEMALE,8 hours,2022-10-06_06h54.49.183,memory_pilot_most_recent,2022.2.4,Win32,15.54533018,,,,,,,,,,,,,,,,,,,,,,,,,,,,,,,,,1,right,,,,right,1,9.1484,0,25,25,25,1,2446761374-124213.jpg,2874301407-363895.jpg,,
,,,A2N1LD0IFPHF4B,25,FEMALE,8 hours,2022-10-06_06h54.49.183,memory_pilot_most_recent,2022.2.4,Win32,15.54533018,,,,,,,,,,,,,,,,,,,,,,,,,,,,,,,,,1,right,,,,right,1,2.7536,0,26,26,26,1,2862691449-137104.jpg,2238481198-19822.jpg,,
,,,A2N1LD0IFPHF4B,25,FEMALE,8 hours,2022-10-06_06h54.49.183,memory_pilot_most_recent,2022.2.4,Win32,15.54533018,,,,,,,,,,,,,,,,,,,,,,,,,,,,,,,,,3,left,,,,right,0,1.8978,0,27,27,27,1,2874303365-214262.jpg,2864911457-362260.jpg,,
,,,A2N1LD0IFPHF4B,25,FEMALE,8 hours,2022-10-06_06h54.49.183,memory_pilot_most_recent,2022.2.4,Win32,15.54533018,,,,,,,,,,,,,,,,,,,,,,,,,,,,,,,,,2,right,,,,right,1,0.4799,0,28,28,28,1,2238479053-19457.jpg,2592379964-131054.jpg,,
,,,A2N1LD0IFPHF4B,25,FEMALE,8 hours,2022-10-06_06h54.49.183,memory_pilot_most_recent,2022.2.4,Win32,15.54533018,,,,,,,,,,,,,,,,,,,,,,,,,,,,,,,,,2,right,,,,right,1,0.1017,0,29,29,29,1,2981246400-220365.jpg,2874307433-66280.jpg,,
,,,A2N1LD0IFPHF4B,25,FEMALE,8 hours,2022-10-06_06h54.49.183,memory_pilot_most_recent,2022.2.4,Win32,15.54533018,,,,,,,,,,,,,,,,,,,,,,,,,,,,,,,,,3,left,,,,right,0,0.1078,0,30,30,30,1,2592380177-354626.jpg,2238117096-228518.jpg,,
,,,A2N1LD0IFPHF4B,25,FEMALE,8 hours,2022-10-06_06h54.49.183,memory_pilot_most_recent,2022.2.4,Win32,15.54533018,,,,,,,,,,,,,,,,,,,,,,,,,,,,,,,,,3,right,,,,right,1,4.4669,0,31,31,31,1,2901947448-70314.jpg,2883268471-290842.jpg,,
,,,A2N1LD0IFPHF4B,25,FEMALE,8 hours,2022-10-06_06h54.49.183,memory_pilot_most_recent,2022.2.4,Win32,15.54533018,,,,,,,,,,,,,,,,,,,,,,,,,,,,,,,,,1,left,,,,left,1,7.1772,0,32,32,32,1,2898618444-142233.jpg,2898631359-142721.jpg,,
,,,A2N1LD0IFPHF4B,25,FEMALE,8 hours,2022-10-06_06h54.49.183,memory_pilot_most_recent,2022.2.4,Win32,15.54533018,,,,,,,,,,,,,,,,,,,,,,,,,,,,,,,,,2,left,,,,left,1,2.2884,0,33,33,33,1,2874299429-139695.jpg,2901942443-69923.jpg,,
,,,A2N1LD0IFPHF4B,25,FEMALE,8 hours,2022-10-06_06h54.49.183,memory_pilot_most_recent,2022.2.4,Win32,15.54533018,,,,,,,,,,,,,,,,,,,,,,,,,,,,,,,,,3,right,,,,right,1,2.4067,0,34,34,34,1,2994401319-148290.jpg,2452381505-199546.jpg,,
,,,A2N1LD0IFPHF4B,25,FEMALE,8 hours,2022-10-06_06h54.49.183,memory_pilot_most_recent,2022.2.4,Win32,15.54533018,,,,,,,,,,,,,,,,,,,,,,,,,,,,,,,,,2,right,,,,right,1,1.8784,0,35,35,35,1,2874301404-139813.jpg,2981241414-145842.jpg,,
,,,A2N1LD0IFPHF4B,25,FEMALE,8 hours,2022-10-06_06h54.49.183,memory_pilot_most_recent,2022.2.4,Win32,15.54533018,,,,,,,,,,,,,,,,,,,,,,,,,,,,,,,,,1,left,,,,left,1,5.4625,0,36,36,36,1,2898617468-68274.jpg,2901946439-144040.jpg,,
,,,A2N1LD0IFPHF4B,25,FEMALE,8 hours,2022-10-06_06h54.49.183,memory_pilot_most_recent,2022.2.4,Win32,15.54533018,,,,,,,,,,,,,,,,,,,,,,,,,,,,,,,,,3,right,,,,right,1,2.3279,0,37,37,37,1,2901951392-368654.jpg,2446759803-49249.jpg,,
,,,A2N1LD0IFPHF4B,25,FEMALE,8 hours,2022-10-06_06h54.49.183,memory_pilot_most_recent,2022.2.4,Win32,15.54533018,,,,,,,,,,,,,,,,,,,,,,,,,,,,,,,,,1,right,,,,right,1,1.8111,0,38,38,38,1,2238550816-254000.jpg,2238580740-186218.jpg,,
,,,A2N1LD0IFPHF4B,25,FEMALE,8 hours,2022-10-06_06h54.49.183,memory_pilot_most_recent,2022.2.4,Win32,15.54533018,,,,,,,,,,,,,,,,,,,,,,,,,,,,,,,,,3,left,,,,left,1,1.6022,0,39,39,39,1,2460547467-349421.jpg,2981235446-294901.jpg,,
,,,A2N1LD0IFPHF4B,25,FEMALE,8 hours,2022-10-06_06h54.49.183,memory_pilot_most_recent,2022.2.4,Win32,15.54533018,,,,,,,,,,,,,,,,,,,,,,,,,,,,,,,,,3,right,,,,right,1,2.7577,0,40,40,40,1,2238480980-168129.jpg,2238560245-182099.jpg,,
,,,A2N1LD0IFPHF4B,25,FEMALE,8 hours,2022-10-06_06h54.49.183,memory_pilot_most_recent,2022.2.4,Win32,15.54533018,,,,,,,,,,,,,,,,,,,,,,,,,,,,,,,,,3,left,,,,left,1,1.3035,0,41,41,41,1,2460547467-349422.jpg,2864909447-362146.jpg,,
,,,A2N1LD0IFPHF4B,25,FEMALE,8 hours,2022-10-06_06h54.49.183,memory_pilot_most_recent,2022.2.4,Win32,15.54533018,,,,,,,,,,,,,,,,,,,,,,,,,,,,,,,,,1,right,,,,left,0,2.5416,0,42,42,42,1,2512876023-52283.jpg,2898633421-291973.jpg,,
,,,A2N1LD0IFPHF4B,25,FEMALE,8 hours,2022-10-06_06h54.49.183,memory_pilot_most_recent,2022.2.4,Win32,15.54533018,,,,,,,,,,,,,,,,,,,,,,,,,,,,,,,,,2,right,,,,right,1,1.6734,0,43,43,43,1,2984615361-295509.jpg,2238428357-313623.jpg,,
,,,A2N1LD0IFPHF4B,25,FEMALE,8 hours,2022-10-06_06h54.49.183,memory_pilot_most_recent,2022.2.4,Win32,15.54533018,,,,,,,,,,,,,,,,,,,,,,,,,,,,,,,,,2,left,,,,left,1,1.5949,0,44,44,44,1,2238480677-317399.jpg,2238573546-258454.jpg,,
,,,A2N1LD0IFPHF4B,25,FEMALE,8 hours,2022-10-06_06h54.49.183,memory_pilot_most_recent,2022.2.4,Win32,15.54533018,,,,,,,,,,,,,,,,,,,,,,,,,,,,,,,,,2,left,,,,left,1,1.9582,0,45,45,45,1,2986451363-73598.jpg,2984628361-295995.jpg,,
,,,A2N1LD0IFPHF4B,25,FEMALE,8 hours,2022-10-06_06h54.49.183,memory_pilot_most_recent,2022.2.4,Win32,15.54533018,,,,,,,,,,,,,,,,,,,,,,,,,,,,,,,,,3,left,,,,right,0,1.8346,0,46,46,46,1,2964223381-294447.jpg,2898628438-68785.jpg,,
,,,A2N1LD0IFPHF4B,25,FEMALE,8 hours,2022-10-06_06h54.49.183,memory_pilot_most_recent,2022.2.4,Win32,15.54533018,,,,,,,,,,,,,,,,,,,,,,,,,,,,,,,,,3,left,,,,right,0,3.1619,0,47,47,47,1,2883273443-68193.jpg,2898627427-366763.jpg,,
,,,A2N1LD0IFPHF4B,25,FEMALE,8 hours,2022-10-06_06h54.49.183,memory_pilot_most_recent,2022.2.4,Win32,15.54533018,,,,,,,,,,,,,,,,,,,,,,,,,,,,,,,,,1,left,,,,right,0,2.7078,0,48,48,48,1,2874302418-65978.jpg,2964224310-219528.jpg,,
,,,A2N1LD0IFPHF4B,25,FEMALE,8 hours,2022-10-06_06h54.49.183,memory_pilot_most_recent,2022.2.4,Win32,15.54533018,,,,,,,,,,,,,,,,,,,,,,,,,,,,,,,,,1,left,,,,left,1,1.9522,0,49,49,49,1,2883268412-365898.jpg,2984626312-370849.jpg,,
,,,A2N1LD0IFPHF4B,25,FEMALE,8 hours,2022-10-06_06h54.49.183,memory_pilot_most_recent,2022.2.4,Win32,15.54533018,,,,,,,,,,,,,,,,,,,,,,,,,,,,,,,,,2,right,,,,right,1,0.6655,0,50,50,50,1,2901934408-69289.jpg,2898634397-367080.jpg,,
,,,A2N1LD0IFPHF4B,25,FEMALE,8 hours,2022-10-06_06h54.49.183,memory_pilot_most_recent,2022.2.4,Win32,15.54533018,,,,,,,,,,,,,,,,,,,,,,,,,,,,,,,,,1,right,,,,right,1,1.9094,0,51,51,51,1,2964221435-219434.jpg,2898635427-367120.jpg,,
,,,A2N1LD0IFPHF4B,25,FEMALE,8 hours,2022-10-06_06h54.49.183,memory_pilot_most_recent,2022.2.4,Win32,15.54533018,,,,,,,,,,,,,,,,,,,,,,,,,,,,,,,,,1,right,,,,right,1,7.0623,0,52,52,52,1,2611628310-206388.jpg,2883256307-365057.jpg,,
,,,A2N1LD0IFPHF4B,25,FEMALE,8 hours,2022-10-06_06h54.49.183,memory_pilot_most_recent,2022.2.4,Win32,15.54533018,,,,,,,,,,,,,,,,,,,,,,,,,,,,,,,,,2,left,,,,right,0,0.2943,0,53,53,53,1,2238481928-19949.jpg,2864900357-361688.jpg,,
,,,A2N1LD0IFPHF4B,25,FEMALE,8 hours,2022-10-06_06h54.49.183,memory_pilot_most_recent,2022.2.4,Win32,15.54533018,,,,,,,,,,,,,,,,,,,,,,,,,,,,,,,,,2,right,,,,right,1,0.1495,0,54,54,54,1,2986408373-73286.jpg,2449442529-124445.jpg,,
,,,A2N1LD0IFPHF4B,25,FEMALE,8 hours,2022-10-06_06h54.49.183,memory_pilot_most_recent,2022.2.4,Win32,15.54533018,,,,,,,,,,,,,,,,,,,,,,,,,,,,,,,,,3,left,,,,right,0,0.1557,0,55,55,55,1,2898618390-216538.jpg,2575120609-129862.jpg,,
,,,A2N1LD0IFPHF4B,25,FEMALE,8 hours,2022-10-06_06h54.49.183,memory_pilot_most_recent,2022.2.4,Win32,15.54533018,,,,,,,,,,,,,,,,,,,,,,,,,,,,,,,,,2,left,,,,right,0,8.6755,0,56,56,56,1,2592380177-354629.jpg,2579432534-130704.jpg,,
,,,A2N1LD0IFPHF4B,25,FEMALE,8 hours,2022-10-06_06h54.49.183,memory_pilot_most_recent,2022.2.4,Win32,15.54533018,,,,,,,,,,,,,,,,,,,,,,,,,,,,,,,,,2,right,,,,left,0,0.0043,0,57,57,57,1,2868469411-287540.jpg,2901952513-70703.jpg,,
,,,A2N1LD0IFPHF4B,25,FEMALE,8 hours,2022-10-06_06h54.49.183,memory_pilot_most_recent,2022.2.4,Win32,15.54533018,,,,,,,,,,,,,,,,,,,,,,,,,,,,,,,,,3,left,,,,right,0,0.0875,0,58,58,58,1,2898624426-291546.jpg,2981235446-294900.jpg,,
,,,A2N1LD0IFPHF4B,25,FEMALE,8 hours,2022-10-06_06h54.49.183,memory_pilot_most_recent,2022.2.4,Win32,15.54533018,,,,,,,,,,,,,,,,,,,,,,,,,,,,,,,,,2,right,,,,left,0,0.076,0,59,59,59,1,2864900319-137787.jpg,2964216465-219242.jpg,,
,,,A2N1LD0IFPHF4B,25,FEMALE,8 hours,2022-10-06_06h54.49.183,memory_pilot_most_recent,2022.2.4,Win32,15.54533018,,,,,,,,,,,,,,,,,,,,,,,,,,,,,,,,,,,,,,,,,,,,,,,,space,45.7868
