,layer,correct,test_test_response.keys,test_test_response.corr,test_test_response.rt,trials_2.thisRepN,trials_2.thisTrialN,trials_2.thisN,trials_2.thisIndex,trials_2.ran,image1,image2,subject
0,2.0,right,right,1.0,2.2757,0.0,0.0,0.0,0.0,1.0,2417208001-267065.jpg,2901948350-218459.jpg,A10FSZLB75VZ14_2022-10-18_09h27.25.369.csv
1,3.0,left,left,1.0,1.2314,0.0,1.0,1.0,1.0,1.0,2883254439-140941.jpg,2981231446-294730.jpg,A10FSZLB75VZ14_2022-10-18_09h27.25.369.csv
2,2.0,left,left,1.0,1.3442,0.0,2.0,2.0,2.0,1.0,2898624426-291546.jpg,2981236443-71859.jpg,A10FSZLB75VZ14_2022-10-18_09h27.25.369.csv
3,2.0,left,left,1.0,1.2125,0.0,3.0,3.0,3.0,1.0,2864907432-362042.jpg,2901947423-70310.jpg,A10FSZLB75VZ14_2022-10-18_09h27.25.369.csv
4,3.0,right,right,1.0,17.3895,0.0,4.0,4.0,4.0,1.0,2898632385-217137.jpg,2449442529-124445.jpg,A10FSZLB75VZ14_2022-10-18_09h27.25.369.csv
5,3.0,right,right,1.0,1.7842,0.0,5.0,5.0,5.0,1.0,2981231446-294732.jpg,2964218374-144967.jpg,A10FSZLB75VZ14_2022-10-18_09h27.25.369.csv
6,2.0,right,right,1.0,2.1258,0.0,6.0,6.0,6.0,1.0,2901934408-69289.jpg,2898634397-367080.jpg,A10FSZLB75VZ14_2022-10-18_09h27.25.369.csv
7,2.0,right,right,1.0,1.4395,0.0,7.0,7.0,7.0,1.0,2238481198-19823.jpg,2874302418-65978.jpg,A10FSZLB75VZ14_2022-10-18_09h27.25.369.csv
8,3.0,left,left,1.0,1.7093,0.0,8.0,8.0,8.0,1.0,2874302418-65979.jpg,2238578544-111698.jpg,A10FSZLB75VZ14_2022-10-18_09h27.25.369.csv
9,2.0,left,left,1.0,1.274900001,0.0,9.0,9.0,9.0,1.0,2449441881-272368.jpg,2984615358-72439.jpg,A10FSZLB75VZ14_2022-10-18_09h27.25.369.csv
10,2.0,left,right,0.0,1.3795,0.0,10.0,10.0,10.0,1.0,2238580740-186218.jpg,2238521193-26285.jpg,A10FSZLB75VZ14_2022-10-18_09h27.25.369.csv
11,3.0,left,left,1.0,1.6433,0.0,11.0,11.0,11.0,1.0,2446759347-347016.jpg,2238569117-333045.jpg,A10FSZLB75VZ14_2022-10-18_09h27.25.369.csv
12,2.0,left,left,1.0,1.249400001,0.0,12.0,12.0,12.0,1.0,2512875899-126682.jpg,2592380177-354628.jpg,A10FSZLB75VZ14_2022-10-18_09h27.25.369.csv
13,3.0,right,left,0.0,1.2289,0.0,13.0,13.0,13.0,1.0,2901947323-70275.jpg,2874301407-363895.jpg,A10FSZLB75VZ14_2022-10-18_09h27.25.369.csv
14,3.0,right,right,1.0,1.3387,0.0,14.0,14.0,14.0,1.0,2864904453-63933.jpg,2883256307-365057.jpg,A10FSZLB75VZ14_2022-10-18_09h27.25.369.csv
15,3.0,left,left,1.0,1.7883,0.0,15.0,15.0,15.0,1.0,2986451363-73599.jpg,2238434559-90406.jpg,A10FSZLB75VZ14_2022-10-18_09h27.25.369.csv
16,2.0,right,right,1.0,1.2894,0.0,16.0,16.0,16.0,1.0,2864901386-286797.jpg,2592380177-354626.jpg,A10FSZLB75VZ14_2022-10-18_09h27.25.369.csv
17,2.0,right,left,0.0,1.3622,0.0,17.0,17.0,17.0,1.0,2874314526-289684.jpg,2238560245-182099.jpg,A10FSZLB75VZ14_2022-10-18_09h27.25.369.csv
18,1.0,left,left,1.0,1.315900001,0.0,18.0,18.0,18.0,1.0,2898635428-69104.jpg,2446759803-49250.jpg,A10FSZLB75VZ14_2022-10-18_09h27.25.369.csv
19,1.0,right,right,1.0,1.3162,0.0,19.0,19.0,19.0,1.0,2862691449-137104.jpg,2238481198-19822.jpg,A10FSZLB75VZ14_2022-10-18_09h27.25.369.csv
20,2.0,left,right,0.0,1.2559,0.0,20.0,20.0,20.0,1.0,2964223381-294447.jpg,2901941438-69836.jpg,A10FSZLB75VZ14_2022-10-18_09h27.25.369.csv
21,1.0,left,left,1.0,1.459,0.0,21.0,21.0,21.0,1.0,2901941401-292798.jpg,2898618327-366317.jpg,A10FSZLB75VZ14_2022-10-18_09h27.25.369.csv
22,3.0,right,left,0.0,1.7846,0.0,22.0,22.0,22.0,1.0,2427873763-47290.jpg,2981231403-71642.jpg,A10FSZLB75VZ14_2022-10-18_09h27.25.369.csv
23,1.0,left,left,1.0,1.4417,0.0,23.0,23.0,23.0,1.0,2898617468-68274.jpg,2864906345-212360.jpg,A10FSZLB75VZ14_2022-10-18_09h27.25.369.csv
24,3.0,left,left,1.0,1.581400001,0.0,24.0,24.0,24.0,1.0,2898618444-142233.jpg,2898618444-142232.jpg,A10FSZLB75VZ14_2022-10-18_09h27.25.369.csv
25,1.0,right,right,1.0,1.490700001,0.0,25.0,25.0,25.0,1.0,2609793677-355397.jpg,2874303365-214262.jpg,A10FSZLB75VZ14_2022-10-18_09h27.25.369.csv
26,3.0,right,right,1.0,1.4145,0.0,26.0,26.0,26.0,1.0,2512875587-350044.jpg,2592380177-354629.jpg,A10FSZLB75VZ14_2022-10-18_09h27.25.369.csv
27,2.0,left,right,0.0,1.687400001,0.0,27.0,27.0,27.0,1.0,2883268471-290842.jpg,2883255450-215310.jpg,A10FSZLB75VZ14_2022-10-18_09h27.25.369.csv
28,3.0,right,left,0.0,6.0843,0.0,28.0,28.0,28.0,1.0,2898619327-366362.jpg,2964216465-219242.jpg,A10FSZLB75VZ14_2022-10-18_09h27.25.369.csv
29,2.0,right,right,1.0,4.5645,0.0,29.0,29.0,29.0,1.0,2981232437-369759.jpg,2460547508-51571.jpg,A10FSZLB75VZ14_2022-10-18_09h27.25.369.csv
30,3.0,left,left,1.0,1.47,0.0,30.0,30.0,30.0,1.0,2964213381-294060.jpg,2964213381-294061.jpg,A10FSZLB75VZ14_2022-10-18_09h27.25.369.csv
31,1.0,left,left,1.0,1.4753,0.0,31.0,31.0,31.0,1.0,2446758985-197609.jpg,2981240424-145795.jpg,A10FSZLB75VZ14_2022-10-18_09h27.25.369.csv
32,2.0,left,right,0.0,1.8163,0.0,32.0,32.0,32.0,1.0,2901947423-70311.jpg,2238573447-333826.jpg,A10FSZLB75VZ14_2022-10-18_09h27.25.369.csv
33,2.0,right,right,1.0,1.3226,0.0,33.0,33.0,33.0,1.0,2868479517-363220.jpg,2898635427-367120.jpg,A10FSZLB75VZ14_2022-10-18_09h27.25.369.csv
34,1.0,right,right,1.0,1.1453,0.0,34.0,34.0,34.0,1.0,2898618440-216545.jpg,2460547467-349422.jpg,A10FSZLB75VZ14_2022-10-18_09h27.25.369.csv
35,1.0,left,left,1.0,1.619099999,0.0,35.0,35.0,35.0,1.0,2898618390-216538.jpg,2986449336-296644.jpg,A10FSZLB75VZ14_2022-10-18_09h27.25.369.csv
36,1.0,right,left,0.0,1.2217,0.0,36.0,36.0,36.0,1.0,2883266388-67750.jpg,2874299429-139695.jpg,A10FSZLB75VZ14_2022-10-18_09h27.25.369.csv
37,1.0,left,left,1.0,6.8433,0.0,37.0,37.0,37.0,1.0,2238480677-317399.jpg,2238481630-168218.jpg,A10FSZLB75VZ14_2022-10-18_09h27.25.369.csv
38,2.0,left,left,1.0,1.9428,0.0,38.0,38.0,38.0,1.0,2898633421-291973.jpg,2575118671-277663.jpg,A10FSZLB75VZ14_2022-10-18_09h27.25.369.csv
39,2.0,right,right,1.0,2.0477,0.0,39.0,39.0,39.0,1.0,2874299429-139694.jpg,2864910426-287204.jpg,A10FSZLB75VZ14_2022-10-18_09h27.25.369.csv
40,2.0,right,right,1.0,1.9289,0.0,40.0,40.0,40.0,1.0,2981229442-369621.jpg,2901939379-143480.jpg,A10FSZLB75VZ14_2022-10-18_09h27.25.369.csv
41,1.0,right,left,0.0,1.3839,0.0,41.0,41.0,41.0,1.0,2460547467-349423.jpg,2901939379-143479.jpg,A10FSZLB75VZ14_2022-10-18_09h27.25.369.csv
42,3.0,right,left,0.0,2.9232,0.0,42.0,42.0,42.0,1.0,2898633480-217190.jpg,2238425482-313537.jpg,A10FSZLB75VZ14_2022-10-18_09h27.25.369.csv
43,3.0,left,left,1.0,7.5733,0.0,43.0,43.0,43.0,1.0,2449442529-124446.jpg,2898632385-217139.jpg,A10FSZLB75VZ14_2022-10-18_09h27.25.369.csv
44,3.0,right,left,0.0,1.720599999,0.0,44.0,44.0,44.0,1.0,2901948383-70363.jpg,2868474407-362883.jpg,A10FSZLB75VZ14_2022-10-18_09h27.25.369.csv
45,1.0,left,left,1.0,1.8208,0.0,45.0,45.0,45.0,1.0,2460547467-349421.jpg,2898631394-142727.jpg,A10FSZLB75VZ14_2022-10-18_09h27.25.369.csv
46,3.0,left,left,1.0,1.643599999,0.0,46.0,46.0,46.0,1.0,2238481928-19949.jpg,2981241419-145844.jpg,A10FSZLB75VZ14_2022-10-18_09h27.25.369.csv
47,1.0,left,right,0.0,1.2883,0.0,47.0,47.0,47.0,1.0,2592379964-131054.jpg,2575963989-130576.jpg,A10FSZLB75VZ14_2022-10-18_09h27.25.369.csv
48,3.0,right,right,1.0,1.872299999,0.0,48.0,48.0,48.0,1.0,2575121987-353817.jpg,2238428357-313623.jpg,A10FSZLB75VZ14_2022-10-18_09h27.25.369.csv
49,2.0,left,left,1.0,1.348900001,0.0,49.0,49.0,49.0,1.0,2452381505-199546.jpg,2238567168-34916.jpg,A10FSZLB75VZ14_2022-10-18_09h27.25.369.csv
50,3.0,right,right,1.0,1.9924,0.0,50.0,50.0,50.0,1.0,2427873848-47312.jpg,2981241414-145842.jpg,A10FSZLB75VZ14_2022-10-18_09h27.25.369.csv
51,1.0,left,left,1.0,1.5264,0.0,51.0,51.0,51.0,1.0,2446759803-49249.jpg,2446760601-272099.jpg,A10FSZLB75VZ14_2022-10-18_09h27.25.369.csv
52,3.0,right,left,0.0,1.7656,0.0,52.0,52.0,52.0,1.0,2868474407-362885.jpg,2868475410-213219.jpg,A10FSZLB75VZ14_2022-10-18_09h27.25.369.csv
53,1.0,left,left,1.0,1.6357,0.0,53.0,53.0,53.0,1.0,2452380832-348593.jpg,2238328478-11678.jpg,A10FSZLB75VZ14_2022-10-18_09h27.25.369.csv
54,1.0,left,left,1.0,2.328099999,0.0,54.0,54.0,54.0,1.0,2575120738-55529.jpg,2898632385-217138.jpg,A10FSZLB75VZ14_2022-10-18_09h27.25.369.csv
55,1.0,left,left,1.0,2.2559,0.0,55.0,55.0,55.0,1.0,2238572663-35822.jpg,2986419333-73361.jpg,A10FSZLB75VZ14_2022-10-18_09h27.25.369.csv
56,1.0,right,left,0.0,1.7599,0.0,56.0,56.0,56.0,1.0,2986447306-296584.jpg,2874307433-66280.jpg,A10FSZLB75VZ14_2022-10-18_09h27.25.369.csv
57,1.0,right,left,0.0,2.0075,0.0,57.0,57.0,57.0,1.0,2864907361-287062.jpg,2901952513-70703.jpg,A10FSZLB75VZ14_2022-10-18_09h27.25.369.csv
58,2.0,left,left,1.0,1.6776,0.0,58.0,58.0,58.0,1.0,2458347385-199723.jpg,2427874554-121863.jpg,A10FSZLB75VZ14_2022-10-18_09h27.25.369.csv
59,1.0,left,left,1.0,1.661900001,0.0,59.0,59.0,59.0,1.0,2883268412-365898.jpg,2984626312-370849.jpg,A10FSZLB75VZ14_2022-10-18_09h27.25.369.csv
60,1.0,left,left,1.0,6.1879,0.0,0.0,0.0,0.0,1.0,2238480677-317399.jpg,2238481630-168218.jpg,AXTIQHZSLC0FE_2022-10-18_08h05.30.739.csv
61,3.0,left,left,1.0,3.6949,0.0,1.0,1.0,1.0,1.0,2458347385-199723.jpg,2458347252-348911.jpg,AXTIQHZSLC0FE_2022-10-18_08h05.30.739.csv
62,3.0,right,right,1.0,7.842,0.0,2.0,2.0,2.0,1.0,2238480803-19737.jpg,2238481198-19822.jpg,AXTIQHZSLC0FE_2022-10-18_08h05.30.739.csv
63,3.0,right,right,1.0,2.235,0.0,3.0,3.0,3.0,1.0,2238117096-228518.jpg,2592380177-354626.jpg,AXTIQHZSLC0FE_2022-10-18_08h05.30.739.csv
64,2.0,left,left,1.0,1.6053,0.0,4.0,4.0,4.0,1.0,2901952513-70703.jpg,2868469411-287540.jpg,AXTIQHZSLC0FE_2022-10-18_08h05.30.739.csv
65,2.0,left,left,1.0,2.3857,0.0,5.0,5.0,5.0,1.0,2901947423-70311.jpg,2238573447-333826.jpg,AXTIQHZSLC0FE_2022-10-18_08h05.30.739.csv
66,1.0,left,left,1.0,2.2162,0.0,6.0,6.0,6.0,1.0,2238428357-313623.jpg,2238499057-320266.jpg,AXTIQHZSLC0FE_2022-10-18_08h05.30.739.csv
67,3.0,right,right,1.0,2.3063,0.0,7.0,7.0,7.0,1.0,2981235446-294900.jpg,2898624426-291546.jpg,AXTIQHZSLC0FE_2022-10-18_08h05.30.739.csv
68,3.0,right,right,1.0,2.1875,0.0,8.0,8.0,8.0,1.0,2575120609-129862.jpg,2898618390-216538.jpg,AXTIQHZSLC0FE_2022-10-18_08h05.30.739.csv
69,1.0,left,left,1.0,2.431,0.0,9.0,9.0,9.0,1.0,2449441881-272368.jpg,2883268412-365899.jpg,AXTIQHZSLC0FE_2022-10-18_08h05.30.739.csv
70,3.0,left,left,1.0,2.9108,0.0,10.0,10.0,10.0,1.0,2901941401-292798.jpg,2883273443-68193.jpg,AXTIQHZSLC0FE_2022-10-18_08h05.30.739.csv
71,1.0,left,left,1.0,5.7849,0.0,11.0,11.0,11.0,1.0,2449442529-124445.jpg,2452380171-273112.jpg,AXTIQHZSLC0FE_2022-10-18_08h05.30.739.csv
72,1.0,left,left,1.0,2.0095,0.0,12.0,12.0,12.0,1.0,2898617468-68274.jpg,2864906345-212360.jpg,AXTIQHZSLC0FE_2022-10-18_08h05.30.739.csv
73,1.0,left,left,1.0,2.6682,0.0,13.0,13.0,13.0,1.0,2446759803-49249.jpg,2446760601-272099.jpg,AXTIQHZSLC0FE_2022-10-18_08h05.30.739.csv
74,3.0,left,left,1.0,3.6705,0.0,14.0,14.0,14.0,1.0,2460547508-51571.jpg,2901941438-69835.jpg,AXTIQHZSLC0FE_2022-10-18_08h05.30.739.csv
75,2.0,right,left,0.0,4.2718,0.0,15.0,15.0,15.0,1.0,2901947423-70310.jpg,2864907432-362042.jpg,AXTIQHZSLC0FE_2022-10-18_08h05.30.739.csv
76,1.0,left,left,1.0,2.4286,0.0,16.0,16.0,16.0,1.0,2460547467-349421.jpg,2898631394-142727.jpg,AXTIQHZSLC0FE_2022-10-18_08h05.30.739.csv
77,1.0,right,right,1.0,3.6954,0.0,17.0,17.0,17.0,1.0,2427874231-269884.jpg,2964223381-294447.jpg,AXTIQHZSLC0FE_2022-10-18_08h05.30.739.csv
78,2.0,left,left,1.0,2.9504,0.0,18.0,18.0,18.0,1.0,2238572663-35822.jpg,2238571930-184143.jpg,AXTIQHZSLC0FE_2022-10-18_08h05.30.739.csv
79,2.0,left,left,1.0,1.9092,0.0,19.0,19.0,19.0,1.0,2981231403-71642.jpg,2981244403-72215.jpg,AXTIQHZSLC0FE_2022-10-18_08h05.30.739.csv
80,2.0,left,left,1.0,2.1107,0.0,20.0,20.0,20.0,1.0,2964213381-294060.jpg,2458348012-349114.jpg,AXTIQHZSLC0FE_2022-10-18_08h05.30.739.csv
81,3.0,right,right,1.0,3.4048,0.0,21.0,21.0,21.0,1.0,2238578544-111698.jpg,2874302418-65979.jpg,AXTIQHZSLC0FE_2022-10-18_08h05.30.739.csv
82,2.0,left,left,1.0,2.4738,0.0,22.0,22.0,22.0,1.0,2452380832-348593.jpg,2238481813-19930.jpg,AXTIQHZSLC0FE_2022-10-18_08h05.30.739.csv
83,3.0,left,right,0.0,3.5594,0.0,23.0,23.0,23.0,1.0,2981241414-145842.jpg,2427873848-47312.jpg,AXTIQHZSLC0FE_2022-10-18_08h05.30.739.csv
84,1.0,right,right,1.0,3.3392,0.0,24.0,24.0,24.0,1.0,2901942428-69919.jpg,2901939379-143480.jpg,AXTIQHZSLC0FE_2022-10-18_08h05.30.739.csv
85,1.0,right,right,1.0,2.9445,0.0,25.0,25.0,25.0,1.0,2901946465-218350.jpg,2868475410-213219.jpg,AXTIQHZSLC0FE_2022-10-18_08h05.30.739.csv
86,3.0,left,left,1.0,1.9789,0.0,26.0,26.0,26.0,1.0,2898633421-291973.jpg,2238550049-105691.jpg,AXTIQHZSLC0FE_2022-10-18_08h05.30.739.csv
87,2.0,left,left,1.0,1.971,0.0,27.0,27.0,27.0,1.0,2449442529-124446.jpg,2460547536-274181.jpg,AXTIQHZSLC0FE_2022-10-18_08h05.30.739.csv
88,2.0,left,left,1.0,2.1253,0.0,28.0,28.0,28.0,1.0,2874301407-363895.jpg,2986397322-371109.jpg,AXTIQHZSLC0FE_2022-10-18_08h05.30.739.csv
89,1.0,left,left,1.0,6.7102,0.0,29.0,29.0,29.0,1.0,2874299429-139695.jpg,2883266388-67750.jpg,AXTIQHZSLC0FE_2022-10-18_08h05.30.739.csv
90,2.0,left,left,1.0,3.4003,0.0,30.0,30.0,30.0,1.0,2874303365-214262.jpg,2238563377-332054.jpg,AXTIQHZSLC0FE_2022-10-18_08h05.30.739.csv
91,1.0,left,left,1.0,1.8767,0.0,31.0,31.0,31.0,1.0,2883256307-365057.jpg,2611628310-206388.jpg,AXTIQHZSLC0FE_2022-10-18_08h05.30.739.csv
92,2.0,left,left,1.0,3.1629,0.0,32.0,32.0,32.0,1.0,2238481928-19949.jpg,2864900357-361688.jpg,AXTIQHZSLC0FE_2022-10-18_08h05.30.739.csv
93,1.0,left,left,1.0,3.7813,0.0,33.0,33.0,33.0,1.0,2901948350-218459.jpg,2804906319-133082.jpg,AXTIQHZSLC0FE_2022-10-18_08h05.30.739.csv
94,2.0,left,right,0.0,4.7747,0.0,34.0,34.0,34.0,1.0,2238560245-182099.jpg,2874314526-289684.jpg,AXTIQHZSLC0FE_2022-10-18_08h05.30.739.csv
95,3.0,right,right,1.0,2.9096,0.0,35.0,35.0,35.0,1.0,2864909447-362146.jpg,2460547467-349422.jpg,AXTIQHZSLC0FE_2022-10-18_08h05.30.739.csv
96,3.0,right,right,1.0,2.3802,0.0,36.0,36.0,36.0,1.0,2898621427-366486.jpg,2898635427-367120.jpg,AXTIQHZSLC0FE_2022-10-18_08h05.30.739.csv
97,2.0,right,right,1.0,2.2129,0.0,37.0,37.0,37.0,1.0,2874299429-139694.jpg,2864910426-287204.jpg,AXTIQHZSLC0FE_2022-10-18_08h05.30.739.csv
98,3.0,right,right,1.0,2.187,0.0,38.0,38.0,38.0,1.0,2898625336-291572.jpg,2898635428-69104.jpg,AXTIQHZSLC0FE_2022-10-18_08h05.30.739.csv
99,1.0,left,left,1.0,1.4752,0.0,39.0,39.0,39.0,1.0,2901939379-143479.jpg,2460547467-349423.jpg,AXTIQHZSLC0FE_2022-10-18_08h05.30.739.csv
100,3.0,left,right,0.0,3.7753,0.0,40.0,40.0,40.0,1.0,2868474407-362883.jpg,2901948383-70363.jpg,AXTIQHZSLC0FE_2022-10-18_08h05.30.739.csv
101,2.0,left,left,1.0,2.2325,0.0,41.0,41.0,41.0,1.0,2898634397-367080.jpg,2901934408-69289.jpg,AXTIQHZSLC0FE_2022-10-18_08h05.30.739.csv
102,3.0,right,left,0.0,2.4695,0.0,42.0,42.0,42.0,1.0,2964220333-71258.jpg,2238580740-186218.jpg,AXTIQHZSLC0FE_2022-10-18_08h05.30.739.csv
103,2.0,left,left,1.0,2.5502,0.0,43.0,43.0,43.0,1.0,2512875899-126682.jpg,2592380177-354628.jpg,AXTIQHZSLC0FE_2022-10-18_08h05.30.739.csv
104,3.0,right,right,1.0,3.3831,0.0,44.0,44.0,44.0,1.0,2898618444-142232.jpg,2898618444-142233.jpg,AXTIQHZSLC0FE_2022-10-18_08h05.30.739.csv
105,2.0,right,right,1.0,2.1993,0.0,45.0,45.0,45.0,1.0,2883254439-140940.jpg,2964218374-144967.jpg,AXTIQHZSLC0FE_2022-10-18_08h05.30.739.csv
106,2.0,right,right,1.0,2.6716,0.0,46.0,46.0,46.0,1.0,2898632385-217136.jpg,2883254439-140941.jpg,AXTIQHZSLC0FE_2022-10-18_08h05.30.739.csv
107,3.0,right,right,1.0,2.9688,0.0,47.0,47.0,47.0,1.0,2898633480-217190.jpg,2238425482-313537.jpg,AXTIQHZSLC0FE_2022-10-18_08h05.30.739.csv
108,1.0,right,right,1.0,2.1023,0.0,48.0,48.0,48.0,1.0,2883268471-290843.jpg,2883268471-290842.jpg,AXTIQHZSLC0FE_2022-10-18_08h05.30.739.csv
109,1.0,left,left,1.0,2.3562,0.0,49.0,49.0,49.0,1.0,2986451363-73599.jpg,2901939327-367669.jpg,AXTIQHZSLC0FE_2022-10-18_08h05.30.739.csv
110,1.0,left,left,1.0,2.1996,0.0,50.0,50.0,50.0,1.0,2446758985-197609.jpg,2981240424-145795.jpg,AXTIQHZSLC0FE_2022-10-18_08h05.30.739.csv
111,2.0,right,right,1.0,1.7286,0.0,51.0,51.0,51.0,1.0,2238479053-19457.jpg,2592379964-131054.jpg,AXTIQHZSLC0FE_2022-10-18_08h05.30.739.csv
112,1.0,left,right,0.0,2.1841,0.0,52.0,52.0,52.0,1.0,2452381505-199546.jpg,2901938432-367627.jpg,AXTIQHZSLC0FE_2022-10-18_08h05.30.739.csv
113,3.0,right,right,1.0,1.9828,0.0,53.0,53.0,53.0,1.0,2238531493-28260.jpg,2575120738-55529.jpg,AXTIQHZSLC0FE_2022-10-18_08h05.30.739.csv
114,3.0,right,right,1.0,2.4746,0.0,54.0,54.0,54.0,1.0,2898619327-366362.jpg,2964216465-219242.jpg,AXTIQHZSLC0FE_2022-10-18_08h05.30.739.csv
115,1.0,left,left,1.0,3.0764,0.0,55.0,55.0,55.0,1.0,2874302418-65978.jpg,2898626385-216899.jpg,AXTIQHZSLC0FE_2022-10-18_08h05.30.739.csv
116,3.0,left,right,0.0,6.657,0.0,56.0,56.0,56.0,1.0,2446759347-347016.jpg,2238569117-333045.jpg,AXTIQHZSLC0FE_2022-10-18_08h05.30.739.csv
117,2.0,right,right,1.0,4.1414,0.0,57.0,57.0,57.0,1.0,2984615361-295510.jpg,2883268412-365898.jpg,AXTIQHZSLC0FE_2022-10-18_08h05.30.739.csv
118,1.0,left,left,1.0,2.4772,0.0,58.0,58.0,58.0,1.0,2874307433-66280.jpg,2986447306-296584.jpg,AXTIQHZSLC0FE_2022-10-18_08h05.30.739.csv
119,2.0,left,left,1.0,1.9028,0.0,59.0,59.0,59.0,1.0,2592380177-354629.jpg,2579432534-130704.jpg,AXTIQHZSLC0FE_2022-10-18_08h05.30.739.csv
120,2.0,left,right,0.0,1.2288,0.0,0.0,0.0,0.0,1.0,2898618390-216538.jpg,2901939327-367670.jpg,ARIWYNIH12MLF_2022-10-18_08h12.13.730.csv
121,2.0,right,right,1.0,1.086,0.0,1.0,1.0,1.0,1.0,2901943387-368037.jpg,2898617468-68274.jpg,ARIWYNIH12MLF_2022-10-18_08h12.13.730.csv
122,1.0,left,left,1.0,0.9586,0.0,2.0,2.0,2.0,1.0,2874302418-65979.jpg,2413147898-43548.jpg,ARIWYNIH12MLF_2022-10-18_08h12.13.730.csv
123,2.0,left,left,1.0,2.0229,0.0,3.0,3.0,3.0,1.0,2458347385-199723.jpg,2427874554-121863.jpg,ARIWYNIH12MLF_2022-10-18_08h12.13.730.csv
124,3.0,left,right,0.0,0.9138,0.0,4.0,4.0,4.0,1.0,2238425482-313537.jpg,2898633480-217190.jpg,ARIWYNIH12MLF_2022-10-18_08h12.13.730.csv
125,2.0,right,right,1.0,2.0008,0.0,5.0,5.0,5.0,1.0,2874314526-289684.jpg,2238560245-182099.jpg,ARIWYNIH12MLF_2022-10-18_08h12.13.730.csv
126,3.0,right,left,0.0,1.2292,0.0,6.0,6.0,6.0,1.0,2864904453-63933.jpg,2883256307-365057.jpg,ARIWYNIH12MLF_2022-10-18_08h12.13.730.csv
127,1.0,right,left,0.0,1.2637,0.0,7.0,7.0,7.0,1.0,2237944827-301472.jpg,2898634397-367080.jpg,ARIWYNIH12MLF_2022-10-18_08h12.13.730.csv
128,1.0,left,left,1.0,0.7744,0.0,8.0,8.0,8.0,1.0,2446758985-197609.jpg,2981240424-145795.jpg,ARIWYNIH12MLF_2022-10-18_08h12.13.730.csv
129,2.0,left,right,0.0,1.1798,0.0,9.0,9.0,9.0,1.0,2964216465-219242.jpg,2864900319-137787.jpg,ARIWYNIH12MLF_2022-10-18_08h12.13.730.csv
130,3.0,left,left,1.0,0.919,0.0,10.0,10.0,10.0,1.0,2460547508-51571.jpg,2901941438-69835.jpg,ARIWYNIH12MLF_2022-10-18_08h12.13.730.csv
131,2.0,right,right,1.0,1.3361,0.0,11.0,11.0,11.0,1.0,2898618440-216547.jpg,2446759803-49249.jpg,ARIWYNIH12MLF_2022-10-18_08h12.13.730.csv
132,1.0,left,left,1.0,1.5872,0.0,12.0,12.0,12.0,1.0,2460547467-349421.jpg,2898631394-142727.jpg,ARIWYNIH12MLF_2022-10-18_08h12.13.730.csv
133,1.0,left,left,1.0,1.2416,0.0,13.0,13.0,13.0,1.0,2864907432-362042.jpg,2864901420-212147.jpg,ARIWYNIH12MLF_2022-10-18_08h12.13.730.csv
134,1.0,right,right,1.0,2.1393,0.0,14.0,14.0,14.0,1.0,2860312398-62572.jpg,2901947423-70311.jpg,ARIWYNIH12MLF_2022-10-18_08h12.13.730.csv
135,3.0,right,left,0.0,0.6773,0.0,15.0,15.0,15.0,1.0,2868474407-362885.jpg,2868475410-213219.jpg,ARIWYNIH12MLF_2022-10-18_08h12.13.730.csv
136,1.0,right,right,1.0,1.0171,0.0,16.0,16.0,16.0,1.0,2986447306-296584.jpg,2874307433-66280.jpg,ARIWYNIH12MLF_2022-10-18_08h12.13.730.csv
137,3.0,left,left,1.0,1.9072,0.0,17.0,17.0,17.0,1.0,2449442529-124445.jpg,2898632385-217137.jpg,ARIWYNIH12MLF_2022-10-18_08h12.13.730.csv
138,3.0,left,left,1.0,1.3637,0.0,18.0,18.0,18.0,1.0,2898635428-69104.jpg,2898625336-291572.jpg,ARIWYNIH12MLF_2022-10-18_08h12.13.730.csv
139,1.0,right,right,1.0,1.7841,0.0,19.0,19.0,19.0,1.0,2238516618-25604.jpg,2868474407-362883.jpg,ARIWYNIH12MLF_2022-10-18_08h12.13.730.csv
140,3.0,right,right,1.0,1.438,0.0,20.0,20.0,20.0,1.0,2901939433-69672.jpg,2864910426-287204.jpg,ARIWYNIH12MLF_2022-10-18_08h12.13.730.csv
141,3.0,left,right,0.0,1.2095,0.0,21.0,21.0,21.0,1.0,2874301407-363895.jpg,2901947323-70275.jpg,ARIWYNIH12MLF_2022-10-18_08h12.13.730.csv
142,2.0,left,left,1.0,0.7919,0.0,22.0,22.0,22.0,1.0,2460547467-349422.jpg,2868487415-213924.jpg,ARIWYNIH12MLF_2022-10-18_08h12.13.730.csv
143,2.0,left,left,1.0,2.2478,0.0,23.0,23.0,23.0,1.0,2898635427-367120.jpg,2868479517-363220.jpg,ARIWYNIH12MLF_2022-10-18_08h12.13.730.csv
144,1.0,left,left,1.0,2.3076,0.0,24.0,24.0,24.0,1.0,2898618444-142233.jpg,2898631359-142721.jpg,ARIWYNIH12MLF_2022-10-18_08h12.13.730.csv
145,2.0,left,left,1.0,1.2777,0.0,25.0,25.0,25.0,1.0,2452381505-199546.jpg,2238567168-34916.jpg,ARIWYNIH12MLF_2022-10-18_08h12.13.730.csv
146,3.0,left,right,0.0,1.8368,0.0,26.0,26.0,26.0,1.0,2238481198-19822.jpg,2238480803-19737.jpg,ARIWYNIH12MLF_2022-10-18_08h12.13.730.csv
147,2.0,left,left,1.0,1.3214,0.0,27.0,27.0,27.0,1.0,2986451363-73599.jpg,2860302315-210704.jpg,ARIWYNIH12MLF_2022-10-18_08h12.13.730.csv
148,1.0,left,left,1.0,2.1522,0.0,28.0,28.0,28.0,1.0,2883268412-365898.jpg,2984626312-370849.jpg,ARIWYNIH12MLF_2022-10-18_08h12.13.730.csv
149,3.0,right,right,1.0,1.5011,0.0,29.0,29.0,29.0,1.0,2449442181-272436.jpg,2452380832-348593.jpg,ARIWYNIH12MLF_2022-10-18_08h12.13.730.csv
150,3.0,right,left,0.0,1.9791,0.0,30.0,30.0,30.0,1.0,2901947448-70314.jpg,2883268471-290842.jpg,ARIWYNIH12MLF_2022-10-18_08h12.13.730.csv
151,1.0,right,left,0.0,0.9848,0.0,31.0,31.0,31.0,1.0,2460547536-274179.jpg,2512875899-126682.jpg,ARIWYNIH12MLF_2022-10-18_08h12.13.730.csv
152,2.0,left,right,0.0,1.4542,0.0,32.0,32.0,32.0,1.0,2964213381-294060.jpg,2458348012-349114.jpg,ARIWYNIH12MLF_2022-10-18_08h12.13.730.csv
153,3.0,left,left,1.0,1.0444,0.0,33.0,33.0,33.0,1.0,2592379964-131054.jpg,2592380272-354673.jpg,ARIWYNIH12MLF_2022-10-18_08h12.13.730.csv
154,2.0,right,left,0.0,1.203,0.0,34.0,34.0,34.0,1.0,2984615361-295509.jpg,2238428357-313623.jpg,ARIWYNIH12MLF_2022-10-18_08h12.13.730.csv
155,1.0,left,left,1.0,1.6778,0.0,35.0,35.0,35.0,1.0,2238580740-186218.jpg,2238550816-254000.jpg,ARIWYNIH12MLF_2022-10-18_08h12.13.730.csv
156,3.0,left,left,1.0,1.1871,0.0,36.0,36.0,36.0,1.0,2901952513-70703.jpg,2238481198-19821.jpg,ARIWYNIH12MLF_2022-10-18_08h12.13.730.csv
157,3.0,right,left,0.0,1.2721,0.0,37.0,37.0,37.0,1.0,2981246360-220352.jpg,2901948350-218459.jpg,ARIWYNIH12MLF_2022-10-18_08h12.13.730.csv
158,2.0,right,right,1.0,2.4011,0.0,38.0,38.0,38.0,1.0,2874301404-139813.jpg,2981241414-145842.jpg,ARIWYNIH12MLF_2022-10-18_08h12.13.730.csv
159,1.0,left,right,0.0,0.8488,0.0,39.0,39.0,39.0,1.0,2901941401-292798.jpg,2898618327-366317.jpg,ARIWYNIH12MLF_2022-10-18_08h12.13.730.csv
160,2.0,left,left,1.0,0.8311,0.0,40.0,40.0,40.0,1.0,2883254439-140941.jpg,2898632385-217136.jpg,ARIWYNIH12MLF_2022-10-18_08h12.13.730.csv
161,2.0,right,right,1.0,1.5616,0.0,41.0,41.0,41.0,1.0,2446758985-197610.jpg,2901939379-143479.jpg,ARIWYNIH12MLF_2022-10-18_08h12.13.730.csv
162,2.0,left,right,0.0,2.2051,0.0,42.0,42.0,42.0,1.0,2238481928-19949.jpg,2864900357-361688.jpg,ARIWYNIH12MLF_2022-10-18_08h12.13.730.csv
163,3.0,left,right,0.0,1.5343,0.0,43.0,43.0,43.0,1.0,2238480677-317399.jpg,2238480278-19661.jpg,ARIWYNIH12MLF_2022-10-18_08h12.13.730.csv
164,3.0,right,right,1.0,0.9529,0.0,44.0,44.0,44.0,1.0,2898628438-68785.jpg,2964223381-294447.jpg,ARIWYNIH12MLF_2022-10-18_08h12.13.730.csv
165,2.0,left,left,1.0,0.8624,0.0,45.0,45.0,45.0,1.0,2575120738-55529.jpg,2575120738-55528.jpg,ARIWYNIH12MLF_2022-10-18_08h12.13.730.csv
166,3.0,left,right,0.0,1.64,0.0,46.0,46.0,46.0,1.0,2898633421-291973.jpg,2238550049-105691.jpg,ARIWYNIH12MLF_2022-10-18_08h12.13.730.csv
167,2.0,left,right,0.0,0.7739,0.0,47.0,47.0,47.0,1.0,2874299429-139695.jpg,2901942443-69923.jpg,ARIWYNIH12MLF_2022-10-18_08h12.13.730.csv
168,3.0,right,right,1.0,0.7326,0.0,48.0,48.0,48.0,1.0,2901938432-367629.jpg,2901939379-143480.jpg,ARIWYNIH12MLF_2022-10-18_08h12.13.730.csv
169,1.0,right,left,0.0,1.7504,0.0,49.0,49.0,49.0,1.0,2964224310-219528.jpg,2446759347-347016.jpg,ARIWYNIH12MLF_2022-10-18_08h12.13.730.csv
170,1.0,left,right,0.0,1.3719,0.0,50.0,50.0,50.0,1.0,2238572663-35822.jpg,2986419333-73361.jpg,ARIWYNIH12MLF_2022-10-18_08h12.13.730.csv
171,1.0,right,right,1.0,2.1473,0.0,51.0,51.0,51.0,1.0,2446759803-49251.jpg,2449442529-124446.jpg,ARIWYNIH12MLF_2022-10-18_08h12.13.730.csv
172,2.0,right,right,1.0,1.6272,0.0,52.0,52.0,52.0,1.0,2883254439-140940.jpg,2964218374-144967.jpg,ARIWYNIH12MLF_2022-10-18_08h12.13.730.csv
173,3.0,left,left,1.0,0.9536,0.0,53.0,53.0,53.0,1.0,2874302418-65978.jpg,2898633321-291943.jpg,ARIWYNIH12MLF_2022-10-18_08h12.13.730.csv
174,1.0,right,right,1.0,0.9556,0.0,54.0,54.0,54.0,1.0,2274829821-263682.jpg,2981231403-71642.jpg,ARIWYNIH12MLF_2022-10-18_08h12.13.730.csv
175,3.0,left,left,1.0,2.2618,0.0,55.0,55.0,55.0,1.0,2592380177-354626.jpg,2238117096-228518.jpg,ARIWYNIH12MLF_2022-10-18_08h12.13.730.csv
176,1.0,right,right,1.0,2.5173,0.0,56.0,56.0,56.0,1.0,2964218432-369263.jpg,2898624426-291546.jpg,ARIWYNIH12MLF_2022-10-18_08h12.13.730.csv
177,1.0,right,left,0.0,1.5793,0.0,57.0,57.0,57.0,1.0,2883268412-365899.jpg,2449441881-272368.jpg,ARIWYNIH12MLF_2022-10-18_08h12.13.730.csv
178,1.0,left,left,1.0,2.6911,0.0,58.0,58.0,58.0,1.0,2592380177-354629.jpg,2898633421-291974.jpg,ARIWYNIH12MLF_2022-10-18_08h12.13.730.csv
179,2.0,right,right,1.0,1.1666,0.0,59.0,59.0,59.0,1.0,2238563377-332054.jpg,2874303365-214262.jpg,ARIWYNIH12MLF_2022-10-18_08h12.13.730.csv
180,1.0,right,right,1.0,1.3041,0.0,0.0,0.0,0.0,1.0,2804906319-133082.jpg,2901948350-218459.jpg,A3J4YYW1M62T39_2022-10-18_08h33.40.910.csv
181,2.0,left,left,1.0,1.2811,0.0,1.0,1.0,1.0,1.0,2868474407-362883.jpg,2981246400-220363.jpg,A3J4YYW1M62T39_2022-10-18_08h33.40.910.csv
182,2.0,right,left,0.0,1.427,0.0,2.0,2.0,2.0,1.0,2964210336-293945.jpg,2883256307-365057.jpg,A3J4YYW1M62T39_2022-10-18_08h33.40.910.csv
183,2.0,left,left,1.0,1.2998,0.0,3.0,3.0,3.0,1.0,2883268412-365898.jpg,2984615361-295510.jpg,A3J4YYW1M62T39_2022-10-18_08h33.40.910.csv
184,2.0,left,left,1.0,2.3429,0.0,4.0,4.0,4.0,1.0,2446759803-49249.jpg,2898618440-216547.jpg,A3J4YYW1M62T39_2022-10-18_08h33.40.910.csv
185,2.0,right,right,1.0,1.1778,0.0,5.0,5.0,5.0,1.0,2458348012-349114.jpg,2964213381-294060.jpg,A3J4YYW1M62T39_2022-10-18_08h33.40.910.csv
186,3.0,right,right,1.0,1.6695,0.0,6.0,6.0,6.0,1.0,2964220333-71258.jpg,2238580740-186218.jpg,A3J4YYW1M62T39_2022-10-18_08h33.40.910.csv
187,3.0,left,left,1.0,1.3069,0.0,7.0,7.0,7.0,1.0,2964223381-294447.jpg,2898628438-68785.jpg,A3J4YYW1M62T39_2022-10-18_08h33.40.910.csv
188,3.0,right,right,1.0,2.4948,0.0,8.0,8.0,8.0,1.0,2238569117-333045.jpg,2446759347-347016.jpg,A3J4YYW1M62T39_2022-10-18_08h33.40.910.csv
189,3.0,right,right,1.0,2.102,0.0,9.0,9.0,9.0,1.0,2986447332-371497.jpg,2512875899-126682.jpg,A3J4YYW1M62T39_2022-10-18_08h33.40.910.csv
190,2.0,right,right,1.0,1.506,0.0,10.0,10.0,10.0,1.0,2901943387-368037.jpg,2898617468-68274.jpg,A3J4YYW1M62T39_2022-10-18_08h33.40.910.csv
191,2.0,left,left,1.0,1.5164,0.0,11.0,11.0,11.0,1.0,2238560245-182099.jpg,2874314526-289684.jpg,A3J4YYW1M62T39_2022-10-18_08h33.40.910.csv
192,2.0,right,right,1.0,1.5583,0.0,12.0,12.0,12.0,1.0,2883254439-140940.jpg,2964218374-144967.jpg,A3J4YYW1M62T39_2022-10-18_08h33.40.910.csv
193,1.0,right,right,1.0,1.1844,0.0,13.0,13.0,13.0,1.0,2460547467-349423.jpg,2901939379-143479.jpg,A3J4YYW1M62T39_2022-10-18_08h33.40.910.csv
194,3.0,left,left,1.0,1.0682,0.0,14.0,14.0,14.0,1.0,2452380832-348593.jpg,2449442181-272436.jpg,A3J4YYW1M62T39_2022-10-18_08h33.40.910.csv
195,2.0,right,right,1.0,1.4136,0.0,15.0,15.0,15.0,1.0,2901942443-69923.jpg,2874299429-139695.jpg,A3J4YYW1M62T39_2022-10-18_08h33.40.910.csv
196,2.0,right,right,1.0,1.0682,0.0,16.0,16.0,16.0,1.0,2238573546-258454.jpg,2238480677-317399.jpg,A3J4YYW1M62T39_2022-10-18_08h33.40.910.csv
197,1.0,right,right,1.0,1.0638,0.0,17.0,17.0,17.0,1.0,2856919327-359676.jpg,2981241414-145842.jpg,A3J4YYW1M62T39_2022-10-18_08h33.40.910.csv
198,1.0,left,right,0.0,1.419,0.0,18.0,18.0,18.0,1.0,2898635428-69104.jpg,2446759803-49250.jpg,A3J4YYW1M62T39_2022-10-18_08h33.40.910.csv
199,3.0,left,left,1.0,1.3273,0.0,19.0,19.0,19.0,1.0,2868475410-213219.jpg,2868474407-362885.jpg,A3J4YYW1M62T39_2022-10-18_08h33.40.910.csv
200,3.0,left,right,0.0,1.2952,0.0,20.0,20.0,20.0,1.0,2874302418-65978.jpg,2898633321-291943.jpg,A3J4YYW1M62T39_2022-10-18_08h33.40.910.csv
201,1.0,left,left,1.0,1.1794,0.0,21.0,21.0,21.0,1.0,2238428357-313623.jpg,2238499057-320266.jpg,A3J4YYW1M62T39_2022-10-18_08h33.40.910.csv
202,3.0,right,right,1.0,1.4737,0.0,22.0,22.0,22.0,1.0,2898633480-217190.jpg,2238425482-313537.jpg,A3J4YYW1M62T39_2022-10-18_08h33.40.910.csv
203,3.0,left,right,0.0,1.6886,0.0,23.0,23.0,23.0,1.0,2449441881-272368.jpg,2449441881-272367.jpg,A3J4YYW1M62T39_2022-10-18_08h33.40.910.csv
204,2.0,left,left,1.0,1.6388,0.0,24.0,24.0,24.0,1.0,2460547508-51571.jpg,2981232437-369759.jpg,A3J4YYW1M62T39_2022-10-18_08h33.40.910.csv
205,1.0,left,right,0.0,2.229,0.0,25.0,25.0,25.0,1.0,2460547467-349422.jpg,2898618440-216545.jpg,A3J4YYW1M62T39_2022-10-18_08h33.40.910.csv
206,2.0,right,left,0.0,1.6677,0.0,26.0,26.0,26.0,1.0,2981244403-72215.jpg,2981231403-71642.jpg,A3J4YYW1M62T39_2022-10-18_08h33.40.910.csv
207,1.0,left,left,1.0,1.6854,0.0,27.0,27.0,27.0,1.0,2592380177-354629.jpg,2898633421-291974.jpg,A3J4YYW1M62T39_2022-10-18_08h33.40.910.csv
208,1.0,left,left,1.0,1.1038,0.0,28.0,28.0,28.0,1.0,2898618444-142233.jpg,2898631359-142721.jpg,A3J4YYW1M62T39_2022-10-18_08h33.40.910.csv
209,1.0,right,right,1.0,1.6574,0.0,29.0,29.0,29.0,1.0,2512876023-52283.jpg,2898633421-291973.jpg,A3J4YYW1M62T39_2022-10-18_08h33.40.910.csv
210,2.0,left,right,0.0,1.5437,0.0,30.0,30.0,30.0,1.0,2874303365-214262.jpg,2238563377-332054.jpg,A3J4YYW1M62T39_2022-10-18_08h33.40.910.csv
211,3.0,left,left,1.0,1.8962,0.0,31.0,31.0,31.0,1.0,2898634397-367080.jpg,2964217461-294238.jpg,A3J4YYW1M62T39_2022-10-18_08h33.40.910.csv
212,3.0,right,right,1.0,1.1823,0.0,32.0,32.0,32.0,1.0,2901938432-367629.jpg,2901939379-143480.jpg,A3J4YYW1M62T39_2022-10-18_08h33.40.910.csv
213,1.0,left,left,1.0,1.3016,0.0,33.0,33.0,33.0,1.0,2592380177-354626.jpg,2986408339-146952.jpg,A3J4YYW1M62T39_2022-10-18_08h33.40.910.csv
214,2.0,right,right,1.0,1.409,0.0,34.0,34.0,34.0,1.0,2868479517-363220.jpg,2898635427-367120.jpg,A3J4YYW1M62T39_2022-10-18_08h33.40.910.csv
215,2.0,left,right,0.0,1.4165,0.0,35.0,35.0,35.0,1.0,2238481198-19822.jpg,2901946436-293242.jpg,A3J4YYW1M62T39_2022-10-18_08h33.40.910.csv
216,1.0,right,right,1.0,1.7882,0.0,36.0,36.0,36.0,1.0,2452380171-273112.jpg,2449442529-124445.jpg,A3J4YYW1M62T39_2022-10-18_08h33.40.910.csv
217,2.0,right,right,1.0,1.196,0.0,37.0,37.0,37.0,1.0,2238479053-19457.jpg,2592379964-131054.jpg,A3J4YYW1M62T39_2022-10-18_08h33.40.910.csv
218,2.0,left,left,1.0,1.4412,0.0,38.0,38.0,38.0,1.0,2458347385-199723.jpg,2427874554-121863.jpg,A3J4YYW1M62T39_2022-10-18_08h33.40.910.csv
219,1.0,right,right,1.0,1.5668,0.0,39.0,39.0,39.0,1.0,2864907361-287062.jpg,2901952513-70703.jpg,A3J4YYW1M62T39_2022-10-18_08h33.40.910.csv
220,3.0,right,right,1.0,1.5843,0.0,40.0,40.0,40.0,1.0,2898632385-217139.jpg,2449442529-124446.jpg,A3J4YYW1M62T39_2022-10-18_08h33.40.910.csv
221,3.0,left,right,0.0,1.2118,0.0,41.0,41.0,41.0,1.0,2238572663-35822.jpg,2864903351-286874.jpg,A3J4YYW1M62T39_2022-10-18_08h33.40.910.csv
222,3.0,right,right,1.0,1.4118,0.0,42.0,42.0,42.0,1.0,2883273443-68193.jpg,2901941401-292798.jpg,A3J4YYW1M62T39_2022-10-18_08h33.40.910.csv
223,1.0,right,left,0.0,1.4171,0.0,43.0,43.0,43.0,1.0,2964218432-369263.jpg,2898624426-291546.jpg,A3J4YYW1M62T39_2022-10-18_08h33.40.910.csv
224,3.0,right,left,0.0,1.4262,0.0,44.0,44.0,44.0,1.0,2901939433-69672.jpg,2864910426-287204.jpg,A3J4YYW1M62T39_2022-10-18_08h33.40.910.csv
225,1.0,left,left,1.0,1.6522,0.0,45.0,45.0,45.0,1.0,2446758985-197609.jpg,2981240424-145795.jpg,A3J4YYW1M62T39_2022-10-18_08h33.40.910.csv
226,2.0,left,right,0.0,1.8104,0.0,46.0,46.0,46.0,1.0,2901947423-70311.jpg,2238573447-333826.jpg,A3J4YYW1M62T39_2022-10-18_08h33.40.910.csv
227,3.0,right,left,0.0,1.783,0.0,47.0,47.0,47.0,1.0,2981231446-294730.jpg,2883254439-140941.jpg,A3J4YYW1M62T39_2022-10-18_08h33.40.910.csv
228,2.0,left,left,1.0,2.0517,0.0,48.0,48.0,48.0,1.0,2874301407-363895.jpg,2986397322-371109.jpg,A3J4YYW1M62T39_2022-10-18_08h33.40.910.csv
229,1.0,right,right,1.0,1.3094,0.0,49.0,49.0,49.0,1.0,2898632385-217138.jpg,2575120738-55529.jpg,A3J4YYW1M62T39_2022-10-18_08h33.40.910.csv
230,1.0,right,right,1.0,1.7918,0.0,50.0,50.0,50.0,1.0,2986447306-296584.jpg,2874307433-66280.jpg,A3J4YYW1M62T39_2022-10-18_08h33.40.910.csv
231,3.0,left,left,1.0,4.544,0.0,51.0,51.0,51.0,1.0,2864907432-362042.jpg,2989726338-74002.jpg,A3J4YYW1M62T39_2022-10-18_08h33.40.910.csv
232,1.0,left,left,1.0,1.7946,0.0,52.0,52.0,52.0,1.0,2883268471-290842.jpg,2883268471-290843.jpg,A3J4YYW1M62T39_2022-10-18_08h33.40.910.csv
233,3.0,right,left,0.0,1.4539,0.0,53.0,53.0,53.0,1.0,2898619327-366362.jpg,2964216465-219242.jpg,A3J4YYW1M62T39_2022-10-18_08h33.40.910.csv
234,3.0,right,left,0.0,1.4251,0.0,54.0,54.0,54.0,1.0,2981235446-294901.jpg,2460547467-349421.jpg,A3J4YYW1M62T39_2022-10-18_08h33.40.910.csv
235,1.0,right,right,1.0,1.3192,0.0,55.0,55.0,55.0,1.0,2901939327-367669.jpg,2986451363-73599.jpg,A3J4YYW1M62T39_2022-10-18_08h33.40.910.csv
236,1.0,right,right,1.0,2.0446,0.0,56.0,56.0,56.0,1.0,2883264367-365620.jpg,2238481928-19949.jpg,A3J4YYW1M62T39_2022-10-18_08h33.40.910.csv
237,3.0,right,right,1.0,1.2783,0.0,57.0,57.0,57.0,1.0,2238578544-111698.jpg,2874302418-65979.jpg,A3J4YYW1M62T39_2022-10-18_08h33.40.910.csv
238,2.0,right,right,1.0,2.2056,0.0,58.0,58.0,58.0,1.0,2901939327-367670.jpg,2898618390-216538.jpg,A3J4YYW1M62T39_2022-10-18_08h33.40.910.csv
239,1.0,left,left,1.0,1.3141,0.0,59.0,59.0,59.0,1.0,2452381505-199546.jpg,2901938432-367627.jpg,A3J4YYW1M62T39_2022-10-18_08h33.40.910.csv
240,3.0,left,left,1.0,2.0265,0.0,0.0,0.0,0.0,1.0,2460547467-349422.jpg,2864909447-362146.jpg,A34Z9LMI089LMT_2022-10-18_07h03.31.586.csv
241,2.0,left,left,1.0,1.6605,0.0,1.0,1.0,1.0,1.0,2898624426-291546.jpg,2981236443-71859.jpg,A34Z9LMI089LMT_2022-10-18_07h03.31.586.csv
242,2.0,right,right,1.0,2.023,0.0,2.0,2.0,2.0,1.0,2238573447-333826.jpg,2901947423-70311.jpg,A34Z9LMI089LMT_2022-10-18_07h03.31.586.csv
243,2.0,right,left,0.0,1.5513,0.0,3.0,3.0,3.0,1.0,2901934408-69289.jpg,2898634397-367080.jpg,A34Z9LMI089LMT_2022-10-18_07h03.31.586.csv
244,3.0,left,left,1.0,1.6584,0.0,4.0,4.0,4.0,1.0,2238481198-19822.jpg,2238480803-19737.jpg,A34Z9LMI089LMT_2022-10-18_07h03.31.586.csv
245,3.0,right,left,0.0,1.6727,0.0,5.0,5.0,5.0,1.0,2964220333-71258.jpg,2238580740-186218.jpg,A34Z9LMI089LMT_2022-10-18_07h03.31.586.csv
246,2.0,right,right,1.0,1.4185,0.0,6.0,6.0,6.0,1.0,2575120738-55528.jpg,2575120738-55529.jpg,A34Z9LMI089LMT_2022-10-18_07h03.31.586.csv
247,2.0,right,left,0.0,1.828,0.0,7.0,7.0,7.0,1.0,2238480648-19714.jpg,2874302418-65979.jpg,A34Z9LMI089LMT_2022-10-18_07h03.31.586.csv
248,3.0,left,right,0.0,1.4309,0.0,8.0,8.0,8.0,1.0,2868475410-213219.jpg,2868474407-362885.jpg,A34Z9LMI089LMT_2022-10-18_07h03.31.586.csv
249,3.0,right,right,1.0,1.5552,0.0,9.0,9.0,9.0,1.0,2986447332-371497.jpg,2512875899-126682.jpg,A34Z9LMI089LMT_2022-10-18_07h03.31.586.csv
250,3.0,left,left,1.0,2.2694,0.0,10.0,10.0,10.0,1.0,2864910426-287204.jpg,2901939433-69672.jpg,A34Z9LMI089LMT_2022-10-18_07h03.31.586.csv
251,2.0,left,left,1.0,2.2801,0.0,11.0,11.0,11.0,1.0,2964218374-144967.jpg,2883254439-140940.jpg,A34Z9LMI089LMT_2022-10-18_07h03.31.586.csv
252,3.0,left,right,0.0,2.2579,0.0,12.0,12.0,12.0,1.0,2883254439-140941.jpg,2981231446-294730.jpg,A34Z9LMI089LMT_2022-10-18_07h03.31.586.csv
253,1.0,left,left,1.0,2.9782,0.0,13.0,13.0,13.0,1.0,2981231403-71642.jpg,2274829821-263682.jpg,A34Z9LMI089LMT_2022-10-18_07h03.31.586.csv
254,3.0,right,right,1.0,2.9903,0.0,14.0,14.0,14.0,1.0,2901947448-70314.jpg,2883268471-290842.jpg,A34Z9LMI089LMT_2022-10-18_07h03.31.586.csv
255,1.0,right,right,1.0,1.564,0.0,15.0,15.0,15.0,1.0,2611628310-206388.jpg,2883256307-365057.jpg,A34Z9LMI089LMT_2022-10-18_07h03.31.586.csv
256,3.0,left,left,1.0,1.4497,0.0,16.0,16.0,16.0,1.0,2238481928-19949.jpg,2981241419-145844.jpg,A34Z9LMI089LMT_2022-10-18_07h03.31.586.csv
257,3.0,right,right,1.0,2.2586,0.0,17.0,17.0,17.0,1.0,2238569117-333045.jpg,2446759347-347016.jpg,A34Z9LMI089LMT_2022-10-18_07h03.31.586.csv
258,1.0,left,left,1.0,1.3277,0.0,18.0,18.0,18.0,1.0,2449442529-124445.jpg,2452380171-273112.jpg,A34Z9LMI089LMT_2022-10-18_07h03.31.586.csv
259,1.0,right,right,1.0,1.8867,0.0,19.0,19.0,19.0,1.0,2986419333-73361.jpg,2238572663-35822.jpg,A34Z9LMI089LMT_2022-10-18_07h03.31.586.csv
260,1.0,right,left,0.0,1.6373,0.0,20.0,20.0,20.0,1.0,2901946439-144040.jpg,2898635427-367120.jpg,A34Z9LMI089LMT_2022-10-18_07h03.31.586.csv
261,2.0,right,right,1.0,1.5628,0.0,21.0,21.0,21.0,1.0,2238481813-19930.jpg,2452380832-348593.jpg,A34Z9LMI089LMT_2022-10-18_07h03.31.586.csv
262,1.0,right,left,0.0,1.545,0.0,22.0,22.0,22.0,1.0,2901938432-367627.jpg,2452381505-199546.jpg,A34Z9LMI089LMT_2022-10-18_07h03.31.586.csv
263,1.0,right,right,1.0,3.458,0.0,23.0,23.0,23.0,1.0,2427874231-269884.jpg,2964223381-294447.jpg,A34Z9LMI089LMT_2022-10-18_07h03.31.586.csv
264,1.0,right,right,1.0,1.6978,0.0,24.0,24.0,24.0,1.0,2238471391-240918.jpg,2238425482-313537.jpg,A34Z9LMI089LMT_2022-10-18_07h03.31.586.csv
265,1.0,left,left,1.0,1.5612,0.0,25.0,25.0,25.0,1.0,2238560245-182099.jpg,2549106624-127823.jpg,A34Z9LMI089LMT_2022-10-18_07h03.31.586.csv
266,2.0,right,right,1.0,1.6805,0.0,26.0,26.0,26.0,1.0,2460547536-274181.jpg,2449442529-124446.jpg,A34Z9LMI089LMT_2022-10-18_07h03.31.586.csv
267,3.0,left,left,1.0,2.0044,0.0,27.0,27.0,27.0,1.0,2874302418-65978.jpg,2898633321-291943.jpg,A34Z9LMI089LMT_2022-10-18_07h03.31.586.csv
268,2.0,left,right,0.0,2.133,0.0,28.0,28.0,28.0,1.0,2901939379-143480.jpg,2981229442-369621.jpg,A34Z9LMI089LMT_2022-10-18_07h03.31.586.csv
269,2.0,left,left,1.0,1.0709,0.0,29.0,29.0,29.0,1.0,2898618390-216538.jpg,2901939327-367670.jpg,A34Z9LMI089LMT_2022-10-18_07h03.31.586.csv
270,1.0,right,right,1.0,1.441,0.0,30.0,30.0,30.0,1.0,2446759803-49250.jpg,2898635428-69104.jpg,A34Z9LMI089LMT_2022-10-18_07h03.31.586.csv
271,1.0,left,left,1.0,1.4568,0.0,31.0,31.0,31.0,1.0,2874303365-214262.jpg,2609793677-355397.jpg,A34Z9LMI089LMT_2022-10-18_07h03.31.586.csv
272,3.0,left,right,0.0,1.4477,0.0,32.0,32.0,32.0,1.0,2986451363-73599.jpg,2238434559-90406.jpg,A34Z9LMI089LMT_2022-10-18_07h03.31.586.csv
273,2.0,left,left,1.0,2.2694,0.0,33.0,33.0,33.0,1.0,2238480677-317399.jpg,2238573546-258454.jpg,A34Z9LMI089LMT_2022-10-18_07h03.31.586.csv
274,1.0,right,right,1.0,3.7997,0.0,34.0,34.0,34.0,1.0,2446760601-272099.jpg,2446759803-49249.jpg,A34Z9LMI089LMT_2022-10-18_07h03.31.586.csv
275,2.0,left,left,1.0,5.6035,0.0,35.0,35.0,35.0,1.0,2901939379-143479.jpg,2446758985-197610.jpg,A34Z9LMI089LMT_2022-10-18_07h03.31.586.csv
276,2.0,left,left,1.0,2.8698,0.0,36.0,36.0,36.0,1.0,2449441881-272368.jpg,2984615358-72439.jpg,A34Z9LMI089LMT_2022-10-18_07h03.31.586.csv
277,2.0,right,right,1.0,2.7469,0.0,37.0,37.0,37.0,1.0,2981246400-220365.jpg,2874307433-66280.jpg,A34Z9LMI089LMT_2022-10-18_07h03.31.586.csv
278,1.0,left,left,1.0,2.5706,0.0,38.0,38.0,38.0,1.0,2901952513-70703.jpg,2864907361-287062.jpg,A34Z9LMI089LMT_2022-10-18_07h03.31.586.csv
279,1.0,left,right,0.0,2.7169,0.0,39.0,39.0,39.0,1.0,2901941401-292798.jpg,2898618327-366317.jpg,A34Z9LMI089LMT_2022-10-18_07h03.31.586.csv
280,1.0,left,right,0.0,1.5665,0.0,40.0,40.0,40.0,1.0,2883268412-365898.jpg,2984626312-370849.jpg,A34Z9LMI089LMT_2022-10-18_07h03.31.586.csv
281,2.0,right,right,1.0,2.2129,0.0,41.0,41.0,41.0,1.0,2579432534-130704.jpg,2592380177-354629.jpg,A34Z9LMI089LMT_2022-10-18_07h03.31.586.csv
282,3.0,right,right,1.0,2.844,0.0,42.0,42.0,42.0,1.0,2989726338-74002.jpg,2864907432-362042.jpg,A34Z9LMI089LMT_2022-10-18_07h03.31.586.csv
283,3.0,right,right,1.0,2.0468,0.0,43.0,43.0,43.0,1.0,2964213381-294061.jpg,2964213381-294060.jpg,A34Z9LMI089LMT_2022-10-18_07h03.31.586.csv
284,3.0,right,left,0.0,2.6393,0.0,44.0,44.0,44.0,1.0,2981246360-220352.jpg,2901948350-218459.jpg,A34Z9LMI089LMT_2022-10-18_07h03.31.586.csv
285,1.0,right,right,1.0,1.5618,0.0,45.0,45.0,45.0,1.0,2512876023-52283.jpg,2898633421-291973.jpg,A34Z9LMI089LMT_2022-10-18_07h03.31.586.csv
286,3.0,right,left,0.0,2.015,0.0,46.0,46.0,46.0,1.0,2446760917-347439.jpg,2874299429-139695.jpg,A34Z9LMI089LMT_2022-10-18_07h03.31.586.csv
287,1.0,right,left,0.0,3.1199,0.0,47.0,47.0,47.0,1.0,2238499057-320266.jpg,2238428357-313623.jpg,A34Z9LMI089LMT_2022-10-18_07h03.31.586.csv
288,2.0,right,right,1.0,2.9711,0.0,48.0,48.0,48.0,1.0,2452380166-273110.jpg,2460547467-349421.jpg,A34Z9LMI089LMT_2022-10-18_07h03.31.586.csv
289,3.0,right,left,0.0,2.2618,0.0,49.0,49.0,49.0,1.0,2964207374-144577.jpg,2898617468-68274.jpg,A34Z9LMI089LMT_2022-10-18_07h03.31.586.csv
290,1.0,right,right,1.0,1.3014,0.0,50.0,50.0,50.0,1.0,2238480434-93829.jpg,2458347385-199723.jpg,A34Z9LMI089LMT_2022-10-18_07h03.31.586.csv
291,2.0,left,left,1.0,1.6944,0.0,51.0,51.0,51.0,1.0,2964216465-219242.jpg,2864900319-137787.jpg,A34Z9LMI089LMT_2022-10-18_07h03.31.586.csv
292,3.0,left,right,0.0,2.1376,0.0,52.0,52.0,52.0,1.0,2874301407-363895.jpg,2901947323-70275.jpg,A34Z9LMI089LMT_2022-10-18_07h03.31.586.csv
293,2.0,left,left,1.0,3.0385,0.0,53.0,53.0,53.0,1.0,2592379964-131054.jpg,2238479053-19457.jpg,A34Z9LMI089LMT_2022-10-18_07h03.31.586.csv
294,2.0,left,left,1.0,1.2058,0.0,54.0,54.0,54.0,1.0,2868474407-362883.jpg,2981246400-220363.jpg,A34Z9LMI089LMT_2022-10-18_07h03.31.586.csv
295,1.0,right,left,0.0,1.3324,0.0,55.0,55.0,55.0,1.0,2981240424-145795.jpg,2446758985-197609.jpg,A34Z9LMI089LMT_2022-10-18_07h03.31.586.csv
296,1.0,left,right,0.0,2.5051,0.0,56.0,56.0,56.0,1.0,2898618444-142233.jpg,2898631359-142721.jpg,A34Z9LMI089LMT_2022-10-18_07h03.31.586.csv
297,3.0,right,left,0.0,0.5943,0.0,57.0,57.0,57.0,1.0,2901941438-69835.jpg,2460547508-51571.jpg,A34Z9LMI089LMT_2022-10-18_07h03.31.586.csv
298,3.0,left,left,1.0,1.2256,0.0,58.0,58.0,58.0,1.0,2981241414-145842.jpg,2427873848-47312.jpg,A34Z9LMI089LMT_2022-10-18_07h03.31.586.csv
299,2.0,left,left,1.0,1.7587,0.0,59.0,59.0,59.0,1.0,2592380177-354626.jpg,2864901386-286797.jpg,A34Z9LMI089LMT_2022-10-18_07h03.31.586.csv
300,1.0,right,right,1.0,2.7311,0.0,0.0,0.0,0.0,1.0,2611628310-206388.jpg,2883256307-365057.jpg,AZ5KAKZR0CVR_2022-10-18_10h46.54.594.csv
301,1.0,right,left,0.0,4.9537,0.0,1.0,1.0,1.0,1.0,2964218432-369263.jpg,2898624426-291546.jpg,AZ5KAKZR0CVR_2022-10-18_10h46.54.594.csv
302,3.0,right,right,1.0,1.5431,0.0,2.0,2.0,2.0,1.0,2964207374-144577.jpg,2898617468-68274.jpg,AZ5KAKZR0CVR_2022-10-18_10h46.54.594.csv
303,1.0,right,right,1.0,1.3693,0.0,3.0,3.0,3.0,1.0,2238499057-320266.jpg,2238428357-313623.jpg,AZ5KAKZR0CVR_2022-10-18_10h46.54.594.csv
304,2.0,right,right,1.0,1.8883,0.0,4.0,4.0,4.0,1.0,2984615361-295510.jpg,2883268412-365898.jpg,AZ5KAKZR0CVR_2022-10-18_10h46.54.594.csv
305,1.0,right,right,1.0,1.4876,0.0,5.0,5.0,5.0,1.0,2898618440-216545.jpg,2460547467-349422.jpg,AZ5KAKZR0CVR_2022-10-18_10h46.54.594.csv
306,1.0,right,right,1.0,1.5347,0.0,6.0,6.0,6.0,1.0,2981244394-145974.jpg,2964213381-294060.jpg,AZ5KAKZR0CVR_2022-10-18_10h46.54.594.csv
307,3.0,right,left,0.0,2.4364,0.0,7.0,7.0,7.0,1.0,2449441881-272367.jpg,2449441881-272368.jpg,AZ5KAKZR0CVR_2022-10-18_10h46.54.594.csv
308,3.0,left,left,1.0,1.4033,0.0,8.0,8.0,8.0,1.0,2592379964-131054.jpg,2592380272-354673.jpg,AZ5KAKZR0CVR_2022-10-18_10h46.54.594.csv
309,3.0,left,right,0.0,1.425,0.0,9.0,9.0,9.0,1.0,2964216465-219242.jpg,2898619327-366362.jpg,AZ5KAKZR0CVR_2022-10-18_10h46.54.594.csv
310,1.0,right,right,1.0,1.5306,0.0,10.0,10.0,10.0,1.0,2413147898-43548.jpg,2874302418-65979.jpg,AZ5KAKZR0CVR_2022-10-18_10h46.54.594.csv
311,1.0,left,left,1.0,1.7077,0.0,11.0,11.0,11.0,1.0,2238572663-35822.jpg,2986419333-73361.jpg,AZ5KAKZR0CVR_2022-10-18_10h46.54.594.csv
312,3.0,left,left,1.0,1.8629,0.0,12.0,12.0,12.0,1.0,2901952513-70703.jpg,2238481198-19821.jpg,AZ5KAKZR0CVR_2022-10-18_10h46.54.594.csv
313,2.0,left,left,1.0,1.2788,0.0,13.0,13.0,13.0,1.0,2592380177-354626.jpg,2864901386-286797.jpg,AZ5KAKZR0CVR_2022-10-18_10h46.54.594.csv
314,3.0,right,right,1.0,1.4048,0.0,14.0,14.0,14.0,1.0,2449442181-272436.jpg,2452380832-348593.jpg,AZ5KAKZR0CVR_2022-10-18_10h46.54.594.csv
315,3.0,left,left,1.0,2.3847,0.0,15.0,15.0,15.0,1.0,2874307433-66280.jpg,2981231422-369714.jpg,AZ5KAKZR0CVR_2022-10-18_10h46.54.594.csv
316,2.0,right,right,1.0,1.3208,0.0,16.0,16.0,16.0,1.0,2460547536-274181.jpg,2449442529-124446.jpg,AZ5KAKZR0CVR_2022-10-18_10h46.54.594.csv
317,1.0,left,left,1.0,1.3157,0.0,17.0,17.0,17.0,1.0,2874303365-214262.jpg,2609793677-355397.jpg,AZ5KAKZR0CVR_2022-10-18_10h46.54.594.csv
318,3.0,left,right,0.0,1.6089,0.0,18.0,18.0,18.0,1.0,2864910426-287204.jpg,2901939433-69672.jpg,AZ5KAKZR0CVR_2022-10-18_10h46.54.594.csv
319,3.0,left,left,1.0,1.1273,0.0,19.0,19.0,19.0,1.0,2874299429-139695.jpg,2446760917-347439.jpg,AZ5KAKZR0CVR_2022-10-18_10h46.54.594.csv
320,1.0,right,right,1.0,1.5847,0.0,20.0,20.0,20.0,1.0,2898631359-142721.jpg,2898618444-142233.jpg,AZ5KAKZR0CVR_2022-10-18_10h46.54.594.csv
321,1.0,right,right,1.0,1.754,0.0,21.0,21.0,21.0,1.0,2883264368-67631.jpg,2874301407-363895.jpg,AZ5KAKZR0CVR_2022-10-18_10h46.54.594.csv
322,1.0,left,left,1.0,1.2355,0.0,22.0,22.0,22.0,1.0,2238560245-182099.jpg,2549106624-127823.jpg,AZ5KAKZR0CVR_2022-10-18_10h46.54.594.csv
323,1.0,right,right,1.0,2.2076,0.0,23.0,23.0,23.0,1.0,2238550816-254000.jpg,2238580740-186218.jpg,AZ5KAKZR0CVR_2022-10-18_10h46.54.594.csv
324,2.0,left,right,0.0,1.8172,0.0,24.0,24.0,24.0,1.0,2864907432-362042.jpg,2901947423-70310.jpg,AZ5KAKZR0CVR_2022-10-18_10h46.54.594.csv
325,1.0,left,left,1.0,2.1232,0.0,25.0,25.0,25.0,1.0,2898633421-291973.jpg,2512876023-52283.jpg,AZ5KAKZR0CVR_2022-10-18_10h46.54.594.csv
326,3.0,right,right,1.0,1.2518,0.0,26.0,26.0,26.0,1.0,2901947448-70314.jpg,2883268471-290842.jpg,AZ5KAKZR0CVR_2022-10-18_10h46.54.594.csv
327,2.0,right,left,0.0,1.7433,0.0,27.0,27.0,27.0,1.0,2981229442-369621.jpg,2901939379-143480.jpg,AZ5KAKZR0CVR_2022-10-18_10h46.54.594.csv
328,3.0,right,right,1.0,1.2662,0.0,28.0,28.0,28.0,1.0,2427873848-47312.jpg,2981241414-145842.jpg,AZ5KAKZR0CVR_2022-10-18_10h46.54.594.csv
329,3.0,right,right,1.0,1.262,0.0,29.0,29.0,29.0,1.0,2238577590-185467.jpg,2901947423-70311.jpg,AZ5KAKZR0CVR_2022-10-18_10h46.54.594.csv
330,2.0,left,right,0.0,1.3289,0.0,30.0,30.0,30.0,1.0,2575120738-55529.jpg,2575120738-55528.jpg,AZ5KAKZR0CVR_2022-10-18_10h46.54.594.csv
331,1.0,right,right,1.0,1.1625,0.0,31.0,31.0,31.0,1.0,2804906319-133082.jpg,2901948350-218459.jpg,AZ5KAKZR0CVR_2022-10-18_10h46.54.594.csv
332,2.0,left,left,1.0,1.6044,0.0,32.0,32.0,32.0,1.0,2460547508-51571.jpg,2981232437-369759.jpg,AZ5KAKZR0CVR_2022-10-18_10h46.54.594.csv
333,2.0,left,right,0.0,0.948,0.0,33.0,33.0,33.0,1.0,2874302418-65978.jpg,2238481198-19823.jpg,AZ5KAKZR0CVR_2022-10-18_10h46.54.594.csv
334,2.0,right,right,1.0,1.1529,0.0,34.0,34.0,34.0,1.0,2981244403-72215.jpg,2981231403-71642.jpg,AZ5KAKZR0CVR_2022-10-18_10h46.54.594.csv
335,2.0,left,left,1.0,1.4221,0.0,35.0,35.0,35.0,1.0,2460547467-349421.jpg,2452380166-273110.jpg,AZ5KAKZR0CVR_2022-10-18_10h46.54.594.csv
336,1.0,left,right,0.0,1.1758,0.0,36.0,36.0,36.0,1.0,2898635427-367120.jpg,2901946439-144040.jpg,AZ5KAKZR0CVR_2022-10-18_10h46.54.594.csv
337,2.0,right,left,0.0,1.1232,0.0,37.0,37.0,37.0,1.0,2898632385-217136.jpg,2883254439-140941.jpg,AZ5KAKZR0CVR_2022-10-18_10h46.54.594.csv
338,3.0,left,right,0.0,0.9327,0.0,38.0,38.0,38.0,1.0,2898635428-69104.jpg,2898625336-291572.jpg,AZ5KAKZR0CVR_2022-10-18_10h46.54.594.csv
339,3.0,right,left,0.0,1.3763,0.0,39.0,39.0,39.0,1.0,2458347252-348911.jpg,2458347385-199723.jpg,AZ5KAKZR0CVR_2022-10-18_10h46.54.594.csv
340,1.0,right,right,1.0,1.4281,0.0,40.0,40.0,40.0,1.0,2901946465-218350.jpg,2868475410-213219.jpg,AZ5KAKZR0CVR_2022-10-18_10h46.54.594.csv
341,2.0,left,right,0.0,3.7586,0.0,41.0,41.0,41.0,1.0,2868474407-362883.jpg,2981246400-220363.jpg,AZ5KAKZR0CVR_2022-10-18_10h46.54.594.csv
342,1.0,right,left,0.0,1.5408,0.0,42.0,42.0,42.0,1.0,2460547536-274179.jpg,2512875899-126682.jpg,AZ5KAKZR0CVR_2022-10-18_10h46.54.594.csv
343,2.0,left,left,1.0,1.4782,0.0,43.0,43.0,43.0,1.0,2238425482-313537.jpg,2238436322-314047.jpg,AZ5KAKZR0CVR_2022-10-18_10h46.54.594.csv
344,3.0,right,left,0.0,1.2896,0.0,44.0,44.0,44.0,1.0,2981241419-145844.jpg,2238481928-19949.jpg,AZ5KAKZR0CVR_2022-10-18_10h46.54.594.csv
345,3.0,left,left,1.0,1.4569,0.0,45.0,45.0,45.0,1.0,2446758985-197609.jpg,2898624426-291544.jpg,AZ5KAKZR0CVR_2022-10-18_10h46.54.594.csv
346,2.0,left,left,1.0,1.3671,0.0,46.0,46.0,46.0,1.0,2592380177-354629.jpg,2579432534-130704.jpg,AZ5KAKZR0CVR_2022-10-18_10h46.54.594.csv
347,2.0,left,left,1.0,1.4265,0.0,47.0,47.0,47.0,1.0,2964223381-294447.jpg,2901941438-69836.jpg,AZ5KAKZR0CVR_2022-10-18_10h46.54.594.csv
348,2.0,right,left,0.0,1.1334,0.0,48.0,48.0,48.0,1.0,2860302315-210704.jpg,2986451363-73599.jpg,AZ5KAKZR0CVR_2022-10-18_10h46.54.594.csv
349,3.0,right,left,0.0,1.3535,0.0,49.0,49.0,49.0,1.0,2238569117-333045.jpg,2446759347-347016.jpg,AZ5KAKZR0CVR_2022-10-18_10h46.54.594.csv
350,2.0,right,left,0.0,1.1276,0.0,50.0,50.0,50.0,1.0,2898618440-216547.jpg,2446759803-49249.jpg,AZ5KAKZR0CVR_2022-10-18_10h46.54.594.csv
351,3.0,right,right,1.0,1.1439,0.0,51.0,51.0,51.0,1.0,2883273443-68193.jpg,2901941401-292798.jpg,AZ5KAKZR0CVR_2022-10-18_10h46.54.594.csv
352,2.0,left,left,1.0,6.2604,0.0,52.0,52.0,52.0,1.0,2452381505-199546.jpg,2238567168-34916.jpg,AZ5KAKZR0CVR_2022-10-18_10h46.54.594.csv
353,1.0,left,left,1.0,6.8093,0.0,53.0,53.0,53.0,1.0,2238481198-19822.jpg,2862691449-137104.jpg,AZ5KAKZR0CVR_2022-10-18_10h46.54.594.csv
354,1.0,right,right,1.0,1.6792,0.0,54.0,54.0,54.0,1.0,2986449336-296644.jpg,2898618390-216538.jpg,AZ5KAKZR0CVR_2022-10-18_10h46.54.594.csv
355,1.0,left,left,1.0,1.4124,0.0,55.0,55.0,55.0,1.0,2898634397-367080.jpg,2237944827-301472.jpg,AZ5KAKZR0CVR_2022-10-18_10h46.54.594.csv
356,2.0,left,right,0.0,0.307,0.0,56.0,56.0,56.0,1.0,2901939379-143479.jpg,2446758985-197610.jpg,AZ5KAKZR0CVR_2022-10-18_10h46.54.594.csv
357,3.0,left,left,1.0,1.0956,0.0,57.0,57.0,57.0,1.0,2449442529-124445.jpg,2898632385-217137.jpg,AZ5KAKZR0CVR_2022-10-18_10h46.54.594.csv
358,2.0,left,left,1.0,3.5034,0.0,58.0,58.0,58.0,1.0,2964218374-144967.jpg,2883254439-140940.jpg,AZ5KAKZR0CVR_2022-10-18_10h46.54.594.csv
359,3.0,left,left,1.0,1.4418,0.0,59.0,59.0,59.0,1.0,2238480677-317399.jpg,2238480278-19661.jpg,AZ5KAKZR0CVR_2022-10-18_10h46.54.594.csv
360,3.0,left,right,0.0,63.098,0.0,0.0,0.0,0.0,1.0,2874299429-139695.jpg,2446760917-347439.jpg,A2P0EZBOOTBSAL_2022-10-18_08h31.22.807.csv
361,2.0,left,left,1.0,2.668,0.0,1.0,1.0,1.0,1.0,2446758985-197609.jpg,2864909447-362144.jpg,A2P0EZBOOTBSAL_2022-10-18_08h31.22.807.csv
362,2.0,right,right,1.0,12.037,0.0,2.0,2.0,2.0,1.0,2901934408-69289.jpg,2898634397-367080.jpg,A2P0EZBOOTBSAL_2022-10-18_08h31.22.807.csv
363,2.0,right,right,1.0,3.52,0.0,3.0,3.0,3.0,1.0,2964210336-293945.jpg,2883256307-365057.jpg,A2P0EZBOOTBSAL_2022-10-18_08h31.22.807.csv
364,2.0,right,right,1.0,1.741,0.0,4.0,4.0,4.0,1.0,2575118671-277663.jpg,2898633421-291973.jpg,A2P0EZBOOTBSAL_2022-10-18_08h31.22.807.csv
365,3.0,right,right,1.0,1.713,0.0,5.0,5.0,5.0,1.0,2901941438-69835.jpg,2460547508-51571.jpg,A2P0EZBOOTBSAL_2022-10-18_08h31.22.807.csv
366,2.0,left,left,1.0,11.232,0.0,6.0,6.0,6.0,1.0,2883268471-290842.jpg,2883255450-215310.jpg,A2P0EZBOOTBSAL_2022-10-18_08h31.22.807.csv
367,1.0,left,left,1.0,2.188,0.0,7.0,7.0,7.0,1.0,2901948350-218459.jpg,2804906319-133082.jpg,A2P0EZBOOTBSAL_2022-10-18_08h31.22.807.csv
368,2.0,left,left,1.0,9.041,0.0,8.0,8.0,8.0,1.0,2460547467-349421.jpg,2452380166-273110.jpg,A2P0EZBOOTBSAL_2022-10-18_08h31.22.807.csv
369,1.0,right,right,1.0,22.337,0.0,9.0,9.0,9.0,1.0,2460547467-349423.jpg,2901939379-143479.jpg,A2P0EZBOOTBSAL_2022-10-18_08h31.22.807.csv
370,1.0,left,left,1.0,44.879,0.0,10.0,10.0,10.0,1.0,2898617468-68274.jpg,2864906345-212360.jpg,A2P0EZBOOTBSAL_2022-10-18_08h31.22.807.csv
371,2.0,left,left,1.0,3.71,0.0,11.0,11.0,11.0,1.0,2883268412-365898.jpg,2984615361-295510.jpg,A2P0EZBOOTBSAL_2022-10-18_08h31.22.807.csv
372,2.0,left,left,1.0,1.513,0.0,12.0,12.0,12.0,1.0,2898618444-142233.jpg,2238555262-330312.jpg,A2P0EZBOOTBSAL_2022-10-18_08h31.22.807.csv
373,1.0,left,left,1.0,1.455,0.0,13.0,13.0,13.0,1.0,2874303365-214262.jpg,2609793677-355397.jpg,A2P0EZBOOTBSAL_2022-10-18_08h31.22.807.csv
374,2.0,left,right,0.0,6.76,0.0,14.0,14.0,14.0,1.0,2874307433-66280.jpg,2981246400-220365.jpg,A2P0EZBOOTBSAL_2022-10-18_08h31.22.807.csv
375,1.0,left,left,1.0,1.444,0.0,15.0,15.0,15.0,1.0,2592379964-131054.jpg,2575963989-130576.jpg,A2P0EZBOOTBSAL_2022-10-18_08h31.22.807.csv
376,3.0,left,left,1.0,2.103,0.0,16.0,16.0,16.0,1.0,2238580740-186218.jpg,2964220333-71258.jpg,A2P0EZBOOTBSAL_2022-10-18_08h31.22.807.csv
377,1.0,left,left,1.0,47.378,0.0,17.0,17.0,17.0,1.0,2449442529-124446.jpg,2446759803-49251.jpg,A2P0EZBOOTBSAL_2022-10-18_08h31.22.807.csv
378,1.0,right,right,1.0,3.53,0.0,18.0,18.0,18.0,1.0,2860312398-62572.jpg,2901947423-70311.jpg,A2P0EZBOOTBSAL_2022-10-18_08h31.22.807.csv
379,3.0,left,left,1.0,1.895,0.0,19.0,19.0,19.0,1.0,2238428357-313623.jpg,2575121987-353817.jpg,A2P0EZBOOTBSAL_2022-10-18_08h31.22.807.csv
380,3.0,left,left,1.0,3.389,0.0,20.0,20.0,20.0,1.0,2898635428-69104.jpg,2898625336-291572.jpg,A2P0EZBOOTBSAL_2022-10-18_08h31.22.807.csv
381,2.0,right,right,1.0,2.534,0.0,21.0,21.0,21.0,1.0,2898618440-216547.jpg,2446759803-49249.jpg,A2P0EZBOOTBSAL_2022-10-18_08h31.22.807.csv
382,3.0,right,right,1.0,4.767,0.0,22.0,22.0,22.0,1.0,2427873763-47290.jpg,2981231403-71642.jpg,A2P0EZBOOTBSAL_2022-10-18_08h31.22.807.csv
383,3.0,left,left,1.0,3.174,0.0,23.0,23.0,23.0,1.0,2901941401-292798.jpg,2883273443-68193.jpg,A2P0EZBOOTBSAL_2022-10-18_08h31.22.807.csv
384,3.0,left,left,1.0,2.889,0.0,24.0,24.0,24.0,1.0,2964218374-144967.jpg,2981231446-294732.jpg,A2P0EZBOOTBSAL_2022-10-18_08h31.22.807.csv
385,1.0,left,left,1.0,2.157,0.0,25.0,25.0,25.0,1.0,2592380177-354629.jpg,2898633421-291974.jpg,A2P0EZBOOTBSAL_2022-10-18_08h31.22.807.csv
386,1.0,right,right,1.0,11.984,0.0,26.0,26.0,26.0,1.0,2856919327-359676.jpg,2981241414-145842.jpg,A2P0EZBOOTBSAL_2022-10-18_08h31.22.807.csv
387,1.0,left,left,1.0,2.267,0.0,27.0,27.0,27.0,1.0,2446759347-347016.jpg,2964224310-219528.jpg,A2P0EZBOOTBSAL_2022-10-18_08h31.22.807.csv
388,3.0,left,left,1.0,2.504,0.0,28.0,28.0,28.0,1.0,2901939379-143480.jpg,2901938432-367629.jpg,A2P0EZBOOTBSAL_2022-10-18_08h31.22.807.csv
389,2.0,right,left,0.0,31.279,0.0,29.0,29.0,29.0,1.0,2238573546-258454.jpg,2238480677-317399.jpg,A2P0EZBOOTBSAL_2022-10-18_08h31.22.807.csv
390,3.0,left,left,1.0,4.147,0.0,30.0,30.0,30.0,1.0,2238572663-35822.jpg,2864903351-286874.jpg,A2P0EZBOOTBSAL_2022-10-18_08h31.22.807.csv
391,1.0,left,right,0.0,4.286,0.0,31.0,31.0,31.0,1.0,2868475410-213219.jpg,2901946465-218350.jpg,A2P0EZBOOTBSAL_2022-10-18_08h31.22.807.csv
392,3.0,left,left,1.0,2.739,0.0,32.0,32.0,32.0,1.0,2986451363-73599.jpg,2238434559-90406.jpg,A2P0EZBOOTBSAL_2022-10-18_08h31.22.807.csv
393,1.0,left,left,1.0,49.031,0.0,33.0,33.0,33.0,1.0,2868474407-362883.jpg,2238516618-25604.jpg,A2P0EZBOOTBSAL_2022-10-18_08h31.22.807.csv
394,2.0,left,right,0.0,3.175,0.0,34.0,34.0,34.0,1.0,2864907432-362042.jpg,2901947423-70310.jpg,A2P0EZBOOTBSAL_2022-10-18_08h31.22.807.csv
395,2.0,left,left,1.0,2.096,0.0,35.0,35.0,35.0,1.0,2238425482-313537.jpg,2238436322-314047.jpg,A2P0EZBOOTBSAL_2022-10-18_08h31.22.807.csv
396,2.0,left,left,1.0,1.985,0.0,36.0,36.0,36.0,1.0,2898618390-216538.jpg,2901939327-367670.jpg,A2P0EZBOOTBSAL_2022-10-18_08h31.22.807.csv
397,3.0,left,left,1.0,1.909,0.0,37.0,37.0,37.0,1.0,2575120738-55529.jpg,2238531493-28260.jpg,A2P0EZBOOTBSAL_2022-10-18_08h31.22.807.csv
398,3.0,left,left,1.0,1.337,0.0,38.0,38.0,38.0,1.0,2901952513-70703.jpg,2238481198-19821.jpg,A2P0EZBOOTBSAL_2022-10-18_08h31.22.807.csv
399,3.0,left,left,1.0,3.838,0.0,39.0,39.0,39.0,1.0,2874302418-65979.jpg,2238578544-111698.jpg,A2P0EZBOOTBSAL_2022-10-18_08h31.22.807.csv
400,2.0,right,right,1.0,1.881,0.0,40.0,40.0,40.0,1.0,2874299429-139694.jpg,2864910426-287204.jpg,A2P0EZBOOTBSAL_2022-10-18_08h31.22.807.csv
401,1.0,right,right,1.0,1.748,0.0,41.0,41.0,41.0,1.0,2238544191-252422.jpg,2964216465-219242.jpg,A2P0EZBOOTBSAL_2022-10-18_08h31.22.807.csv
402,1.0,left,left,1.0,2.993,0.0,42.0,42.0,42.0,1.0,2512875899-126682.jpg,2460547536-274179.jpg,A2P0EZBOOTBSAL_2022-10-18_08h31.22.807.csv
403,3.0,right,right,1.0,1.738,0.0,43.0,43.0,43.0,1.0,2449442181-272436.jpg,2452380832-348593.jpg,A2P0EZBOOTBSAL_2022-10-18_08h31.22.807.csv
404,1.0,right,right,1.0,2.381,0.0,44.0,44.0,44.0,1.0,2549106624-127823.jpg,2238560245-182099.jpg,A2P0EZBOOTBSAL_2022-10-18_08h31.22.807.csv
405,3.0,left,right,0.0,1.981,0.0,45.0,45.0,45.0,1.0,2883254439-140941.jpg,2981231446-294730.jpg,A2P0EZBOOTBSAL_2022-10-18_08h31.22.807.csv
406,3.0,left,right,0.0,3.589,0.0,46.0,46.0,46.0,1.0,2458347385-199723.jpg,2458347252-348911.jpg,A2P0EZBOOTBSAL_2022-10-18_08h31.22.807.csv
407,2.0,right,right,1.0,2.184,0.0,47.0,47.0,47.0,1.0,2986397322-371109.jpg,2874301407-363895.jpg,A2P0EZBOOTBSAL_2022-10-18_08h31.22.807.csv
408,3.0,left,left,1.0,1.937,0.0,48.0,48.0,48.0,1.0,2460547467-349422.jpg,2864909447-362146.jpg,A2P0EZBOOTBSAL_2022-10-18_08h31.22.807.csv
409,3.0,right,right,1.0,2.394,0.0,49.0,49.0,49.0,1.0,2898632385-217137.jpg,2449442529-124445.jpg,A2P0EZBOOTBSAL_2022-10-18_08h31.22.807.csv
410,1.0,left,left,1.0,2.619,0.0,50.0,50.0,50.0,1.0,2898624426-291546.jpg,2964218432-369263.jpg,A2P0EZBOOTBSAL_2022-10-18_08h31.22.807.csv
411,1.0,left,left,1.0,1.513,0.0,51.0,51.0,51.0,1.0,2964213381-294060.jpg,2981244394-145974.jpg,A2P0EZBOOTBSAL_2022-10-18_08h31.22.807.csv
412,3.0,right,right,1.0,16.237,0.0,52.0,52.0,52.0,1.0,2898633321-291943.jpg,2874302418-65978.jpg,A2P0EZBOOTBSAL_2022-10-18_08h31.22.807.csv
413,1.0,right,right,1.0,2.597,0.0,53.0,53.0,53.0,1.0,2901946439-144040.jpg,2898635427-367120.jpg,A2P0EZBOOTBSAL_2022-10-18_08h31.22.807.csv
414,2.0,left,left,1.0,1.66,0.0,54.0,54.0,54.0,1.0,2592380177-354626.jpg,2864901386-286797.jpg,A2P0EZBOOTBSAL_2022-10-18_08h31.22.807.csv
415,1.0,right,right,1.0,2.74,0.0,55.0,55.0,55.0,1.0,2901938432-367627.jpg,2452381505-199546.jpg,A2P0EZBOOTBSAL_2022-10-18_08h31.22.807.csv
416,2.0,left,right,0.0,3.316,0.0,56.0,56.0,56.0,1.0,2238481928-19949.jpg,2864900357-361688.jpg,A2P0EZBOOTBSAL_2022-10-18_08h31.22.807.csv
417,1.0,right,right,1.0,2.548,0.0,57.0,57.0,57.0,1.0,2883268412-365899.jpg,2449441881-272368.jpg,A2P0EZBOOTBSAL_2022-10-18_08h31.22.807.csv
418,2.0,right,right,1.0,3.238,0.0,58.0,58.0,58.0,1.0,2901946436-293242.jpg,2238481198-19822.jpg,A2P0EZBOOTBSAL_2022-10-18_08h31.22.807.csv
419,2.0,right,left,0.0,2.772,0.0,59.0,59.0,59.0,1.0,2901941438-69836.jpg,2964223381-294447.jpg,A2P0EZBOOTBSAL_2022-10-18_08h31.22.807.csv
420,1.0,left,left,1.0,1.6755,0.0,0.0,0.0,0.0,1.0,2898634397-367080.jpg,2237944827-301472.jpg,AH7Z2M3KSQ4DW_2022-10-18_12h28.46.444.csv
421,3.0,left,right,0.0,1.7444,0.0,1.0,1.0,1.0,1.0,2964223381-294447.jpg,2898628438-68785.jpg,AH7Z2M3KSQ4DW_2022-10-18_12h28.46.444.csv
422,3.0,right,right,1.0,1.3954,0.0,2.0,2.0,2.0,1.0,2427873763-47290.jpg,2981231403-71642.jpg,AH7Z2M3KSQ4DW_2022-10-18_12h28.46.444.csv
423,2.0,left,left,1.0,0.779,0.0,3.0,3.0,3.0,1.0,2238428357-313623.jpg,2984615361-295509.jpg,AH7Z2M3KSQ4DW_2022-10-18_12h28.46.444.csv
424,2.0,right,left,0.0,1.2122,0.0,4.0,4.0,4.0,1.0,2981246400-220363.jpg,2868474407-362883.jpg,AH7Z2M3KSQ4DW_2022-10-18_12h28.46.444.csv
425,3.0,right,left,0.0,1.3115,0.0,5.0,5.0,5.0,1.0,2238569117-333045.jpg,2446759347-347016.jpg,AH7Z2M3KSQ4DW_2022-10-18_12h28.46.444.csv
426,3.0,right,right,1.0,2.0451,0.0,6.0,6.0,6.0,1.0,2981235446-294901.jpg,2460547467-349421.jpg,AH7Z2M3KSQ4DW_2022-10-18_12h28.46.444.csv
427,1.0,right,right,1.0,1.3451,0.0,7.0,7.0,7.0,1.0,2512876023-52283.jpg,2898633421-291973.jpg,AH7Z2M3KSQ4DW_2022-10-18_12h28.46.444.csv
428,1.0,left,left,1.0,1.5285,0.0,8.0,8.0,8.0,1.0,2449442529-124446.jpg,2446759803-49251.jpg,AH7Z2M3KSQ4DW_2022-10-18_12h28.46.444.csv
429,1.0,right,right,1.0,2.011,0.0,9.0,9.0,9.0,1.0,2898618440-216545.jpg,2460547467-349422.jpg,AH7Z2M3KSQ4DW_2022-10-18_12h28.46.444.csv
430,3.0,right,left,0.0,1.1448,0.0,10.0,10.0,10.0,1.0,2864904453-63933.jpg,2883256307-365057.jpg,AH7Z2M3KSQ4DW_2022-10-18_12h28.46.444.csv
431,3.0,left,left,1.0,1.9282,0.0,11.0,11.0,11.0,1.0,2901947423-70311.jpg,2238577590-185467.jpg,AH7Z2M3KSQ4DW_2022-10-18_12h28.46.444.csv
432,3.0,left,left,1.0,2.3945,0.0,12.0,12.0,12.0,1.0,2898635427-367120.jpg,2898621427-366486.jpg,AH7Z2M3KSQ4DW_2022-10-18_12h28.46.444.csv
433,1.0,left,left,1.0,2.2464,0.0,13.0,13.0,13.0,1.0,2874301407-363895.jpg,2883264368-67631.jpg,AH7Z2M3KSQ4DW_2022-10-18_12h28.46.444.csv
434,2.0,right,right,1.0,0.9984,0.0,14.0,14.0,14.0,1.0,2238480803-19739.jpg,2868475410-213219.jpg,AH7Z2M3KSQ4DW_2022-10-18_12h28.46.444.csv
435,2.0,right,right,1.0,1.2826,0.0,15.0,15.0,15.0,1.0,2986408373-73286.jpg,2449442529-124445.jpg,AH7Z2M3KSQ4DW_2022-10-18_12h28.46.444.csv
436,2.0,right,right,1.0,3.6406,0.0,16.0,16.0,16.0,1.0,2901947423-70310.jpg,2864907432-362042.jpg,AH7Z2M3KSQ4DW_2022-10-18_12h28.46.444.csv
437,2.0,left,right,0.0,1.2862,0.0,17.0,17.0,17.0,1.0,2883268412-365898.jpg,2984615361-295510.jpg,AH7Z2M3KSQ4DW_2022-10-18_12h28.46.444.csv
438,1.0,left,left,1.0,0.71,0.0,18.0,18.0,18.0,1.0,2452380832-348593.jpg,2238328478-11678.jpg,AH7Z2M3KSQ4DW_2022-10-18_12h28.46.444.csv
439,3.0,right,left,0.0,2.1037,0.0,19.0,19.0,19.0,1.0,2898625336-291572.jpg,2898635428-69104.jpg,AH7Z2M3KSQ4DW_2022-10-18_12h28.46.444.csv
440,2.0,left,left,1.0,1.4746,0.0,20.0,20.0,20.0,1.0,2898624426-291546.jpg,2981236443-71859.jpg,AH7Z2M3KSQ4DW_2022-10-18_12h28.46.444.csv
441,2.0,left,right,0.0,1.1559,0.0,21.0,21.0,21.0,1.0,2883254439-140941.jpg,2898632385-217136.jpg,AH7Z2M3KSQ4DW_2022-10-18_12h28.46.444.csv
442,3.0,right,right,1.0,1.8549,0.0,22.0,22.0,22.0,1.0,2238531493-28260.jpg,2575120738-55529.jpg,AH7Z2M3KSQ4DW_2022-10-18_12h28.46.444.csv
443,1.0,left,left,1.0,2.8514,0.0,23.0,23.0,23.0,1.0,2238580740-186218.jpg,2238550816-254000.jpg,AH7Z2M3KSQ4DW_2022-10-18_12h28.46.444.csv
444,1.0,right,left,0.0,0.809,0.0,24.0,24.0,24.0,1.0,2901939327-367669.jpg,2986451363-73599.jpg,AH7Z2M3KSQ4DW_2022-10-18_12h28.46.444.csv
445,2.0,right,right,1.0,1.7845,0.0,25.0,25.0,25.0,1.0,2981246400-220365.jpg,2874307433-66280.jpg,AH7Z2M3KSQ4DW_2022-10-18_12h28.46.444.csv
446,3.0,left,right,0.0,2.5796,0.0,26.0,26.0,26.0,1.0,2901939379-143479.jpg,2981240424-145794.jpg,AH7Z2M3KSQ4DW_2022-10-18_12h28.46.444.csv
447,2.0,left,left,1.0,0.8898,0.0,27.0,27.0,27.0,1.0,2901952513-70703.jpg,2868469411-287540.jpg,AH7Z2M3KSQ4DW_2022-10-18_12h28.46.444.csv
448,1.0,left,left,1.0,1.8979,0.0,28.0,28.0,28.0,1.0,2964216465-219242.jpg,2238544191-252422.jpg,AH7Z2M3KSQ4DW_2022-10-18_12h28.46.444.csv
449,3.0,right,left,0.0,3.6186,0.0,29.0,29.0,29.0,1.0,2986447332-371497.jpg,2512875899-126682.jpg,AH7Z2M3KSQ4DW_2022-10-18_12h28.46.444.csv
450,1.0,left,left,1.0,2.0132,0.0,30.0,30.0,30.0,1.0,2238572663-35822.jpg,2986419333-73361.jpg,AH7Z2M3KSQ4DW_2022-10-18_12h28.46.444.csv
451,3.0,left,left,1.0,1.8703,0.0,31.0,31.0,31.0,1.0,2592380177-354629.jpg,2512875587-350044.jpg,AH7Z2M3KSQ4DW_2022-10-18_12h28.46.444.csv
452,2.0,left,left,1.0,1.2195,0.0,32.0,32.0,32.0,1.0,2238480677-317399.jpg,2238573546-258454.jpg,AH7Z2M3KSQ4DW_2022-10-18_12h28.46.444.csv
453,3.0,left,left,1.0,1.3739,0.0,33.0,33.0,33.0,1.0,2898618390-216538.jpg,2575120609-129862.jpg,AH7Z2M3KSQ4DW_2022-10-18_12h28.46.444.csv
454,2.0,right,right,1.0,1.2021,0.0,34.0,34.0,34.0,1.0,2984615358-72439.jpg,2449441881-272368.jpg,AH7Z2M3KSQ4DW_2022-10-18_12h28.46.444.csv
455,1.0,left,left,1.0,1.2458,0.0,35.0,35.0,35.0,1.0,2883268471-290842.jpg,2883268471-290843.jpg,AH7Z2M3KSQ4DW_2022-10-18_12h28.46.444.csv
456,2.0,left,right,0.0,1.771,0.0,36.0,36.0,36.0,1.0,2446759803-49249.jpg,2898618440-216547.jpg,AH7Z2M3KSQ4DW_2022-10-18_12h28.46.444.csv
457,1.0,right,right,1.0,2.4214,0.0,37.0,37.0,37.0,1.0,2856919327-359676.jpg,2981241414-145842.jpg,AH7Z2M3KSQ4DW_2022-10-18_12h28.46.444.csv
458,3.0,left,left,1.0,1.653,0.0,38.0,38.0,38.0,1.0,2592380177-354626.jpg,2238117096-228518.jpg,AH7Z2M3KSQ4DW_2022-10-18_12h28.46.444.csv
459,1.0,right,left,0.0,1.8213,0.0,39.0,39.0,39.0,1.0,2238480434-93829.jpg,2458347385-199723.jpg,AH7Z2M3KSQ4DW_2022-10-18_12h28.46.444.csv
460,1.0,right,left,0.0,4.5262,0.0,40.0,40.0,40.0,1.0,2901942428-69919.jpg,2901939379-143480.jpg,AH7Z2M3KSQ4DW_2022-10-18_12h28.46.444.csv
461,1.0,left,left,1.0,1.4699,0.0,41.0,41.0,41.0,1.0,2874302418-65979.jpg,2413147898-43548.jpg,AH7Z2M3KSQ4DW_2022-10-18_12h28.46.444.csv
462,1.0,left,left,1.0,2.2484,0.0,42.0,42.0,42.0,1.0,2874302418-65978.jpg,2898626385-216899.jpg,AH7Z2M3KSQ4DW_2022-10-18_12h28.46.444.csv
463,3.0,right,right,1.0,1.9901,0.0,43.0,43.0,43.0,1.0,2981231446-294732.jpg,2964218374-144967.jpg,AH7Z2M3KSQ4DW_2022-10-18_12h28.46.444.csv
464,1.0,right,left,0.0,4.8849,0.0,44.0,44.0,44.0,1.0,2609793677-355397.jpg,2874303365-214262.jpg,AH7Z2M3KSQ4DW_2022-10-18_12h28.46.444.csv
465,1.0,right,right,1.0,2.1382,0.0,45.0,45.0,45.0,1.0,2883264367-365620.jpg,2238481928-19949.jpg,AH7Z2M3KSQ4DW_2022-10-18_12h28.46.444.csv
466,3.0,left,right,0.0,5.1166,0.0,46.0,46.0,46.0,1.0,2452381505-199546.jpg,2994401319-148290.jpg,AH7Z2M3KSQ4DW_2022-10-18_12h28.46.444.csv
467,2.0,right,right,1.0,1.5077,0.0,47.0,47.0,47.0,1.0,2458348012-349114.jpg,2964213381-294060.jpg,AH7Z2M3KSQ4DW_2022-10-18_12h28.46.444.csv
468,2.0,left,left,1.0,1.6209,0.0,48.0,48.0,48.0,1.0,2592379964-131054.jpg,2238479053-19457.jpg,AH7Z2M3KSQ4DW_2022-10-18_12h28.46.444.csv
469,3.0,right,right,1.0,2.0868,0.0,49.0,49.0,49.0,1.0,2981246360-220352.jpg,2901948350-218459.jpg,AH7Z2M3KSQ4DW_2022-10-18_12h28.46.444.csv
470,2.0,left,right,0.0,1.1558,0.0,50.0,50.0,50.0,1.0,2446758985-197609.jpg,2864909447-362144.jpg,AH7Z2M3KSQ4DW_2022-10-18_12h28.46.444.csv
471,3.0,left,left,1.0,5.4196,0.0,51.0,51.0,51.0,1.0,2898617468-68274.jpg,2964207374-144577.jpg,AH7Z2M3KSQ4DW_2022-10-18_12h28.46.444.csv
472,2.0,right,right,1.0,2.5395,0.0,52.0,52.0,52.0,1.0,2238555262-330312.jpg,2898618444-142233.jpg,AH7Z2M3KSQ4DW_2022-10-18_12h28.46.444.csv
473,3.0,right,right,1.0,2.8537,0.0,53.0,53.0,53.0,1.0,2238480980-168129.jpg,2238560245-182099.jpg,AH7Z2M3KSQ4DW_2022-10-18_12h28.46.444.csv
474,3.0,left,right,0.0,1.9257,0.0,54.0,54.0,54.0,1.0,2874299429-139695.jpg,2446760917-347439.jpg,AH7Z2M3KSQ4DW_2022-10-18_12h28.46.444.csv
475,2.0,right,left,0.0,3.8863,0.0,55.0,55.0,55.0,1.0,2901946436-293242.jpg,2238481198-19822.jpg,AH7Z2M3KSQ4DW_2022-10-18_12h28.46.444.csv
476,2.0,left,right,0.0,1.807,0.0,56.0,56.0,56.0,1.0,2901941401-292798.jpg,2981243412-370222.jpg,AH7Z2M3KSQ4DW_2022-10-18_12h28.46.444.csv
477,1.0,left,left,1.0,2.8945,0.0,57.0,57.0,57.0,1.0,2238425482-313537.jpg,2238471391-240918.jpg,AH7Z2M3KSQ4DW_2022-10-18_12h28.46.444.csv
478,2.0,left,right,0.0,3.5506,0.0,58.0,58.0,58.0,1.0,2864910426-287204.jpg,2874299429-139694.jpg,AH7Z2M3KSQ4DW_2022-10-18_12h28.46.444.csv
479,1.0,left,right,0.0,1.4553,0.0,59.0,59.0,59.0,1.0,2460547508-51571.jpg,2460547291-274110.jpg,AH7Z2M3KSQ4DW_2022-10-18_12h28.46.444.csv
480,3.0,left,right,0.0,2.0759,0.0,0.0,0.0,0.0,1.0,2901947423-70311.jpg,2238577590-185467.jpg,A3VG8YYPGF02CA_2022-10-18_20h50.07.967.csv
481,1.0,left,right,0.0,0.7153,0.0,1.0,1.0,1.0,1.0,2898618444-142233.jpg,2898631359-142721.jpg,A3VG8YYPGF02CA_2022-10-18_20h50.07.967.csv
482,3.0,right,right,1.0,0.3078,0.0,2.0,2.0,2.0,1.0,2901939433-69672.jpg,2864910426-287204.jpg,A3VG8YYPGF02CA_2022-10-18_20h50.07.967.csv
483,2.0,right,right,1.0,0.54,0.0,3.0,3.0,3.0,1.0,2238481813-19930.jpg,2452380832-348593.jpg,A3VG8YYPGF02CA_2022-10-18_20h50.07.967.csv
484,2.0,left,right,0.0,0.5023,0.0,4.0,4.0,4.0,1.0,2901939379-143479.jpg,2446758985-197610.jpg,A3VG8YYPGF02CA_2022-10-18_20h50.07.967.csv
485,1.0,left,right,0.0,0.3278,0.0,5.0,5.0,5.0,1.0,2238425482-313537.jpg,2238471391-240918.jpg,A3VG8YYPGF02CA_2022-10-18_20h50.07.967.csv
486,3.0,left,left,1.0,0.1699,0.0,6.0,6.0,6.0,1.0,2575120738-55529.jpg,2238531493-28260.jpg,A3VG8YYPGF02CA_2022-10-18_20h50.07.967.csv
487,3.0,right,right,1.0,0.0797,0.0,7.0,7.0,7.0,1.0,2964217461-294238.jpg,2898634397-367080.jpg,A3VG8YYPGF02CA_2022-10-18_20h50.07.967.csv
488,1.0,left,left,1.0,0.1327,0.0,8.0,8.0,8.0,1.0,2460547508-51571.jpg,2460547291-274110.jpg,A3VG8YYPGF02CA_2022-10-18_20h50.07.967.csv
489,2.0,left,right,0.0,0.1094,0.0,9.0,9.0,9.0,1.0,2238481928-19949.jpg,2864900357-361688.jpg,A3VG8YYPGF02CA_2022-10-18_20h50.07.967.csv
490,3.0,right,left,0.0,0.113,0.0,10.0,10.0,10.0,1.0,2964207374-144577.jpg,2898617468-68274.jpg,A3VG8YYPGF02CA_2022-10-18_20h50.07.967.csv
491,1.0,left,right,0.0,0.1056,0.0,11.0,11.0,11.0,1.0,2864907432-362042.jpg,2864901420-212147.jpg,A3VG8YYPGF02CA_2022-10-18_20h50.07.967.csv
492,1.0,right,left,0.0,0.1084,0.0,12.0,12.0,12.0,1.0,2898618327-366317.jpg,2901941401-292798.jpg,A3VG8YYPGF02CA_2022-10-18_20h50.07.967.csv
493,2.0,left,right,0.0,0.09,0.0,13.0,13.0,13.0,1.0,2964218374-144967.jpg,2883254439-140940.jpg,A3VG8YYPGF02CA_2022-10-18_20h50.07.967.csv
494,2.0,left,left,1.0,0.1129,0.0,14.0,14.0,14.0,1.0,2898633421-291973.jpg,2575118671-277663.jpg,A3VG8YYPGF02CA_2022-10-18_20h50.07.967.csv
495,1.0,right,right,1.0,0.1055,0.0,15.0,15.0,15.0,1.0,2446759803-49251.jpg,2449442529-124446.jpg,A3VG8YYPGF02CA_2022-10-18_20h50.07.967.csv
496,3.0,right,left,0.0,0.0984,0.0,16.0,16.0,16.0,1.0,2964220333-71258.jpg,2238580740-186218.jpg,A3VG8YYPGF02CA_2022-10-18_20h50.07.967.csv
497,3.0,right,right,1.0,0.1099,0.0,17.0,17.0,17.0,1.0,2901947448-70314.jpg,2883268471-290842.jpg,A3VG8YYPGF02CA_2022-10-18_20h50.07.967.csv
498,1.0,left,left,1.0,0.0888,0.0,18.0,18.0,18.0,1.0,2452381505-199546.jpg,2901938432-367627.jpg,A3VG8YYPGF02CA_2022-10-18_20h50.07.967.csv
499,3.0,left,right,0.0,0.1071,0.0,19.0,19.0,19.0,1.0,2512875899-126682.jpg,2986447332-371497.jpg,A3VG8YYPGF02CA_2022-10-18_20h50.07.967.csv
500,2.0,left,left,1.0,0.0873,0.0,20.0,20.0,20.0,1.0,2238481198-19822.jpg,2901946436-293242.jpg,A3VG8YYPGF02CA_2022-10-18_20h50.07.967.csv
501,1.0,left,right,0.0,0.1106,0.0,21.0,21.0,21.0,1.0,2238560245-182099.jpg,2549106624-127823.jpg,A3VG8YYPGF02CA_2022-10-18_20h50.07.967.csv
502,3.0,left,left,1.0,0.0969,0.0,22.0,22.0,22.0,1.0,2898635428-69104.jpg,2898625336-291572.jpg,A3VG8YYPGF02CA_2022-10-18_20h50.07.967.csv
503,3.0,left,right,0.0,0.0696,0.0,23.0,23.0,23.0,1.0,2592380177-354629.jpg,2512875587-350044.jpg,A3VG8YYPGF02CA_2022-10-18_20h50.07.967.csv
504,2.0,left,left,1.0,0.095,0.0,24.0,24.0,24.0,1.0,2446759347-347016.jpg,2901951350-218702.jpg,A3VG8YYPGF02CA_2022-10-18_20h50.07.967.csv
505,3.0,right,right,1.0,0.0978,0.0,25.0,25.0,25.0,1.0,2898632385-217137.jpg,2449442529-124445.jpg,A3VG8YYPGF02CA_2022-10-18_20h50.07.967.csv
506,3.0,right,left,0.0,0.0814,0.0,26.0,26.0,26.0,1.0,2238117096-228518.jpg,2592380177-354626.jpg,A3VG8YYPGF02CA_2022-10-18_20h50.07.967.csv
507,3.0,right,right,1.0,0.0895,0.0,27.0,27.0,27.0,1.0,2864903351-286874.jpg,2238572663-35822.jpg,A3VG8YYPGF02CA_2022-10-18_20h50.07.967.csv
508,1.0,right,left,0.0,0.0937,0.0,28.0,28.0,28.0,1.0,2898618440-216545.jpg,2460547467-349422.jpg,A3VG8YYPGF02CA_2022-10-18_20h50.07.967.csv
509,1.0,left,right,0.0,0.0856,0.0,29.0,29.0,29.0,1.0,2592379964-131054.jpg,2575963989-130576.jpg,A3VG8YYPGF02CA_2022-10-18_20h50.07.967.csv
510,2.0,right,left,0.0,0.15,0.0,30.0,30.0,30.0,1.0,2458348012-349114.jpg,2964213381-294060.jpg,A3VG8YYPGF02CA_2022-10-18_20h50.07.967.csv
511,1.0,right,right,1.0,0.0671,0.0,31.0,31.0,31.0,1.0,2238480434-93829.jpg,2458347385-199723.jpg,A3VG8YYPGF02CA_2022-10-18_20h50.07.967.csv
512,1.0,right,left,0.0,0.1127,0.0,32.0,32.0,32.0,1.0,2446760601-272099.jpg,2446759803-49249.jpg,A3VG8YYPGF02CA_2022-10-18_20h50.07.967.csv
513,2.0,left,right,0.0,0.0937,0.0,33.0,33.0,33.0,1.0,2874303365-214262.jpg,2238563377-332054.jpg,A3VG8YYPGF02CA_2022-10-18_20h50.07.967.csv
514,2.0,right,left,0.0,0.1345,0.0,34.0,34.0,34.0,1.0,2981244403-72215.jpg,2981231403-71642.jpg,A3VG8YYPGF02CA_2022-10-18_20h50.07.967.csv
515,1.0,left,right,0.0,0.1022,0.0,35.0,35.0,35.0,1.0,2460547467-349421.jpg,2898631394-142727.jpg,A3VG8YYPGF02CA_2022-10-18_20h50.07.967.csv
516,3.0,left,left,1.0,0.1258,0.0,36.0,36.0,36.0,1.0,2883268412-365898.jpg,2238436252-314037.jpg,A3VG8YYPGF02CA_2022-10-18_20h50.07.967.csv
517,1.0,right,right,1.0,0.1152,0.0,37.0,37.0,37.0,1.0,2238544191-252422.jpg,2964216465-219242.jpg,A3VG8YYPGF02CA_2022-10-18_20h50.07.967.csv
518,1.0,right,left,0.0,0.1284,0.0,38.0,38.0,38.0,1.0,2981240424-145795.jpg,2446758985-197609.jpg,A3VG8YYPGF02CA_2022-10-18_20h50.07.967.csv
519,2.0,right,right,1.0,0.1014,0.0,39.0,39.0,39.0,1.0,2417208001-267065.jpg,2901948350-218459.jpg,A3VG8YYPGF02CA_2022-10-18_20h50.07.967.csv
520,2.0,right,left,0.0,0.1122,0.0,40.0,40.0,40.0,1.0,2984615361-295509.jpg,2238428357-313623.jpg,A3VG8YYPGF02CA_2022-10-18_20h50.07.967.csv
521,2.0,right,right,1.0,0.1073,0.0,41.0,41.0,41.0,1.0,2981246400-220365.jpg,2874307433-66280.jpg,A3VG8YYPGF02CA_2022-10-18_20h50.07.967.csv
522,1.0,right,left,0.0,0.1364,0.0,42.0,42.0,42.0,1.0,2898626385-216899.jpg,2874302418-65978.jpg,A3VG8YYPGF02CA_2022-10-18_20h50.07.967.csv
523,2.0,right,right,1.0,0.0993,0.0,43.0,43.0,43.0,1.0,2901941438-69836.jpg,2964223381-294447.jpg,A3VG8YYPGF02CA_2022-10-18_20h50.07.967.csv
524,1.0,left,left,1.0,0.1327,0.0,44.0,44.0,44.0,1.0,2874302418-65979.jpg,2413147898-43548.jpg,A3VG8YYPGF02CA_2022-10-18_20h50.07.967.csv
525,1.0,right,right,1.0,0.0998,0.0,45.0,45.0,45.0,1.0,2901942428-69919.jpg,2901939379-143480.jpg,A3VG8YYPGF02CA_2022-10-18_20h50.07.967.csv
526,3.0,left,left,1.0,0.1263,0.0,46.0,46.0,46.0,1.0,2874299429-139695.jpg,2446760917-347439.jpg,A3VG8YYPGF02CA_2022-10-18_20h50.07.967.csv
527,3.0,left,right,0.0,0.1149,0.0,47.0,47.0,47.0,1.0,2981241414-145842.jpg,2427873848-47312.jpg,A3VG8YYPGF02CA_2022-10-18_20h50.07.967.csv
528,3.0,right,left,0.0,0.1167,0.0,48.0,48.0,48.0,1.0,2868474407-362885.jpg,2868475410-213219.jpg,A3VG8YYPGF02CA_2022-10-18_20h50.07.967.csv
529,3.0,left,right,0.0,0.1047,0.0,49.0,49.0,49.0,1.0,2898624426-291546.jpg,2981235446-294900.jpg,A3VG8YYPGF02CA_2022-10-18_20h50.07.967.csv
530,2.0,right,left,0.0,0.1385,0.0,50.0,50.0,50.0,1.0,2964210336-293945.jpg,2883256307-365057.jpg,A3VG8YYPGF02CA_2022-10-18_20h50.07.967.csv
531,2.0,right,right,1.0,0.0947,0.0,51.0,51.0,51.0,1.0,2984615358-72439.jpg,2449441881-272368.jpg,A3VG8YYPGF02CA_2022-10-18_20h50.07.967.csv
532,1.0,left,left,1.0,0.1672,0.0,52.0,52.0,52.0,1.0,2898618390-216538.jpg,2986449336-296644.jpg,A3VG8YYPGF02CA_2022-10-18_20h50.07.967.csv
533,2.0,left,right,0.0,0.0944,0.0,53.0,53.0,53.0,1.0,2868474407-362883.jpg,2981246400-220363.jpg,A3VG8YYPGF02CA_2022-10-18_20h50.07.967.csv
534,2.0,right,left,0.0,0.1775,0.0,54.0,54.0,54.0,1.0,2868469411-287540.jpg,2901952513-70703.jpg,A3VG8YYPGF02CA_2022-10-18_20h50.07.967.csv
535,1.0,left,right,0.0,0.1259,0.0,55.0,55.0,55.0,1.0,2238480677-317399.jpg,2238481630-168218.jpg,A3VG8YYPGF02CA_2022-10-18_20h50.07.967.csv
536,3.0,right,left,0.0,0.1477,0.0,56.0,56.0,56.0,1.0,2901947323-70275.jpg,2874301407-363895.jpg,A3VG8YYPGF02CA_2022-10-18_20h50.07.967.csv
537,2.0,right,right,1.0,0.128,0.0,57.0,57.0,57.0,1.0,2868479517-363220.jpg,2898635427-367120.jpg,A3VG8YYPGF02CA_2022-10-18_20h50.07.967.csv
538,2.0,left,left,1.0,0.1376,0.0,58.0,58.0,58.0,1.0,2986451363-73599.jpg,2860302315-210704.jpg,A3VG8YYPGF02CA_2022-10-18_20h50.07.967.csv
539,3.0,right,right,1.0,0.1438,0.0,59.0,59.0,59.0,1.0,2981231446-294730.jpg,2883254439-140941.jpg,A3VG8YYPGF02CA_2022-10-18_20h50.07.967.csv
540,3.0,right,right,1.0,1.5787,0.0,0.0,0.0,0.0,1.0,2864911457-362260.jpg,2874303365-214262.jpg,A37R0JYAB3QEX9_2022-10-18_08h02.39.722.csv
541,3.0,right,left,0.0,1.6076,0.0,1.0,1.0,1.0,1.0,2994401319-148290.jpg,2452381505-199546.jpg,A37R0JYAB3QEX9_2022-10-18_08h02.39.722.csv
542,2.0,right,right,1.0,1.2959,0.0,2.0,2.0,2.0,1.0,2575118671-277663.jpg,2898633421-291973.jpg,A37R0JYAB3QEX9_2022-10-18_08h02.39.722.csv
543,1.0,left,left,1.0,1.3981,0.0,3.0,3.0,3.0,1.0,2512875899-126682.jpg,2460547536-274179.jpg,A37R0JYAB3QEX9_2022-10-18_08h02.39.722.csv
544,1.0,left,right,0.0,1.4553,0.0,4.0,4.0,4.0,1.0,2864907432-362042.jpg,2864901420-212147.jpg,A37R0JYAB3QEX9_2022-10-18_08h02.39.722.csv
545,3.0,right,left,0.0,2.4631,0.0,5.0,5.0,5.0,1.0,2238578544-111698.jpg,2874302418-65979.jpg,A37R0JYAB3QEX9_2022-10-18_08h02.39.722.csv
546,2.0,right,right,1.0,2.2435,0.0,6.0,6.0,6.0,1.0,2238481813-19930.jpg,2452380832-348593.jpg,A37R0JYAB3QEX9_2022-10-18_08h02.39.722.csv
547,2.0,right,right,1.0,1.2096,0.0,7.0,7.0,7.0,1.0,2874301404-139813.jpg,2981241414-145842.jpg,A37R0JYAB3QEX9_2022-10-18_08h02.39.722.csv
548,3.0,left,left,1.0,1.041,0.0,8.0,8.0,8.0,1.0,2238428357-313623.jpg,2575121987-353817.jpg,A37R0JYAB3QEX9_2022-10-18_08h02.39.722.csv
549,2.0,left,left,1.0,1.1899,0.0,9.0,9.0,9.0,1.0,2898635428-69104.jpg,2901943411-292945.jpg,A37R0JYAB3QEX9_2022-10-18_08h02.39.722.csv
550,3.0,right,right,1.0,1.3626,0.0,10.0,10.0,10.0,1.0,2883273443-68193.jpg,2901941401-292798.jpg,A37R0JYAB3QEX9_2022-10-18_08h02.39.722.csv
551,3.0,left,left,1.0,1.5109,0.0,11.0,11.0,11.0,1.0,2446759347-347016.jpg,2238569117-333045.jpg,A37R0JYAB3QEX9_2022-10-18_08h02.39.722.csv
552,3.0,left,left,1.0,2.0056,0.0,12.0,12.0,12.0,1.0,2874302418-65978.jpg,2898633321-291943.jpg,A37R0JYAB3QEX9_2022-10-18_08h02.39.722.csv
553,3.0,left,left,1.0,1.8898,0.0,13.0,13.0,13.0,1.0,2446758985-197609.jpg,2898624426-291544.jpg,A37R0JYAB3QEX9_2022-10-18_08h02.39.722.csv
554,1.0,left,left,1.0,2.9114,0.0,14.0,14.0,14.0,1.0,2575120738-55529.jpg,2898632385-217138.jpg,A37R0JYAB3QEX9_2022-10-18_08h02.39.722.csv
555,1.0,right,right,1.0,1.5949,0.0,15.0,15.0,15.0,1.0,2986447306-296584.jpg,2874307433-66280.jpg,A37R0JYAB3QEX9_2022-10-18_08h02.39.722.csv
556,2.0,left,left,1.0,1.0661,0.0,16.0,16.0,16.0,1.0,2898617468-68274.jpg,2901943387-368037.jpg,A37R0JYAB3QEX9_2022-10-18_08h02.39.722.csv
557,2.0,right,left,0.0,1.2991,0.0,17.0,17.0,17.0,1.0,2981244403-72215.jpg,2981231403-71642.jpg,A37R0JYAB3QEX9_2022-10-18_08h02.39.722.csv
558,2.0,left,left,1.0,1.4639,0.0,18.0,18.0,18.0,1.0,2874299429-139695.jpg,2901942443-69923.jpg,A37R0JYAB3QEX9_2022-10-18_08h02.39.722.csv
559,2.0,right,right,1.0,1.1375,0.0,19.0,19.0,19.0,1.0,2874299429-139694.jpg,2864910426-287204.jpg,A37R0JYAB3QEX9_2022-10-18_08h02.39.722.csv
560,2.0,right,right,1.0,2.076,0.0,20.0,20.0,20.0,1.0,2868469411-287540.jpg,2901952513-70703.jpg,A37R0JYAB3QEX9_2022-10-18_08h02.39.722.csv
561,1.0,left,right,0.0,1.4584,0.0,21.0,21.0,21.0,1.0,2460547467-349421.jpg,2898631394-142727.jpg,A37R0JYAB3QEX9_2022-10-18_08h02.39.722.csv
562,3.0,left,left,1.0,0.9403,0.0,22.0,22.0,22.0,1.0,2460547467-349422.jpg,2864909447-362146.jpg,A37R0JYAB3QEX9_2022-10-18_08h02.39.722.csv
563,3.0,left,left,1.0,2.4431,0.0,23.0,23.0,23.0,1.0,2874301407-363895.jpg,2901947323-70275.jpg,A37R0JYAB3QEX9_2022-10-18_08h02.39.722.csv
564,3.0,left,right,0.0,1.7656,0.0,24.0,24.0,24.0,1.0,2238481928-19949.jpg,2981241419-145844.jpg,A37R0JYAB3QEX9_2022-10-18_08h02.39.722.csv
565,3.0,right,right,1.0,1.7753,0.0,25.0,25.0,25.0,1.0,2864903351-286874.jpg,2238572663-35822.jpg,A37R0JYAB3QEX9_2022-10-18_08h02.39.722.csv
566,1.0,right,right,1.0,1.7417,0.0,26.0,26.0,26.0,1.0,2984626312-370849.jpg,2883268412-365898.jpg,A37R0JYAB3QEX9_2022-10-18_08h02.39.722.csv
567,1.0,left,left,1.0,1.0926,0.0,27.0,27.0,27.0,1.0,2458347385-199723.jpg,2238480434-93829.jpg,A37R0JYAB3QEX9_2022-10-18_08h02.39.722.csv
568,2.0,left,left,1.0,1.5667,0.0,28.0,28.0,28.0,1.0,2901939379-143480.jpg,2981229442-369621.jpg,A37R0JYAB3QEX9_2022-10-18_08h02.39.722.csv
569,1.0,right,right,1.0,1.0294,0.0,29.0,29.0,29.0,1.0,2981244394-145974.jpg,2964213381-294060.jpg,A37R0JYAB3QEX9_2022-10-18_08h02.39.722.csv
570,2.0,right,right,1.0,1.459,0.0,30.0,30.0,30.0,1.0,2883255450-215310.jpg,2883268471-290842.jpg,A37R0JYAB3QEX9_2022-10-18_08h02.39.722.csv
571,1.0,right,right,1.0,1.5793,0.0,31.0,31.0,31.0,1.0,2460547291-274110.jpg,2460547508-51571.jpg,A37R0JYAB3QEX9_2022-10-18_08h02.39.722.csv
572,1.0,left,left,1.0,1.918,0.0,32.0,32.0,32.0,1.0,2592379964-131054.jpg,2575963989-130576.jpg,A37R0JYAB3QEX9_2022-10-18_08h02.39.722.csv
573,1.0,left,left,1.0,1.5012,0.0,33.0,33.0,33.0,1.0,2868474407-362883.jpg,2238516618-25604.jpg,A37R0JYAB3QEX9_2022-10-18_08h02.39.722.csv
574,1.0,right,right,1.0,2.1754,0.0,34.0,34.0,34.0,1.0,2986449336-296644.jpg,2898618390-216538.jpg,A37R0JYAB3QEX9_2022-10-18_08h02.39.722.csv
575,1.0,left,left,1.0,1.3011,0.0,35.0,35.0,35.0,1.0,2449441881-272368.jpg,2883268412-365899.jpg,A37R0JYAB3QEX9_2022-10-18_08h02.39.722.csv
576,1.0,left,left,1.0,2.9373,0.0,36.0,36.0,36.0,1.0,2238580740-186218.jpg,2238550816-254000.jpg,A37R0JYAB3QEX9_2022-10-18_08h02.39.722.csv
577,3.0,right,left,0.0,2.3076,0.0,37.0,37.0,37.0,1.0,2898632385-217137.jpg,2449442529-124445.jpg,A37R0JYAB3QEX9_2022-10-18_08h02.39.722.csv
578,3.0,left,left,1.0,1.4542,0.0,38.0,38.0,38.0,1.0,2898624426-291546.jpg,2981235446-294900.jpg,A37R0JYAB3QEX9_2022-10-18_08h02.39.722.csv
579,3.0,left,left,1.0,1.767,0.0,39.0,39.0,39.0,1.0,2986451363-73599.jpg,2238434559-90406.jpg,A37R0JYAB3QEX9_2022-10-18_08h02.39.722.csv
580,3.0,right,left,0.0,1.776,0.0,40.0,40.0,40.0,1.0,2981240424-145794.jpg,2901939379-143479.jpg,A37R0JYAB3QEX9_2022-10-18_08h02.39.722.csv
581,3.0,left,left,1.0,6.1052,0.0,41.0,41.0,41.0,1.0,2964218374-144967.jpg,2981231446-294732.jpg,A37R0JYAB3QEX9_2022-10-18_08h02.39.722.csv
582,2.0,right,right,1.0,1.908,0.0,42.0,42.0,42.0,1.0,2864900319-137787.jpg,2964216465-219242.jpg,A37R0JYAB3QEX9_2022-10-18_08h02.39.722.csv
583,1.0,left,left,1.0,1.7142,0.0,43.0,43.0,43.0,1.0,2898635427-367120.jpg,2901946439-144040.jpg,A37R0JYAB3QEX9_2022-10-18_08h02.39.722.csv
584,3.0,left,left,1.0,1.4536,0.0,44.0,44.0,44.0,1.0,2898618444-142233.jpg,2898618444-142232.jpg,A37R0JYAB3QEX9_2022-10-18_08h02.39.722.csv
585,1.0,right,right,1.0,1.9797,0.0,45.0,45.0,45.0,1.0,2860312398-62572.jpg,2901947423-70311.jpg,A37R0JYAB3QEX9_2022-10-18_08h02.39.722.csv
586,1.0,right,right,1.0,1.3851,0.0,46.0,46.0,46.0,1.0,2549106624-127823.jpg,2238560245-182099.jpg,A37R0JYAB3QEX9_2022-10-18_08h02.39.722.csv
587,2.0,left,left,1.0,1.8815,0.0,47.0,47.0,47.0,1.0,2238481198-19822.jpg,2901946436-293242.jpg,A37R0JYAB3QEX9_2022-10-18_08h02.39.722.csv
588,2.0,right,right,1.0,1.6041,0.0,48.0,48.0,48.0,1.0,2417208001-267065.jpg,2901948350-218459.jpg,A37R0JYAB3QEX9_2022-10-18_08h02.39.722.csv
589,2.0,right,right,1.0,1.8564,0.0,49.0,49.0,49.0,1.0,2579432534-130704.jpg,2592380177-354629.jpg,A37R0JYAB3QEX9_2022-10-18_08h02.39.722.csv
590,2.0,left,left,1.0,1.3413,0.0,50.0,50.0,50.0,1.0,2238425482-313537.jpg,2238436322-314047.jpg,A37R0JYAB3QEX9_2022-10-18_08h02.39.722.csv
591,2.0,right,right,1.0,1.6889,0.0,51.0,51.0,51.0,1.0,2898632385-217136.jpg,2883254439-140941.jpg,A37R0JYAB3QEX9_2022-10-18_08h02.39.722.csv
592,1.0,left,left,1.0,1.3365,0.0,52.0,52.0,52.0,1.0,2964223381-294447.jpg,2427874231-269884.jpg,A37R0JYAB3QEX9_2022-10-18_08h02.39.722.csv
593,3.0,left,right,0.0,2.1006,0.0,53.0,53.0,53.0,1.0,2883256307-365057.jpg,2864904453-63933.jpg,A37R0JYAB3QEX9_2022-10-18_08h02.39.722.csv
594,2.0,left,left,1.0,2.8953,0.0,54.0,54.0,54.0,1.0,2238480677-317399.jpg,2238573546-258454.jpg,A37R0JYAB3QEX9_2022-10-18_08h02.39.722.csv
595,3.0,right,left,0.0,1.6414,0.0,55.0,55.0,55.0,1.0,2964217461-294238.jpg,2898634397-367080.jpg,A37R0JYAB3QEX9_2022-10-18_08h02.39.722.csv
596,2.0,left,right,0.0,1.973,0.0,56.0,56.0,56.0,1.0,2449442529-124446.jpg,2460547536-274181.jpg,A37R0JYAB3QEX9_2022-10-18_08h02.39.722.csv
597,2.0,left,left,1.0,1.1291,0.0,57.0,57.0,57.0,1.0,2592380177-354626.jpg,2864901386-286797.jpg,A37R0JYAB3QEX9_2022-10-18_08h02.39.722.csv
598,1.0,left,right,0.0,1.8258,0.0,58.0,58.0,58.0,1.0,2868475410-213219.jpg,2901946465-218350.jpg,A37R0JYAB3QEX9_2022-10-18_08h02.39.722.csv
599,1.0,left,left,1.0,1.6543,0.0,59.0,59.0,59.0,1.0,2446759803-49249.jpg,2446760601-272099.jpg,A37R0JYAB3QEX9_2022-10-18_08h02.39.722.csv
600,3.0,right,right,1.0,1.7056,0.0,0.0,0.0,0.0,1.0,2864911457-362260.jpg,2874303365-214262.jpg,A34H7SANVXDBFA_2022-10-18_09h55.18.742.csv
601,3.0,right,left,0.0,1.6208,0.0,1.0,1.0,1.0,1.0,2994401319-148290.jpg,2452381505-199546.jpg,A34H7SANVXDBFA_2022-10-18_09h55.18.742.csv
602,2.0,right,right,1.0,4.3068,0.0,2.0,2.0,2.0,1.0,2575118671-277663.jpg,2898633421-291973.jpg,A34H7SANVXDBFA_2022-10-18_09h55.18.742.csv
603,1.0,left,left,1.0,1.9785,0.0,3.0,3.0,3.0,1.0,2512875899-126682.jpg,2460547536-274179.jpg,A34H7SANVXDBFA_2022-10-18_09h55.18.742.csv
604,1.0,left,left,1.0,2.4235,0.0,4.0,4.0,4.0,1.0,2864907432-362042.jpg,2864901420-212147.jpg,A34H7SANVXDBFA_2022-10-18_09h55.18.742.csv
605,3.0,right,right,1.0,1.9965,0.0,5.0,5.0,5.0,1.0,2238578544-111698.jpg,2874302418-65979.jpg,A34H7SANVXDBFA_2022-10-18_09h55.18.742.csv
606,2.0,right,right,1.0,1.9531,0.0,6.0,6.0,6.0,1.0,2238481813-19930.jpg,2452380832-348593.jpg,A34H7SANVXDBFA_2022-10-18_09h55.18.742.csv
607,2.0,right,right,1.0,1.9545,0.0,7.0,7.0,7.0,1.0,2874301404-139813.jpg,2981241414-145842.jpg,A34H7SANVXDBFA_2022-10-18_09h55.18.742.csv
608,3.0,left,right,0.0,1.9402,0.0,8.0,8.0,8.0,1.0,2238428357-313623.jpg,2575121987-353817.jpg,A34H7SANVXDBFA_2022-10-18_09h55.18.742.csv
609,2.0,left,left,1.0,1.6326,0.0,9.0,9.0,9.0,1.0,2898635428-69104.jpg,2901943411-292945.jpg,A34H7SANVXDBFA_2022-10-18_09h55.18.742.csv
610,3.0,right,left,0.0,1.7291,0.0,10.0,10.0,10.0,1.0,2883273443-68193.jpg,2901941401-292798.jpg,A34H7SANVXDBFA_2022-10-18_09h55.18.742.csv
611,3.0,left,left,1.0,1.8003,0.0,11.0,11.0,11.0,1.0,2446759347-347016.jpg,2238569117-333045.jpg,A34H7SANVXDBFA_2022-10-18_09h55.18.742.csv
612,3.0,left,left,1.0,1.9745,0.0,12.0,12.0,12.0,1.0,2874302418-65978.jpg,2898633321-291943.jpg,A34H7SANVXDBFA_2022-10-18_09h55.18.742.csv
613,3.0,left,left,1.0,1.8137,0.0,13.0,13.0,13.0,1.0,2446758985-197609.jpg,2898624426-291544.jpg,A34H7SANVXDBFA_2022-10-18_09h55.18.742.csv
614,1.0,left,left,1.0,1.7657,0.0,14.0,14.0,14.0,1.0,2575120738-55529.jpg,2898632385-217138.jpg,A34H7SANVXDBFA_2022-10-18_09h55.18.742.csv
615,1.0,right,right,1.0,1.8219,0.0,15.0,15.0,15.0,1.0,2986447306-296584.jpg,2874307433-66280.jpg,A34H7SANVXDBFA_2022-10-18_09h55.18.742.csv
616,2.0,left,left,1.0,1.8142,0.0,16.0,16.0,16.0,1.0,2898617468-68274.jpg,2901943387-368037.jpg,A34H7SANVXDBFA_2022-10-18_09h55.18.742.csv
617,2.0,right,left,0.0,1.9484,0.0,17.0,17.0,17.0,1.0,2981244403-72215.jpg,2981231403-71642.jpg,A34H7SANVXDBFA_2022-10-18_09h55.18.742.csv
618,2.0,left,left,1.0,2.1608,0.0,18.0,18.0,18.0,1.0,2874299429-139695.jpg,2901942443-69923.jpg,A34H7SANVXDBFA_2022-10-18_09h55.18.742.csv
619,2.0,right,right,1.0,2.4081,0.0,19.0,19.0,19.0,1.0,2874299429-139694.jpg,2864910426-287204.jpg,A34H7SANVXDBFA_2022-10-18_09h55.18.742.csv
620,2.0,right,left,0.0,2.1487,0.0,20.0,20.0,20.0,1.0,2868469411-287540.jpg,2901952513-70703.jpg,A34H7SANVXDBFA_2022-10-18_09h55.18.742.csv
621,1.0,left,left,1.0,1.6857,0.0,21.0,21.0,21.0,1.0,2460547467-349421.jpg,2898631394-142727.jpg,A34H7SANVXDBFA_2022-10-18_09h55.18.742.csv
622,3.0,left,left,1.0,1.9656,0.0,22.0,22.0,22.0,1.0,2460547467-349422.jpg,2864909447-362146.jpg,A34H7SANVXDBFA_2022-10-18_09h55.18.742.csv
623,3.0,left,left,1.0,2.072,0.0,23.0,23.0,23.0,1.0,2874301407-363895.jpg,2901947323-70275.jpg,A34H7SANVXDBFA_2022-10-18_09h55.18.742.csv
624,3.0,left,left,1.0,1.823,0.0,24.0,24.0,24.0,1.0,2238481928-19949.jpg,2981241419-145844.jpg,A34H7SANVXDBFA_2022-10-18_09h55.18.742.csv
625,3.0,right,left,0.0,2.1008,0.0,25.0,25.0,25.0,1.0,2864903351-286874.jpg,2238572663-35822.jpg,A34H7SANVXDBFA_2022-10-18_09h55.18.742.csv
626,1.0,right,left,0.0,2.0824,0.0,26.0,26.0,26.0,1.0,2984626312-370849.jpg,2883268412-365898.jpg,A34H7SANVXDBFA_2022-10-18_09h55.18.742.csv
627,1.0,left,left,1.0,1.7554,0.0,27.0,27.0,27.0,1.0,2458347385-199723.jpg,2238480434-93829.jpg,A34H7SANVXDBFA_2022-10-18_09h55.18.742.csv
628,2.0,left,left,1.0,1.9902,0.0,28.0,28.0,28.0,1.0,2901939379-143480.jpg,2981229442-369621.jpg,A34H7SANVXDBFA_2022-10-18_09h55.18.742.csv
629,1.0,right,right,1.0,2.0068,0.0,29.0,29.0,29.0,1.0,2981244394-145974.jpg,2964213381-294060.jpg,A34H7SANVXDBFA_2022-10-18_09h55.18.742.csv
630,2.0,right,left,0.0,1.9706,0.0,30.0,30.0,30.0,1.0,2883255450-215310.jpg,2883268471-290842.jpg,A34H7SANVXDBFA_2022-10-18_09h55.18.742.csv
631,1.0,right,right,1.0,1.775,0.0,31.0,31.0,31.0,1.0,2460547291-274110.jpg,2460547508-51571.jpg,A34H7SANVXDBFA_2022-10-18_09h55.18.742.csv
632,1.0,left,right,0.0,1.9352,0.0,32.0,32.0,32.0,1.0,2592379964-131054.jpg,2575963989-130576.jpg,A34H7SANVXDBFA_2022-10-18_09h55.18.742.csv
633,1.0,left,right,0.0,2.055,0.0,33.0,33.0,33.0,1.0,2868474407-362883.jpg,2238516618-25604.jpg,A34H7SANVXDBFA_2022-10-18_09h55.18.742.csv
634,1.0,right,right,1.0,2.4705,0.0,34.0,34.0,34.0,1.0,2986449336-296644.jpg,2898618390-216538.jpg,A34H7SANVXDBFA_2022-10-18_09h55.18.742.csv
635,1.0,left,left,1.0,2.1711,0.0,35.0,35.0,35.0,1.0,2449441881-272368.jpg,2883268412-365899.jpg,A34H7SANVXDBFA_2022-10-18_09h55.18.742.csv
636,1.0,left,left,1.0,2.5327,0.0,36.0,36.0,36.0,1.0,2238580740-186218.jpg,2238550816-254000.jpg,A34H7SANVXDBFA_2022-10-18_09h55.18.742.csv
637,3.0,right,right,1.0,2.3764,0.0,37.0,37.0,37.0,1.0,2898632385-217137.jpg,2449442529-124445.jpg,A34H7SANVXDBFA_2022-10-18_09h55.18.742.csv
638,3.0,left,left,1.0,2.1104,0.0,38.0,38.0,38.0,1.0,2898624426-291546.jpg,2981235446-294900.jpg,A34H7SANVXDBFA_2022-10-18_09h55.18.742.csv
639,3.0,left,left,1.0,2.4582,0.0,39.0,39.0,39.0,1.0,2986451363-73599.jpg,2238434559-90406.jpg,A34H7SANVXDBFA_2022-10-18_09h55.18.742.csv
640,3.0,right,right,1.0,2.1768,0.0,40.0,40.0,40.0,1.0,2981240424-145794.jpg,2901939379-143479.jpg,A34H7SANVXDBFA_2022-10-18_09h55.18.742.csv
641,3.0,left,right,0.0,1.9624,0.0,41.0,41.0,41.0,1.0,2964218374-144967.jpg,2981231446-294732.jpg,A34H7SANVXDBFA_2022-10-18_09h55.18.742.csv
642,2.0,right,left,0.0,1.9783,0.0,42.0,42.0,42.0,1.0,2864900319-137787.jpg,2964216465-219242.jpg,A34H7SANVXDBFA_2022-10-18_09h55.18.742.csv
643,1.0,left,left,1.0,1.7537,0.0,43.0,43.0,43.0,1.0,2898635427-367120.jpg,2901946439-144040.jpg,A34H7SANVXDBFA_2022-10-18_09h55.18.742.csv
644,3.0,left,left,1.0,2.6895,0.0,44.0,44.0,44.0,1.0,2898618444-142233.jpg,2898618444-142232.jpg,A34H7SANVXDBFA_2022-10-18_09h55.18.742.csv
645,1.0,right,left,0.0,2.6433,0.0,45.0,45.0,45.0,1.0,2860312398-62572.jpg,2901947423-70311.jpg,A34H7SANVXDBFA_2022-10-18_09h55.18.742.csv
646,1.0,right,right,1.0,2.6203,0.0,46.0,46.0,46.0,1.0,2549106624-127823.jpg,2238560245-182099.jpg,A34H7SANVXDBFA_2022-10-18_09h55.18.742.csv
647,2.0,left,left,1.0,2.8936,0.0,47.0,47.0,47.0,1.0,2238481198-19822.jpg,2901946436-293242.jpg,A34H7SANVXDBFA_2022-10-18_09h55.18.742.csv
648,2.0,right,right,1.0,2.3686,0.0,48.0,48.0,48.0,1.0,2417208001-267065.jpg,2901948350-218459.jpg,A34H7SANVXDBFA_2022-10-18_09h55.18.742.csv
649,2.0,right,left,0.0,2.29,0.0,49.0,49.0,49.0,1.0,2579432534-130704.jpg,2592380177-354629.jpg,A34H7SANVXDBFA_2022-10-18_09h55.18.742.csv
650,2.0,left,right,0.0,2.0992,0.0,50.0,50.0,50.0,1.0,2238425482-313537.jpg,2238436322-314047.jpg,A34H7SANVXDBFA_2022-10-18_09h55.18.742.csv
651,2.0,right,left,0.0,1.6859,0.0,51.0,51.0,51.0,1.0,2898632385-217136.jpg,2883254439-140941.jpg,A34H7SANVXDBFA_2022-10-18_09h55.18.742.csv
652,1.0,left,right,0.0,2.0259,0.0,52.0,52.0,52.0,1.0,2964223381-294447.jpg,2427874231-269884.jpg,A34H7SANVXDBFA_2022-10-18_09h55.18.742.csv
653,3.0,left,right,0.0,1.9262,0.0,53.0,53.0,53.0,1.0,2883256307-365057.jpg,2864904453-63933.jpg,A34H7SANVXDBFA_2022-10-18_09h55.18.742.csv
654,2.0,left,right,0.0,1.8936,0.0,54.0,54.0,54.0,1.0,2238480677-317399.jpg,2238573546-258454.jpg,A34H7SANVXDBFA_2022-10-18_09h55.18.742.csv
655,3.0,right,left,0.0,1.9405,0.0,55.0,55.0,55.0,1.0,2964217461-294238.jpg,2898634397-367080.jpg,A34H7SANVXDBFA_2022-10-18_09h55.18.742.csv
656,2.0,left,left,1.0,1.6647,0.0,56.0,56.0,56.0,1.0,2449442529-124446.jpg,2460547536-274181.jpg,A34H7SANVXDBFA_2022-10-18_09h55.18.742.csv
657,2.0,left,left,1.0,1.7524,0.0,57.0,57.0,57.0,1.0,2592380177-354626.jpg,2864901386-286797.jpg,A34H7SANVXDBFA_2022-10-18_09h55.18.742.csv
658,1.0,left,right,0.0,1.6055,0.0,58.0,58.0,58.0,1.0,2868475410-213219.jpg,2901946465-218350.jpg,A34H7SANVXDBFA_2022-10-18_09h55.18.742.csv
659,1.0,left,left,1.0,1.5798,0.0,59.0,59.0,59.0,1.0,2446759803-49249.jpg,2446760601-272099.jpg,A34H7SANVXDBFA_2022-10-18_09h55.18.742.csv
660,3.0,right,right,1.0,3.7578,0.0,0.0,0.0,0.0,1.0,2981235446-294901.jpg,2460547467-349421.jpg,A2EZ5YR6PJ6XX0_2022-10-18_09h54.44.998.csv
661,3.0,left,right,0.0,0.3996,0.0,1.0,1.0,1.0,1.0,2964216465-219242.jpg,2898619327-366362.jpg,A2EZ5YR6PJ6XX0_2022-10-18_09h54.44.998.csv
662,2.0,left,right,0.0,0.1904,0.0,2.0,2.0,2.0,1.0,2592380177-354626.jpg,2864901386-286797.jpg,A2EZ5YR6PJ6XX0_2022-10-18_09h54.44.998.csv
663,1.0,left,right,0.0,0.7051,0.0,3.0,3.0,3.0,1.0,2901939379-143480.jpg,2901942428-69919.jpg,A2EZ5YR6PJ6XX0_2022-10-18_09h54.44.998.csv
664,2.0,right,left,0.0,0.4393,0.0,4.0,4.0,4.0,1.0,2868487415-213924.jpg,2460547467-349422.jpg,A2EZ5YR6PJ6XX0_2022-10-18_09h54.44.998.csv
665,1.0,right,right,1.0,0.2024,0.0,5.0,5.0,5.0,1.0,2238499057-320266.jpg,2238428357-313623.jpg,A2EZ5YR6PJ6XX0_2022-10-18_09h54.44.998.csv
666,3.0,right,left,0.0,0.323,0.0,6.0,6.0,6.0,1.0,2238436252-314037.jpg,2883268412-365898.jpg,A2EZ5YR6PJ6XX0_2022-10-18_09h54.44.998.csv
667,2.0,right,right,1.0,0.0557,0.0,7.0,7.0,7.0,1.0,2981246400-220363.jpg,2868474407-362883.jpg,A2EZ5YR6PJ6XX0_2022-10-18_09h54.44.998.csv
668,2.0,right,right,1.0,0.2238,0.0,8.0,8.0,8.0,1.0,2860302315-210704.jpg,2986451363-73599.jpg,A2EZ5YR6PJ6XX0_2022-10-18_09h54.44.998.csv
669,1.0,left,left,1.0,0.2107,0.0,9.0,9.0,9.0,1.0,2898624426-291546.jpg,2964218432-369263.jpg,A2EZ5YR6PJ6XX0_2022-10-18_09h54.44.998.csv
670,3.0,left,right,0.0,0.2215,0.0,10.0,10.0,10.0,1.0,2868475410-213219.jpg,2868474407-362885.jpg,A2EZ5YR6PJ6XX0_2022-10-18_09h54.44.998.csv
671,3.0,left,right,0.0,0.3693,0.0,11.0,11.0,11.0,1.0,2238480677-317399.jpg,2238480278-19661.jpg,A2EZ5YR6PJ6XX0_2022-10-18_09h54.44.998.csv
672,1.0,right,right,1.0,0.4406,0.0,12.0,12.0,12.0,1.0,2575963989-130576.jpg,2592379964-131054.jpg,A2EZ5YR6PJ6XX0_2022-10-18_09h54.44.998.csv
673,1.0,left,right,0.0,0.0754,0.0,13.0,13.0,13.0,1.0,2864907432-362042.jpg,2864901420-212147.jpg,A2EZ5YR6PJ6XX0_2022-10-18_09h54.44.998.csv
674,3.0,right,right,1.0,0.1592,0.0,14.0,14.0,14.0,1.0,2981231446-294730.jpg,2883254439-140941.jpg,A2EZ5YR6PJ6XX0_2022-10-18_09h54.44.998.csv
675,1.0,left,right,0.0,0.1357,0.0,15.0,15.0,15.0,1.0,2575120738-55529.jpg,2898632385-217138.jpg,A2EZ5YR6PJ6XX0_2022-10-18_09h54.44.998.csv
676,2.0,right,right,1.0,0.1523,0.0,16.0,16.0,16.0,1.0,2981243412-370222.jpg,2901941401-292798.jpg,A2EZ5YR6PJ6XX0_2022-10-18_09h54.44.998.csv
677,3.0,right,right,1.0,0.5857,0.0,17.0,17.0,17.0,1.0,2986447332-371497.jpg,2512875899-126682.jpg,A2EZ5YR6PJ6XX0_2022-10-18_09h54.44.998.csv
678,2.0,left,right,0.0,0.151,0.0,18.0,18.0,18.0,1.0,2898633421-291973.jpg,2575118671-277663.jpg,A2EZ5YR6PJ6XX0_2022-10-18_09h54.44.998.csv
679,3.0,right,right,1.0,0.3278,0.0,19.0,19.0,19.0,1.0,2994401319-148290.jpg,2452381505-199546.jpg,A2EZ5YR6PJ6XX0_2022-10-18_09h54.44.998.csv
680,3.0,right,right,1.0,0.1375,0.0,20.0,20.0,20.0,1.0,2981231446-294732.jpg,2964218374-144967.jpg,A2EZ5YR6PJ6XX0_2022-10-18_09h54.44.998.csv
681,2.0,left,right,0.0,0.1608,0.0,21.0,21.0,21.0,1.0,2460547508-51571.jpg,2981232437-369759.jpg,A2EZ5YR6PJ6XX0_2022-10-18_09h54.44.998.csv
682,2.0,left,right,0.0,0.1201,0.0,22.0,22.0,22.0,1.0,2592380177-354629.jpg,2579432534-130704.jpg,A2EZ5YR6PJ6XX0_2022-10-18_09h54.44.998.csv
683,2.0,left,left,1.0,0.2687,0.0,23.0,23.0,23.0,1.0,2452380832-348593.jpg,2238481813-19930.jpg,A2EZ5YR6PJ6XX0_2022-10-18_09h54.44.998.csv
684,2.0,left,right,0.0,0.4351,0.0,24.0,24.0,24.0,1.0,2446759803-49249.jpg,2898618440-216547.jpg,A2EZ5YR6PJ6XX0_2022-10-18_09h54.44.998.csv
685,1.0,right,left,0.0,0.4688,0.0,25.0,25.0,25.0,1.0,2883266388-67750.jpg,2874299429-139695.jpg,A2EZ5YR6PJ6XX0_2022-10-18_09h54.44.998.csv
686,3.0,right,right,1.0,0.3214,0.0,26.0,26.0,26.0,1.0,2964213381-294061.jpg,2964213381-294060.jpg,A2EZ5YR6PJ6XX0_2022-10-18_09h54.44.998.csv
687,1.0,right,right,1.0,0.3337,0.0,27.0,27.0,27.0,1.0,2864902304-137862.jpg,2864910426-287204.jpg,A2EZ5YR6PJ6XX0_2022-10-18_09h54.44.998.csv
688,1.0,right,right,1.0,0.1492,0.0,28.0,28.0,28.0,1.0,2427874231-269884.jpg,2964223381-294447.jpg,A2EZ5YR6PJ6XX0_2022-10-18_09h54.44.998.csv
689,3.0,right,left,0.0,0.1844,0.0,29.0,29.0,29.0,1.0,2427873763-47290.jpg,2981231403-71642.jpg,A2EZ5YR6PJ6XX0_2022-10-18_09h54.44.998.csv
690,3.0,right,right,1.0,0.1773,0.0,30.0,30.0,30.0,1.0,2898633321-291943.jpg,2874302418-65978.jpg,A2EZ5YR6PJ6XX0_2022-10-18_09h54.44.998.csv
691,3.0,left,left,1.0,0.0019,0.0,31.0,31.0,31.0,1.0,2458347385-199723.jpg,2458347252-348911.jpg,A2EZ5YR6PJ6XX0_2022-10-18_09h54.44.998.csv
692,2.0,right,right,1.0,0.3434,0.0,32.0,32.0,32.0,1.0,2874314526-289684.jpg,2238560245-182099.jpg,A2EZ5YR6PJ6XX0_2022-10-18_09h54.44.998.csv
693,2.0,right,left,0.0,0.1731,0.0,33.0,33.0,33.0,1.0,2460547536-274181.jpg,2449442529-124446.jpg,A2EZ5YR6PJ6XX0_2022-10-18_09h54.44.998.csv
694,1.0,left,right,0.0,0.0044,0.0,34.0,34.0,34.0,1.0,2874307433-66280.jpg,2986447306-296584.jpg,A2EZ5YR6PJ6XX0_2022-10-18_09h54.44.998.csv
695,1.0,left,left,1.0,0.1933,0.0,35.0,35.0,35.0,1.0,2898634397-367080.jpg,2237944827-301472.jpg,A2EZ5YR6PJ6XX0_2022-10-18_09h54.44.998.csv
696,3.0,left,left,1.0,0.1557,0.0,36.0,36.0,36.0,1.0,2898618444-142233.jpg,2898618444-142232.jpg,A2EZ5YR6PJ6XX0_2022-10-18_09h54.44.998.csv
697,2.0,right,left,0.0,0.1432,0.0,37.0,37.0,37.0,1.0,2238571930-184143.jpg,2238572663-35822.jpg,A2EZ5YR6PJ6XX0_2022-10-18_09h54.44.998.csv
698,3.0,right,right,1.0,0.0021,0.0,38.0,38.0,38.0,1.0,2898621427-366486.jpg,2898635427-367120.jpg,A2EZ5YR6PJ6XX0_2022-10-18_09h54.44.998.csv
699,1.0,left,right,0.0,0.1116,0.0,39.0,39.0,39.0,1.0,2898617468-68274.jpg,2864906345-212360.jpg,A2EZ5YR6PJ6XX0_2022-10-18_09h54.44.998.csv
700,1.0,left,right,0.0,0.1843,0.0,40.0,40.0,40.0,1.0,2238481928-19949.jpg,2883264367-365620.jpg,A2EZ5YR6PJ6XX0_2022-10-18_09h54.44.998.csv
701,2.0,right,right,1.0,0.1293,0.0,41.0,41.0,41.0,1.0,2901943411-292945.jpg,2898635428-69104.jpg,A2EZ5YR6PJ6XX0_2022-10-18_09h54.44.998.csv
702,1.0,right,right,1.0,0.148,0.0,42.0,42.0,42.0,1.0,2611628310-206388.jpg,2883256307-365057.jpg,A2EZ5YR6PJ6XX0_2022-10-18_09h54.44.998.csv
703,2.0,left,left,1.0,0.0042,0.0,43.0,43.0,43.0,1.0,2449442529-124445.jpg,2986408373-73286.jpg,A2EZ5YR6PJ6XX0_2022-10-18_09h54.44.998.csv
704,3.0,left,left,1.0,0.1299,0.0,44.0,44.0,44.0,1.0,2901952513-70703.jpg,2238481198-19821.jpg,A2EZ5YR6PJ6XX0_2022-10-18_09h54.44.998.csv
705,3.0,left,left,1.0,0.1613,0.0,45.0,45.0,45.0,1.0,2449441881-272368.jpg,2449441881-272367.jpg,A2EZ5YR6PJ6XX0_2022-10-18_09h54.44.998.csv
706,3.0,right,left,0.0,0.1191,0.0,46.0,46.0,46.0,1.0,2864911457-362260.jpg,2874303365-214262.jpg,A2EZ5YR6PJ6XX0_2022-10-18_09h54.44.998.csv
707,3.0,left,left,1.0,0.1125,0.0,47.0,47.0,47.0,1.0,2901948350-218459.jpg,2981246360-220352.jpg,A2EZ5YR6PJ6XX0_2022-10-18_09h54.44.998.csv
708,2.0,left,right,0.0,0.0679,0.0,48.0,48.0,48.0,1.0,2898618390-216538.jpg,2901939327-367670.jpg,A2EZ5YR6PJ6XX0_2022-10-18_09h54.44.998.csv
709,1.0,right,left,0.0,0.1069,0.0,49.0,49.0,49.0,1.0,2413147898-43548.jpg,2874302418-65979.jpg,A2EZ5YR6PJ6XX0_2022-10-18_09h54.44.998.csv
710,1.0,right,right,1.0,0.0021,0.0,50.0,50.0,50.0,1.0,2460547467-349423.jpg,2901939379-143479.jpg,A2EZ5YR6PJ6XX0_2022-10-18_09h54.44.998.csv
711,1.0,left,left,1.0,0.1162,0.0,51.0,51.0,51.0,1.0,2446758985-197609.jpg,2981240424-145795.jpg,A2EZ5YR6PJ6XX0_2022-10-18_09h54.44.998.csv
712,2.0,left,right,0.0,0.0109,0.0,52.0,52.0,52.0,1.0,2874301407-363895.jpg,2986397322-371109.jpg,A2EZ5YR6PJ6XX0_2022-10-18_09h54.44.998.csv
713,1.0,left,left,1.0,0.1231,0.0,53.0,53.0,53.0,1.0,2238425482-313537.jpg,2238471391-240918.jpg,A2EZ5YR6PJ6XX0_2022-10-18_09h54.44.998.csv
714,1.0,left,left,1.0,0.1389,0.0,54.0,54.0,54.0,1.0,2883268471-290842.jpg,2883268471-290843.jpg,A2EZ5YR6PJ6XX0_2022-10-18_09h54.44.998.csv
715,2.0,right,right,1.0,0.191,0.0,55.0,55.0,55.0,1.0,2901951350-218702.jpg,2446759347-347016.jpg,A2EZ5YR6PJ6XX0_2022-10-18_09h54.44.998.csv
716,3.0,right,left,0.0,0.0027,0.0,56.0,56.0,56.0,1.0,2964220333-71258.jpg,2238580740-186218.jpg,A2EZ5YR6PJ6XX0_2022-10-18_09h54.44.998.csv
717,2.0,right,right,1.0,0.1359,0.0,57.0,57.0,57.0,1.0,2238573447-333826.jpg,2901947423-70311.jpg,A2EZ5YR6PJ6XX0_2022-10-18_09h54.44.998.csv
718,1.0,left,left,1.0,0.0072,0.0,58.0,58.0,58.0,1.0,2238481198-19822.jpg,2862691449-137104.jpg,A2EZ5YR6PJ6XX0_2022-10-18_09h54.44.998.csv
719,2.0,left,left,1.0,0.1258,0.0,59.0,59.0,59.0,1.0,2981241414-145842.jpg,2874301404-139813.jpg,A2EZ5YR6PJ6XX0_2022-10-18_09h54.44.998.csv
720,3.0,right,left,0.0,3.985,0.0,0.0,0.0,0.0,1.0,2981235446-294901.jpg,2460547467-349421.jpg,A12NT768CR36E5_2022-10-18_09h39.25.114.csv
