button.numClicks,button.timesOn,button.timesOff,workID,Age,Gender,Hours slept (last night),date,expName,psychopyVersion,OS,frameRate,space_key_responce.keys,space_key_responce.rt,demo_encoding_response.keys,demo_encoding_response.corr,demo_encoding_loop.thisRepN,demo_encoding_loop.thisTrialN,demo_encoding_loop.thisN,demo_encoding_loop.thisIndex,demo_encoding_loop.ran,DemoImage,DemoCorrect,demo_encoding_response.rt,demo_test_response.keys,demo_test_response.corr,demo_test_response.rt,demo_test_loop.thisRepN,demo_test_loop.thisTrialN,demo_test_loop.thisN,demo_test_loop.thisIndex,demo_test_loop.ran,DemoImage1,DemoImage2,DemoCorrectTest,test_encoding_response.keys,test_encoding_response.corr,trials.thisRepN,trials.thisTrialN,trials.thisN,trials.thisIndex,trials.ran,target_image,pair,layer,correct,test_encoding_response.rt,key_resp_end.keys,key_resp_end.rt,test_test_response.keys,test_test_response.corr,test_test_response.rt,trials_2.thisRepN,trials_2.thisTrialN,trials_2.thisN,trials_2.thisIndex,trials_2.ran,image1,image2,key_resp_end_2.keys,key_resp_end_2.rt
1,[13.831500000000005],[13.831700000001092],A1QG0HL1XSSGNU,25,FEMALE,8,2022-11-24_10h39.13.568,memory_pilot_most_recent,2022.2.4,Win32,30.00120005,,,,,,,,,,,,,,,,,,,,,,,,,,,,,,,,,,,,,,,,,,,,,,,,,
,,,A1QG0HL1XSSGNU,25,FEMALE,8,2022-11-24_10h39.13.568,memory_pilot_most_recent,2022.2.4,Win32,30.00120005,,,,,,,,,,,,,,,,,,,,,,,,,,,,,,,,,,,,,,,,,,,,,,,,,
,,,A1QG0HL1XSSGNU,25,FEMALE,8,2022-11-24_10h39.13.568,memory_pilot_most_recent,2022.2.4,Win32,30.00120005,space,25.3978,,,,,,,,,,,,,,,,,,,,,,,,,,,,,,,,,,,,,,,,,,,,,,,
,,,A1QG0HL1XSSGNU,25,FEMALE,8,2022-11-24_10h39.13.568,memory_pilot_most_recent,2022.2.4,Win32,30.00120005,,,,,,,,,,,,,,,,,,,,,,,,,,,,,,,,,,,,,,,,,,,,,,,,,
,,,A1QG0HL1XSSGNU,25,FEMALE,8,2022-11-24_10h39.13.568,memory_pilot_most_recent,2022.2.4,Win32,30.00120005,,,,1,0,0,0,0,1,flower1.jpg,,,,,,,,,,,,,,,,,,,,,,,,,,,,,,,,,,,,,,,
,,,A1QG0HL1XSSGNU,25,FEMALE,8,2022-11-24_10h39.13.568,memory_pilot_most_recent,2022.2.4,Win32,30.00120005,,,,1,0,1,1,1,1,flower2.jpg,,,,,,,,,,,,,,,,,,,,,,,,,,,,,,,,,,,,,,,
,,,A1QG0HL1XSSGNU,25,FEMALE,8,2022-11-24_10h39.13.568,memory_pilot_most_recent,2022.2.4,Win32,30.00120005,,,left,1,0,2,2,2,1,left.jpg,left,1.1418,,,,,,,,,,,,,,,,,,,,,,,,,,,,,,,,,,,,,
,,,A1QG0HL1XSSGNU,25,FEMALE,8,2022-11-24_10h39.13.568,memory_pilot_most_recent,2022.2.4,Win32,30.00120005,,,,1,0,3,3,3,1,flower3.jpg,,,,,,,,,,,,,,,,,,,,,,,,,,,,,,,,,,,,,,,
,,,A1QG0HL1XSSGNU,25,FEMALE,8,2022-11-24_10h39.13.568,memory_pilot_most_recent,2022.2.4,Win32,30.00120005,,,,1,0,4,4,4,1,flower4.jpg,,,,,,,,,,,,,,,,,,,,,,,,,,,,,,,,,,,,,,,
,,,A1QG0HL1XSSGNU,25,FEMALE,8,2022-11-24_10h39.13.568,memory_pilot_most_recent,2022.2.4,Win32,30.00120005,,,,1,0,5,5,5,1,flower5.jpg,,,,,,,,,,,,,,,,,,,,,,,,,,,,,,,,,,,,,,,
,,,A1QG0HL1XSSGNU,25,FEMALE,8,2022-11-24_10h39.13.568,memory_pilot_most_recent,2022.2.4,Win32,30.00120005,,,,1,0,6,6,6,1,flower6.jpg,,,,,,,,,,,,,,,,,,,,,,,,,,,,,,,,,,,,,,,
,,,A1QG0HL1XSSGNU,25,FEMALE,8,2022-11-24_10h39.13.568,memory_pilot_most_recent,2022.2.4,Win32,30.00120005,,,,,,,,,,,,,,,,,,,,,,,,,,,,,,,,,,,,,,,,,,,,,,,,,
,,,A1QG0HL1XSSGNU,25,FEMALE,8,2022-11-24_10h39.13.568,memory_pilot_most_recent,2022.2.4,Win32,30.00120005,,,,,,,,,,,,,left,1,6.5748,0,0,0,0,1,flower1.jpg,flower1_pair.jpg,left,,,,,,,,,,,,,,,,,,,,,,,,,,
,,,A1QG0HL1XSSGNU,25,FEMALE,8,2022-11-24_10h39.13.568,memory_pilot_most_recent,2022.2.4,Win32,30.00120005,,,,,,,,,,,,,left,0,8.2465,0,1,1,1,1,flower2_pair.jpg,flower2.jpg,right,,,,,,,,,,,,,,,,,,,,,,,,,,
,,,A1QG0HL1XSSGNU,25,FEMALE,8,2022-11-24_10h39.13.568,memory_pilot_most_recent,2022.2.4,Win32,30.00120005,,,,,,,,,,,,,left,1,8.7226,0,2,2,2,1,flower3.jpg,flower3_pair.jpg,left,,,,,,,,,,,,,,,,,,,,,,,,,,
,,,A1QG0HL1XSSGNU,25,FEMALE,8,2022-11-24_10h39.13.568,memory_pilot_most_recent,2022.2.4,Win32,30.00120005,,,,,,,,,,,,,left,1,2.9676,0,3,3,3,1,flower4.jpg,flower4_pair.jpg,left,,,,,,,,,,,,,,,,,,,,,,,,,,
,,,A1QG0HL1XSSGNU,25,FEMALE,8,2022-11-24_10h39.13.568,memory_pilot_most_recent,2022.2.4,Win32,30.00120005,,,,,,,,,,,,,left,0,5.3271,0,4,4,4,1,flower5_pair.jpg,flower5.jpg,right,,,,,,,,,,,,,,,,,,,,,,,,,,
,,,A1QG0HL1XSSGNU,25,FEMALE,8,2022-11-24_10h39.13.568,memory_pilot_most_recent,2022.2.4,Win32,30.00120005,,,,,,,,,,,,,left,1,2.2469,0,5,5,5,1,flower6.jpg,flower6_pair.jpg,left,,,,,,,,,,,,,,,,,,,,,,,,,,
,,,A1QG0HL1XSSGNU,25,FEMALE,8,2022-11-24_10h39.13.568,memory_pilot_most_recent,2022.2.4,Win32,30.00120005,,,,,,,,,,,,,,,,,,,,,,,,,,,,,,,,,,,,,,,,,,,,,,,,,
,,,A1QG0HL1XSSGNU,25,FEMALE,8,2022-11-24_10h39.13.568,memory_pilot_most_recent,2022.2.4,Win32,30.00120005,space,31.6919,,,,,,,,,,,,,,,,,,,,,,,,,,,,,,,,,,,,,,,,,,,,,,,
,,,A1QG0HL1XSSGNU,25,FEMALE,8,2022-11-24_10h39.13.568,memory_pilot_most_recent,2022.2.4,Win32,30.00120005,,,,,,,,,,,,,,,,,,,,,,,,,1,0,0,0,0,1,2238425482-313537.jpg,2981244403-72215.jpg,2,,,,,,,,,,,,,,,,
,,,A1QG0HL1XSSGNU,25,FEMALE,8,2022-11-24_10h39.13.568,memory_pilot_most_recent,2022.2.4,Win32,30.00120005,,,,,,,,,,,,,,,,,,,,,,,,,1,0,1,1,1,1,2874307433-66280.jpg,2986447306-296584.jpg,1,,,,,,,,,,,,,,,,
,,,A1QG0HL1XSSGNU,25,FEMALE,8,2022-11-24_10h39.13.568,memory_pilot_most_recent,2022.2.4,Win32,30.00120005,,,,,,,,,,,,,,,,,,,,,,,,,1,0,2,2,2,1,2592380177-354629.jpg,2901945495-218294.jpg,2,,,,,,,,,,,,,,,,
,,,A1QG0HL1XSSGNU,25,FEMALE,8,2022-11-24_10h39.13.568,memory_pilot_most_recent,2022.2.4,Win32,30.00120005,,,,,,,,,,,,,,,,,,,,,,,,,1,0,3,3,3,1,2883268412-365898.jpg,2984626312-370849.jpg,1,,,,,,,,,,,,,,,,
,,,A1QG0HL1XSSGNU,25,FEMALE,8,2022-11-24_10h39.13.568,memory_pilot_most_recent,2022.2.4,Win32,30.00120005,,,,,,,,,,,,,,,,,,,,,,,,,1,0,4,4,4,1,2883254439-140941.jpg,2964219379-144996.jpg,3,,,,,,,,,,,,,,,,
,,,A1QG0HL1XSSGNU,25,FEMALE,8,2022-11-24_10h39.13.568,memory_pilot_most_recent,2022.2.4,Win32,30.00120005,,,,,,,,,,,,,,,,,,,,,,,,,1,0,5,5,5,1,2446759803-49249.jpg,2238499155-170911.jpg,2,,,,,,,,,,,,,,,,
,,,A1QG0HL1XSSGNU,25,FEMALE,8,2022-11-24_10h39.13.568,memory_pilot_most_recent,2022.2.4,Win32,30.00120005,,,,,,,,,,,,,,,,,,,,,,,,,1,0,6,6,6,1,2964218374-144967.jpg,2446758985-197610.jpg,2,,,,,,,,,,,,,,,,
,,,A1QG0HL1XSSGNU,25,FEMALE,8,2022-11-24_10h39.13.568,memory_pilot_most_recent,2022.2.4,Win32,30.00120005,,,,,,,,,,,,,,,,,,,,,,,,,1,0,7,7,7,1,2460547467-349421.jpg,2898619327-366362.jpg,3,,,,,,,,,,,,,,,,
,,,A1QG0HL1XSSGNU,25,FEMALE,8,2022-11-24_10h39.13.568,memory_pilot_most_recent,2022.2.4,Win32,30.00120005,,,,,,,,,,,,,,,,,,,,,,,,,1,0,8,8,8,1,2981231403-71642.jpg,2274829821-263682.jpg,1,,,,,,,,,,,,,,,,
,,,A1QG0HL1XSSGNU,25,FEMALE,8,2022-11-24_10h39.13.568,memory_pilot_most_recent,2022.2.4,Win32,30.00120005,,,,,,,,,,,,,,,,,,,,,,,,,1,0,9,9,9,1,2449442529-124445.jpg,2901946439-144040.jpg,3,,,,,,,,,,,,,,,,
,,,A1QG0HL1XSSGNU,25,FEMALE,8,2022-11-24_10h39.13.568,memory_pilot_most_recent,2022.2.4,Win32,30.00120005,,,,,,,,,,,,,,,,,,,,,,,,,1,0,10,10,10,1,2898635427-367120.jpg,2964221435-219434.jpg,1,,,,,,,,,,,,,,,,
,,,A1QG0HL1XSSGNU,25,FEMALE,8,2022-11-24_10h39.13.568,memory_pilot_most_recent,2022.2.4,Win32,30.00120005,,,,,,,,,,,,,,,,,,,,,,,,left,1,0,11,11,11,1,left.jpg,,,left,2.8229,,,,,,,,,,,,,,
,,,A1QG0HL1XSSGNU,25,FEMALE,8,2022-11-24_10h39.13.568,memory_pilot_most_recent,2022.2.4,Win32,30.00120005,,,,,,,,,,,,,,,,,,,,,,,,,1,0,12,12,12,1,2898633421-291973.jpg,2989730319-147821.jpg,3,,,,,,,,,,,,,,,,
,,,A1QG0HL1XSSGNU,25,FEMALE,8,2022-11-24_10h39.13.568,memory_pilot_most_recent,2022.2.4,Win32,30.00120005,,,,,,,,,,,,,,,,,,,,,,,,,1,0,13,13,13,1,2449441881-272368.jpg,2898617374-142166.jpg,2,,,,,,,,,,,,,,,,
,,,A1QG0HL1XSSGNU,25,FEMALE,8,2022-11-24_10h39.13.568,memory_pilot_most_recent,2022.2.4,Win32,30.00120005,,,,,,,,,,,,,,,,,,,,,,,,,1,0,14,14,14,1,2238580740-186218.jpg,2874312404-140477.jpg,3,,,,,,,,,,,,,,,,
,,,A1QG0HL1XSSGNU,25,FEMALE,8,2022-11-24_10h39.13.568,memory_pilot_most_recent,2022.2.4,Win32,30.00120005,,,,,,,,,,,,,,,,,,,,,,,,,1,0,15,15,15,1,2446759347-347016.jpg,2864904415-212294.jpg,2,,,,,,,,,,,,,,,,
,,,A1QG0HL1XSSGNU,25,FEMALE,8,2022-11-24_10h39.13.568,memory_pilot_most_recent,2022.2.4,Win32,30.00120005,,,,,,,,,,,,,,,,,,,,,,,,,1,0,16,16,16,1,2901948350-218459.jpg,2868487415-213922.jpg,1,,,,,,,,,,,,,,,,
,,,A1QG0HL1XSSGNU,25,FEMALE,8,2022-11-24_10h39.13.568,memory_pilot_most_recent,2022.2.4,Win32,30.00120005,,,,,,,,,,,,,,,,,,,,,,,,,1,0,17,17,17,1,2874302418-65979.jpg,2238470808-18373.jpg,3,,,,,,,,,,,,,,,,
,,,A1QG0HL1XSSGNU,25,FEMALE,8,2022-11-24_10h39.13.568,memory_pilot_most_recent,2022.2.4,Win32,30.00120005,,,,,,,,,,,,,,,,,,,,,,,,,1,0,18,18,18,1,2452380832-348593.jpg,2238515978-25479.jpg,2,,,,,,,,,,,,,,,,
,,,A1QG0HL1XSSGNU,25,FEMALE,8,2022-11-24_10h39.13.568,memory_pilot_most_recent,2022.2.4,Win32,30.00120005,,,,,,,,,,,,,,,,,,,,,,,,,1,0,19,19,19,1,2898624426-291546.jpg,2898625336-291572.jpg,3,,,,,,,,,,,,,,,,
,,,A1QG0HL1XSSGNU,25,FEMALE,8,2022-11-24_10h39.13.568,memory_pilot_most_recent,2022.2.4,Win32,30.00120005,,,,,,,,,,,,,,,,,,,,,,,,,1,0,20,20,20,1,2868474407-362883.jpg,2898634332-367068.jpg,3,,,,,,,,,,,,,,,,
,,,A1QG0HL1XSSGNU,25,FEMALE,8,2022-11-24_10h39.13.568,memory_pilot_most_recent,2022.2.4,Win32,30.00120005,,,,,,,,,,,,,,,,,,,,,,,,,1,0,21,21,21,1,2238428357-313623.jpg,2238499057-320266.jpg,1,,,,,,,,,,,,,,,,
,,,A1QG0HL1XSSGNU,25,FEMALE,8,2022-11-24_10h39.13.568,memory_pilot_most_recent,2022.2.4,Win32,30.00120005,,,,,,,,,,,,,,,,,,,,,,,,left,1,0,22,22,22,1,left.jpg,,,left,1.6312,,,,,,,,,,,,,,
,,,A1QG0HL1XSSGNU,25,FEMALE,8,2022-11-24_10h39.13.568,memory_pilot_most_recent,2022.2.4,Win32,30.00120005,,,,,,,,,,,,,,,,,,,,,,,,,1,0,23,23,23,1,2874299429-139695.jpg,2874313394-140557.jpg,3,,,,,,,,,,,,,,,,
,,,A1QG0HL1XSSGNU,25,FEMALE,8,2022-11-24_10h39.13.568,memory_pilot_most_recent,2022.2.4,Win32,30.00120005,,,,,,,,,,,,,,,,,,,,,,,,,1,0,24,24,24,1,2901939379-143480.jpg,2981229442-369621.jpg,1,,,,,,,,,,,,,,,,
,,,A1QG0HL1XSSGNU,25,FEMALE,8,2022-11-24_10h39.13.568,memory_pilot_most_recent,2022.2.4,Win32,30.00120005,,,,,,,,,,,,,,,,,,,,,,,,,1,0,25,25,25,1,2874303365-214262.jpg,2609793677-355397.jpg,1,,,,,,,,,,,,,,,,
,,,A1QG0HL1XSSGNU,25,FEMALE,8,2022-11-24_10h39.13.568,memory_pilot_most_recent,2022.2.4,Win32,30.00120005,,,,,,,,,,,,,,,,,,,,,,,,,1,0,26,26,26,1,2883256307-365057.jpg,2901947448-70315.jpg,3,,,,,,,,,,,,,,,,
,,,A1QG0HL1XSSGNU,25,FEMALE,8,2022-11-24_10h39.13.568,memory_pilot_most_recent,2022.2.4,Win32,30.00120005,,,,,,,,,,,,,,,,,,,,,,,,,1,0,27,27,27,1,2592380177-354626.jpg,2238360787-310962.jpg,2,,,,,,,,,,,,,,,,
,,,A1QG0HL1XSSGNU,25,FEMALE,8,2022-11-24_10h39.13.568,memory_pilot_most_recent,2022.2.4,Win32,30.00120005,,,,,,,,,,,,,,,,,,,,,,,,,1,0,28,28,28,1,2512875899-126682.jpg,2238547107-328393.jpg,2,,,,,,,,,,,,,,,,
,,,A1QG0HL1XSSGNU,25,FEMALE,8,2022-11-24_10h39.13.568,memory_pilot_most_recent,2022.2.4,Win32,30.00120005,,,,,,,,,,,,,,,,,,,,,,,,,1,0,29,29,29,1,2901947423-70311.jpg,2874301385-214137.jpg,3,,,,,,,,,,,,,,,,
,,,A1QG0HL1XSSGNU,25,FEMALE,8,2022-11-24_10h39.13.568,memory_pilot_most_recent,2022.2.4,Win32,30.00120005,,,,,,,,,,,,,,,,,,,,,,,,,1,0,30,30,30,1,2238481198-19822.jpg,2862689306-285912.jpg,2,,,,,,,,,,,,,,,,
,,,A1QG0HL1XSSGNU,25,FEMALE,8,2022-11-24_10h39.13.568,memory_pilot_most_recent,2022.2.4,Win32,30.00120005,,,,,,,,,,,,,,,,,,,,,,,,left,1,0,31,31,31,1,left.jpg,,,left,1.2978,,,,,,,,,,,,,,
,,,A1QG0HL1XSSGNU,25,FEMALE,8,2022-11-24_10h39.13.568,memory_pilot_most_recent,2022.2.4,Win32,30.00120005,,,,,,,,,,,,,,,,,,,,,,,,,1,0,32,32,32,1,2901952513-70703.jpg,2864907361-287062.jpg,1,,,,,,,,,,,,,,,,
,,,A1QG0HL1XSSGNU,25,FEMALE,8,2022-11-24_10h39.13.568,memory_pilot_most_recent,2022.2.4,Win32,30.00120005,,,,,,,,,,,,,,,,,,,,,,,,,1,0,33,33,33,1,2575120738-55529.jpg,2898632385-217137.jpg,1,,,,,,,,,,,,,,,,
,,,A1QG0HL1XSSGNU,25,FEMALE,8,2022-11-24_10h39.13.568,memory_pilot_most_recent,2022.2.4,Win32,30.00120005,,,,,,,,,,,,,,,,,,,,,,,,,1,0,34,34,34,1,2592379964-131054.jpg,2427875694-122097.jpg,2,,,,,,,,,,,,,,,,
,,,A1QG0HL1XSSGNU,25,FEMALE,8,2022-11-24_10h39.13.568,memory_pilot_most_recent,2022.2.4,Win32,30.00120005,,,,,,,,,,,,,,,,,,,,,,,,,1,0,35,35,35,1,2964216465-219242.jpg,2238544191-252422.jpg,1,,,,,,,,,,,,,,,,
,,,A1QG0HL1XSSGNU,25,FEMALE,8,2022-11-24_10h39.13.568,memory_pilot_most_recent,2022.2.4,Win32,30.00120005,,,,,,,,,,,,,,,,,,,,,,,,,1,0,36,36,36,1,2964213381-294060.jpg,2981244394-145974.jpg,1,,,,,,,,,,,,,,,,
,,,A1QG0HL1XSSGNU,25,FEMALE,8,2022-11-24_10h39.13.568,memory_pilot_most_recent,2022.2.4,Win32,30.00120005,,,,,,,,,,,,,,,,,,,,,,,,,1,0,37,37,37,1,2458347385-199723.jpg,2512875824-126658.jpg,2,,,,,,,,,,,,,,,,
,,,A1QG0HL1XSSGNU,25,FEMALE,8,2022-11-24_10h39.13.568,memory_pilot_most_recent,2022.2.4,Win32,30.00120005,,,,,,,,,,,,,,,,,,,,,,,,,1,0,38,38,38,1,2460547508-51571.jpg,2446760917-347439.jpg,1,,,,,,,,,,,,,,,,
,,,A1QG0HL1XSSGNU,25,FEMALE,8,2022-11-24_10h39.13.568,memory_pilot_most_recent,2022.2.4,Win32,30.00120005,,,,,,,,,,,,,,,,,,,,,,,,,1,0,39,39,39,1,2452381505-199546.jpg,2449442621-272560.jpg,2,,,,,,,,,,,,,,,,
,,,A1QG0HL1XSSGNU,25,FEMALE,8,2022-11-24_10h39.13.568,memory_pilot_most_recent,2022.2.4,Win32,30.00120005,,,,,,,,,,,,,,,,,,,,,,,,,1,0,40,40,40,1,2898635428-69104.jpg,2864904390-212289.jpg,2,,,,,,,,,,,,,,,,
,,,A1QG0HL1XSSGNU,25,FEMALE,8,2022-11-24_10h39.13.568,memory_pilot_most_recent,2022.2.4,Win32,30.00120005,,,,,,,,,,,,,,,,,,,,,,,,,1,0,41,41,41,1,2898618390-216538.jpg,2238550049-105691.jpg,1,,,,,,,,,,,,,,,,
,,,A1QG0HL1XSSGNU,25,FEMALE,8,2022-11-24_10h39.13.568,memory_pilot_most_recent,2022.2.4,Win32,30.00120005,,,,,,,,,,,,,,,,,,,,,,,,,1,0,42,42,42,1,2901941401-292798.jpg,2883273443-68192.jpg,3,,,,,,,,,,,,,,,,
,,,A1QG0HL1XSSGNU,25,FEMALE,8,2022-11-24_10h39.13.568,memory_pilot_most_recent,2022.2.4,Win32,30.00120005,,,,,,,,,,,,,,,,,,,,,,,,,1,0,43,43,43,1,2898618444-142233.jpg,2804906319-133082.jpg,3,,,,,,,,,,,,,,,,
,,,A1QG0HL1XSSGNU,25,FEMALE,8,2022-11-24_10h39.13.568,memory_pilot_most_recent,2022.2.4,Win32,30.00120005,,,,,,,,,,,,,,,,,,,,,,,,left,1,0,44,44,44,1,left.jpg,,,left,1.7858,,,,,,,,,,,,,,
,,,A1QG0HL1XSSGNU,25,FEMALE,8,2022-11-24_10h39.13.568,memory_pilot_most_recent,2022.2.4,Win32,30.00120005,,,,,,,,,,,,,,,,,,,,,,,,,1,0,45,45,45,1,2964223381-294447.jpg,2964217461-294238.jpg,2,,,,,,,,,,,,,,,,
,,,A1QG0HL1XSSGNU,25,FEMALE,8,2022-11-24_10h39.13.568,memory_pilot_most_recent,2022.2.4,Win32,30.00120005,,,,,,,,,,,,,,,,,,,,,,,,,1,0,46,46,46,1,2238481928-19949.jpg,2989726338-74002.jpg,2,,,,,,,,,,,,,,,,
,,,A1QG0HL1XSSGNU,25,FEMALE,8,2022-11-24_10h39.13.568,memory_pilot_most_recent,2022.2.4,Win32,30.00120005,,,,,,,,,,,,,,,,,,,,,,,,,1,0,47,47,47,1,2883268471-290842.jpg,2883266367-365742.jpg,3,,,,,,,,,,,,,,,,
,,,A1QG0HL1XSSGNU,25,FEMALE,8,2022-11-24_10h39.13.568,memory_pilot_most_recent,2022.2.4,Win32,30.00120005,,,,,,,,,,,,,,,,,,,,,,,,,1,0,48,48,48,1,2868475410-213219.jpg,2901946465-218350.jpg,1,,,,,,,,,,,,,,,,
,,,A1QG0HL1XSSGNU,25,FEMALE,8,2022-11-24_10h39.13.568,memory_pilot_most_recent,2022.2.4,Win32,30.00120005,,,,,,,,,,,,,,,,,,,,,,,,,1,0,49,49,49,1,2874301407-363895.jpg,2989715317-371697.jpg,3,,,,,,,,,,,,,,,,
,,,A1QG0HL1XSSGNU,25,FEMALE,8,2022-11-24_10h39.13.568,memory_pilot_most_recent,2022.2.4,Win32,30.00120005,,,,,,,,,,,,,,,,,,,,,,,,,1,0,50,50,50,1,2238560245-182099.jpg,2238467949-92250.jpg,2,,,,,,,,,,,,,,,,
,,,A1QG0HL1XSSGNU,25,FEMALE,8,2022-11-24_10h39.13.568,memory_pilot_most_recent,2022.2.4,Win32,30.00120005,,,,,,,,,,,,,,,,,,,,,,,,right,1,0,51,51,51,1,right.jpg,,,right,1.5875,,,,,,,,,,,,,,
,,,A1QG0HL1XSSGNU,25,FEMALE,8,2022-11-24_10h39.13.568,memory_pilot_most_recent,2022.2.4,Win32,30.00120005,,,,,,,,,,,,,,,,,,,,,,,,,1,0,52,52,52,1,2898634397-367080.jpg,2446759306-271735.jpg,3,,,,,,,,,,,,,,,,
,,,A1QG0HL1XSSGNU,25,FEMALE,8,2022-11-24_10h39.13.568,memory_pilot_most_recent,2022.2.4,Win32,30.00120005,,,,,,,,,,,,,,,,,,,,,,,,,1,0,53,53,53,1,2864910426-287204.jpg,2898632427-367006.jpg,3,,,,,,,,,,,,,,,,
,,,A1QG0HL1XSSGNU,25,FEMALE,8,2022-11-24_10h39.13.568,memory_pilot_most_recent,2022.2.4,Win32,30.00120005,,,,,,,,,,,,,,,,,,,,,,,,,1,0,54,54,54,1,2874302418-65978.jpg,2238567130-183315.jpg,3,,,,,,,,,,,,,,,,
,,,A1QG0HL1XSSGNU,25,FEMALE,8,2022-11-24_10h39.13.568,memory_pilot_most_recent,2022.2.4,Win32,30.00120005,,,,,,,,,,,,,,,,,,,,,,,,,1,0,55,55,55,1,2460547467-349422.jpg,2898635428-69106.jpg,3,,,,,,,,,,,,,,,,
,,,A1QG0HL1XSSGNU,25,FEMALE,8,2022-11-24_10h39.13.568,memory_pilot_most_recent,2022.2.4,Win32,30.00120005,,,,,,,,,,,,,,,,,,,,,,,,,1,0,56,56,56,1,2238480677-317399.jpg,2238573546-258454.jpg,3,,,,,,,,,,,,,,,,
,,,A1QG0HL1XSSGNU,25,FEMALE,8,2022-11-24_10h39.13.568,memory_pilot_most_recent,2022.2.4,Win32,30.00120005,,,,,,,,,,,,,,,,,,,,,,,,,1,0,57,57,57,1,2986451363-73599.jpg,2238571930-184142.jpg,2,,,,,,,,,,,,,,,,
,,,A1QG0HL1XSSGNU,25,FEMALE,8,2022-11-24_10h39.13.568,memory_pilot_most_recent,2022.2.4,Win32,30.00120005,,,,,,,,,,,,,,,,,,,,,,,,,1,0,58,58,58,1,2864907432-362042.jpg,2864901420-212147.jpg,1,,,,,,,,,,,,,,,,
,,,A1QG0HL1XSSGNU,25,FEMALE,8,2022-11-24_10h39.13.568,memory_pilot_most_recent,2022.2.4,Win32,30.00120005,,,,,,,,,,,,,,,,,,,,,,,,,1,0,59,59,59,1,2898617468-68274.jpg,2238433340-164524.jpg,2,,,,,,,,,,,,,,,,
,,,A1QG0HL1XSSGNU,25,FEMALE,8,2022-11-24_10h39.13.568,memory_pilot_most_recent,2022.2.4,Win32,30.00120005,,,,,,,,,,,,,,,,,,,,,,,,,1,0,60,60,60,1,2446758985-197609.jpg,2452380166-273110.jpg,2,,,,,,,,,,,,,,,,
,,,A1QG0HL1XSSGNU,25,FEMALE,8,2022-11-24_10h39.13.568,memory_pilot_most_recent,2022.2.4,Win32,30.00120005,,,,,,,,,,,,,,,,,,,,,,,,,1,0,61,61,61,1,2901939379-143479.jpg,2446759803-49251.jpg,1,,,,,,,,,,,,,,,,
,,,A1QG0HL1XSSGNU,25,FEMALE,8,2022-11-24_10h39.13.568,memory_pilot_most_recent,2022.2.4,Win32,30.00120005,,,,,,,,,,,,,,,,,,,,,,,,,1,0,62,62,62,1,2449442529-124446.jpg,2452380171-273112.jpg,1,,,,,,,,,,,,,,,,
,,,A1QG0HL1XSSGNU,25,FEMALE,8,2022-11-24_10h39.13.568,memory_pilot_most_recent,2022.2.4,Win32,30.00120005,,,,,,,,,,,,,,,,,,,,,,,,,1,0,63,63,63,1,2981241414-145842.jpg,2856919327-359676.jpg,1,,,,,,,,,,,,,,,,
,,,A1QG0HL1XSSGNU,25,FEMALE,8,2022-11-24_10h39.13.568,memory_pilot_most_recent,2022.2.4,Win32,30.00120005,,,,,,,,,,,,,,,,,,,,,,,,,1,0,64,64,64,1,2238572663-35822.jpg,2575118671-277663.jpg,1,,,,,,,,,,,,,,,,
,,,A1QG0HL1XSSGNU,25,FEMALE,8,2022-11-24_10h39.13.568,memory_pilot_most_recent,2022.2.4,Win32,30.00120005,,,,,,,,,,,,,,,,,,,,,,,,,,,,,,,,,,,,space,7.0878,,,,,,,,,,,,
,,,A1QG0HL1XSSGNU,25,FEMALE,8,2022-11-24_10h39.13.568,memory_pilot_most_recent,2022.2.4,Win32,30.00120005,,,,,,,,,,,,,,,,,,,,,,,,,,,,,,,,,,,,,,,,,,,,,,,,,
,,,A1QG0HL1XSSGNU,25,FEMALE,8,2022-11-24_10h39.13.568,memory_pilot_most_recent,2022.2.4,Win32,30.00120005,,,,,,,,,,,,,,,,,,,,,,,,,,,,,,,,,3,left,,,,left,1,4.7692,0,0,0,0,1,2874302418-65979.jpg,2238470808-18373.jpg,,
,,,A1QG0HL1XSSGNU,25,FEMALE,8,2022-11-24_10h39.13.568,memory_pilot_most_recent,2022.2.4,Win32,30.00120005,,,,,,,,,,,,,,,,,,,,,,,,,,,,,,,,,1,right,,,,right,1,41.4954,0,1,1,1,1,2964221435-219434.jpg,2898635427-367120.jpg,,
,,,A1QG0HL1XSSGNU,25,FEMALE,8,2022-11-24_10h39.13.568,memory_pilot_most_recent,2022.2.4,Win32,30.00120005,,,,,,,,,,,,,,,,,,,,,,,,,,,,,,,,,1,right,,,,right,1,1.5729,0,2,2,2,1,2575118671-277663.jpg,2238572663-35822.jpg,,
,,,A1QG0HL1XSSGNU,25,FEMALE,8,2022-11-24_10h39.13.568,memory_pilot_most_recent,2022.2.4,Win32,30.00120005,,,,,,,,,,,,,,,,,,,,,,,,,,,,,,,,,3,left,,,,left,1,3.2439,0,3,3,3,1,2238580740-186218.jpg,2874312404-140477.jpg,,
,,,A1QG0HL1XSSGNU,25,FEMALE,8,2022-11-24_10h39.13.568,memory_pilot_most_recent,2022.2.4,Win32,30.00120005,,,,,,,,,,,,,,,,,,,,,,,,,,,,,,,,,1,left,,,,left,1,2.03,0,4,4,4,1,2449442529-124446.jpg,2452380171-273112.jpg,,
,,,A1QG0HL1XSSGNU,25,FEMALE,8,2022-11-24_10h39.13.568,memory_pilot_most_recent,2022.2.4,Win32,30.00120005,,,,,,,,,,,,,,,,,,,,,,,,,,,,,,,,,2,left,,,,left,1,1.9389,0,5,5,5,1,2452381505-199546.jpg,2449442621-272560.jpg,,
,,,A1QG0HL1XSSGNU,25,FEMALE,8,2022-11-24_10h39.13.568,memory_pilot_most_recent,2022.2.4,Win32,30.00120005,,,,,,,,,,,,,,,,,,,,,,,,,,,,,,,,,1,right,,,,right,1,3.1735,0,6,6,6,1,2981229442-369621.jpg,2901939379-143480.jpg,,
,,,A1QG0HL1XSSGNU,25,FEMALE,8,2022-11-24_10h39.13.568,memory_pilot_most_recent,2022.2.4,Win32,30.00120005,,,,,,,,,,,,,,,,,,,,,,,,,,,,,,,,,2,left,,,,left,1,2.8121,0,7,7,7,1,2446758985-197609.jpg,2452380166-273110.jpg,,
,,,A1QG0HL1XSSGNU,25,FEMALE,8,2022-11-24_10h39.13.568,memory_pilot_most_recent,2022.2.4,Win32,30.00120005,,,,,,,,,,,,,,,,,,,,,,,,,,,,,,,,,1,left,,,,left,1,1.4411,0,8,8,8,1,2901948350-218459.jpg,2868487415-213922.jpg,,
,,,A1QG0HL1XSSGNU,25,FEMALE,8,2022-11-24_10h39.13.568,memory_pilot_most_recent,2022.2.4,Win32,30.00120005,,,,,,,,,,,,,,,,,,,,,,,,,,,,,,,,,1,right,,,,right,1,1.5317,0,9,9,9,1,2238544191-252422.jpg,2964216465-219242.jpg,,
,,,A1QG0HL1XSSGNU,25,FEMALE,8,2022-11-24_10h39.13.568,memory_pilot_most_recent,2022.2.4,Win32,30.00120005,,,,,,,,,,,,,,,,,,,,,,,,,,,,,,,,,3,left,,,,right,0,3.2398,0,10,10,10,1,2460547467-349421.jpg,2898619327-366362.jpg,,
,,,A1QG0HL1XSSGNU,25,FEMALE,8,2022-11-24_10h39.13.568,memory_pilot_most_recent,2022.2.4,Win32,30.00120005,,,,,,,,,,,,,,,,,,,,,,,,,,,,,,,,,2,right,,,,right,1,2.4165,0,11,11,11,1,2981244403-72215.jpg,2238425482-313537.jpg,,
,,,A1QG0HL1XSSGNU,25,FEMALE,8,2022-11-24_10h39.13.568,memory_pilot_most_recent,2022.2.4,Win32,30.00120005,,,,,,,,,,,,,,,,,,,,,,,,,,,,,,,,,2,left,,,,left,1,1.3795,0,12,12,12,1,2512875899-126682.jpg,2238547107-328393.jpg,,
,,,A1QG0HL1XSSGNU,25,FEMALE,8,2022-11-24_10h39.13.568,memory_pilot_most_recent,2022.2.4,Win32,30.00120005,,,,,,,,,,,,,,,,,,,,,,,,,,,,,,,,,3,right,,,,left,0,1.1171,0,13,13,13,1,2901947448-70315.jpg,2883256307-365057.jpg,,
,,,A1QG0HL1XSSGNU,25,FEMALE,8,2022-11-24_10h39.13.568,memory_pilot_most_recent,2022.2.4,Win32,30.00120005,,,,,,,,,,,,,,,,,,,,,,,,,,,,,,,,,1,left,,,,left,1,1.3992,0,14,14,14,1,2901952513-70703.jpg,2864907361-287062.jpg,,
,,,A1QG0HL1XSSGNU,25,FEMALE,8,2022-11-24_10h39.13.568,memory_pilot_most_recent,2022.2.4,Win32,30.00120005,,,,,,,,,,,,,,,,,,,,,,,,,,,,,,,,,2,right,,,,right,1,1.186,0,15,15,15,1,2238499155-170911.jpg,2446759803-49249.jpg,,
,,,A1QG0HL1XSSGNU,25,FEMALE,8,2022-11-24_10h39.13.568,memory_pilot_most_recent,2022.2.4,Win32,30.00120005,,,,,,,,,,,,,,,,,,,,,,,,,,,,,,,,,3,left,,,,left,1,1.2268,0,16,16,16,1,2449442529-124445.jpg,2901946439-144040.jpg,,
,,,A1QG0HL1XSSGNU,25,FEMALE,8,2022-11-24_10h39.13.568,memory_pilot_most_recent,2022.2.4,Win32,30.00120005,,,,,,,,,,,,,,,,,,,,,,,,,,,,,,,,,2,right,,,,right,1,1.7498,0,17,17,17,1,2964217461-294238.jpg,2964223381-294447.jpg,,
,,,A1QG0HL1XSSGNU,25,FEMALE,8,2022-11-24_10h39.13.568,memory_pilot_most_recent,2022.2.4,Win32,30.00120005,,,,,,,,,,,,,,,,,,,,,,,,,,,,,,,,,2,left,,,,left,1,1.0225,0,18,18,18,1,2898617468-68274.jpg,2238433340-164524.jpg,,
,,,A1QG0HL1XSSGNU,25,FEMALE,8,2022-11-24_10h39.13.568,memory_pilot_most_recent,2022.2.4,Win32,30.00120005,,,,,,,,,,,,,,,,,,,,,,,,,,,,,,,,,1,right,,,,right,1,3.096,0,19,19,19,1,2446760917-347439.jpg,2460547508-51571.jpg,,
,,,A1QG0HL1XSSGNU,25,FEMALE,8,2022-11-24_10h39.13.568,memory_pilot_most_recent,2022.2.4,Win32,30.00120005,,,,,,,,,,,,,,,,,,,,,,,,,,,,,,,,,1,left,,,,left,1,1.829,0,20,20,20,1,2898618390-216538.jpg,2238550049-105691.jpg,,
,,,A1QG0HL1XSSGNU,25,FEMALE,8,2022-11-24_10h39.13.568,memory_pilot_most_recent,2022.2.4,Win32,30.00120005,,,,,,,,,,,,,,,,,,,,,,,,,,,,,,,,,3,left,,,,right,0,1.5111,0,21,21,21,1,2874301407-363895.jpg,2989715317-371697.jpg,,
,,,A1QG0HL1XSSGNU,25,FEMALE,8,2022-11-24_10h39.13.568,memory_pilot_most_recent,2022.2.4,Win32,30.00120005,,,,,,,,,,,,,,,,,,,,,,,,,,,,,,,,,3,left,,,,right,0,1.0942,0,22,22,22,1,2898624426-291546.jpg,2898625336-291572.jpg,,
,,,A1QG0HL1XSSGNU,25,FEMALE,8,2022-11-24_10h39.13.568,memory_pilot_most_recent,2022.2.4,Win32,30.00120005,,,,,,,,,,,,,,,,,,,,,,,,,,,,,,,,,2,left,,,,left,1,1.1271,0,23,23,23,1,2458347385-199723.jpg,2512875824-126658.jpg,,
,,,A1QG0HL1XSSGNU,25,FEMALE,8,2022-11-24_10h39.13.568,memory_pilot_most_recent,2022.2.4,Win32,30.00120005,,,,,,,,,,,,,,,,,,,,,,,,,,,,,,,,,3,right,,,,left,0,1.1654,0,24,24,24,1,2446759306-271735.jpg,2898634397-367080.jpg,,
,,,A1QG0HL1XSSGNU,25,FEMALE,8,2022-11-24_10h39.13.568,memory_pilot_most_recent,2022.2.4,Win32,30.00120005,,,,,,,,,,,,,,,,,,,,,,,,,,,,,,,,,3,right,,,,left,0,1.4153,0,25,25,25,1,2898632427-367006.jpg,2864910426-287204.jpg,,
,,,A1QG0HL1XSSGNU,25,FEMALE,8,2022-11-24_10h39.13.568,memory_pilot_most_recent,2022.2.4,Win32,30.00120005,,,,,,,,,,,,,,,,,,,,,,,,,,,,,,,,,1,left,,,,left,1,1.4057,0,26,26,26,1,2868475410-213219.jpg,2901946465-218350.jpg,,
,,,A1QG0HL1XSSGNU,25,FEMALE,8,2022-11-24_10h39.13.568,memory_pilot_most_recent,2022.2.4,Win32,30.00120005,,,,,,,,,,,,,,,,,,,,,,,,,,,,,,,,,3,left,,,,left,1,1.1641,0,27,27,27,1,2874299429-139695.jpg,2874313394-140557.jpg,,
,,,A1QG0HL1XSSGNU,25,FEMALE,8,2022-11-24_10h39.13.568,memory_pilot_most_recent,2022.2.4,Win32,30.00120005,,,,,,,,,,,,,,,,,,,,,,,,,,,,,,,,,2,right,,,,left,0,1.4402,0,28,28,28,1,2238571930-184142.jpg,2986451363-73599.jpg,,
,,,A1QG0HL1XSSGNU,25,FEMALE,8,2022-11-24_10h39.13.568,memory_pilot_most_recent,2022.2.4,Win32,30.00120005,,,,,,,,,,,,,,,,,,,,,,,,,,,,,,,,,3,left,,,,left,1,1.0559,0,29,29,29,1,2901941401-292798.jpg,2883273443-68192.jpg,,
,,,A1QG0HL1XSSGNU,25,FEMALE,8,2022-11-24_10h39.13.568,memory_pilot_most_recent,2022.2.4,Win32,30.00120005,,,,,,,,,,,,,,,,,,,,,,,,,,,,,,,,,2,left,,,,right,0,1.6278,0,30,30,30,1,2238481928-19949.jpg,2989726338-74002.jpg,,
,,,A1QG0HL1XSSGNU,25,FEMALE,8,2022-11-24_10h39.13.568,memory_pilot_most_recent,2022.2.4,Win32,30.00120005,,,,,,,,,,,,,,,,,,,,,,,,,,,,,,,,,3,left,,,,left,1,1.0335,0,31,31,31,1,2460547467-349422.jpg,2898635428-69106.jpg,,
,,,A1QG0HL1XSSGNU,25,FEMALE,8,2022-11-24_10h39.13.568,memory_pilot_most_recent,2022.2.4,Win32,30.00120005,,,,,,,,,,,,,,,,,,,,,,,,,,,,,,,,,1,left,,,,left,1,1.253,0,32,32,32,1,2964213381-294060.jpg,2981244394-145974.jpg,,
,,,A1QG0HL1XSSGNU,25,FEMALE,8,2022-11-24_10h39.13.568,memory_pilot_most_recent,2022.2.4,Win32,30.00120005,,,,,,,,,,,,,,,,,,,,,,,,,,,,,,,,,1,right,,,,right,1,1.0337,0,33,33,33,1,2856919327-359676.jpg,2981241414-145842.jpg,,
,,,A1QG0HL1XSSGNU,25,FEMALE,8,2022-11-24_10h39.13.568,memory_pilot_most_recent,2022.2.4,Win32,30.00120005,,,,,,,,,,,,,,,,,,,,,,,,,,,,,,,,,1,left,,,,right,0,1.3797,0,34,34,34,1,2575120738-55529.jpg,2898632385-217137.jpg,,
,,,A1QG0HL1XSSGNU,25,FEMALE,8,2022-11-24_10h39.13.568,memory_pilot_most_recent,2022.2.4,Win32,30.00120005,,,,,,,,,,,,,,,,,,,,,,,,,,,,,,,,,1,right,,,,left,0,2.0511,0,35,35,35,1,2986447306-296584.jpg,2874307433-66280.jpg,,
,,,A1QG0HL1XSSGNU,25,FEMALE,8,2022-11-24_10h39.13.568,memory_pilot_most_recent,2022.2.4,Win32,30.00120005,,,,,,,,,,,,,,,,,,,,,,,,,,,,,,,,,2,right,,,,right,1,2.7134,0,36,36,36,1,2238360787-310962.jpg,2592380177-354626.jpg,,
,,,A1QG0HL1XSSGNU,25,FEMALE,8,2022-11-24_10h39.13.568,memory_pilot_most_recent,2022.2.4,Win32,30.00120005,,,,,,,,,,,,,,,,,,,,,,,,,,,,,,,,,3,right,,,,right,1,0.9235,0,37,37,37,1,2874301385-214137.jpg,2901947423-70311.jpg,,
,,,A1QG0HL1XSSGNU,25,FEMALE,8,2022-11-24_10h39.13.568,memory_pilot_most_recent,2022.2.4,Win32,30.00120005,,,,,,,,,,,,,,,,,,,,,,,,,,,,,,,,,3,right,,,,left,0,1.9725,0,38,38,38,1,2898634332-367068.jpg,2868474407-362883.jpg,,
,,,A1QG0HL1XSSGNU,25,FEMALE,8,2022-11-24_10h39.13.568,memory_pilot_most_recent,2022.2.4,Win32,30.00120005,,,,,,,,,,,,,,,,,,,,,,,,,,,,,,,,,3,right,,,,left,0,0.8305,0,39,39,39,1,2238567130-183315.jpg,2874302418-65978.jpg,,
,,,A1QG0HL1XSSGNU,25,FEMALE,8,2022-11-24_10h39.13.568,memory_pilot_most_recent,2022.2.4,Win32,30.00120005,,,,,,,,,,,,,,,,,,,,,,,,,,,,,,,,,1,left,,,,left,1,1.4577,0,40,40,40,1,2901939379-143479.jpg,2446759803-49251.jpg,,
,,,A1QG0HL1XSSGNU,25,FEMALE,8,2022-11-24_10h39.13.568,memory_pilot_most_recent,2022.2.4,Win32,30.00120005,,,,,,,,,,,,,,,,,,,,,,,,,,,,,,,,,2,left,,,,left,1,0.8113,0,41,41,41,1,2238560245-182099.jpg,2238467949-92250.jpg,,
,,,A1QG0HL1XSSGNU,25,FEMALE,8,2022-11-24_10h39.13.568,memory_pilot_most_recent,2022.2.4,Win32,30.00120005,,,,,,,,,,,,,,,,,,,,,,,,,,,,,,,,,1,left,,,,left,1,1.0135,0,42,42,42,1,2981231403-71642.jpg,2274829821-263682.jpg,,
,,,A1QG0HL1XSSGNU,25,FEMALE,8,2022-11-24_10h39.13.568,memory_pilot_most_recent,2022.2.4,Win32,30.00120005,,,,,,,,,,,,,,,,,,,,,,,,,,,,,,,,,2,left,,,,left,1,1.3005,0,43,43,43,1,2898635428-69104.jpg,2864904390-212289.jpg,,
,,,A1QG0HL1XSSGNU,25,FEMALE,8,2022-11-24_10h39.13.568,memory_pilot_most_recent,2022.2.4,Win32,30.00120005,,,,,,,,,,,,,,,,,,,,,,,,,,,,,,,,,3,left,,,,left,1,2.5005,0,44,44,44,1,2238480677-317399.jpg,2238573546-258454.jpg,,
,,,A1QG0HL1XSSGNU,25,FEMALE,8,2022-11-24_10h39.13.568,memory_pilot_most_recent,2022.2.4,Win32,30.00120005,,,,,,,,,,,,,,,,,,,,,,,,,,,,,,,,,2,right,,,,left,0,1.1396,0,45,45,45,1,2446758985-197610.jpg,2964218374-144967.jpg,,
,,,A1QG0HL1XSSGNU,25,FEMALE,8,2022-11-24_10h39.13.568,memory_pilot_most_recent,2022.2.4,Win32,30.00120005,,,,,,,,,,,,,,,,,,,,,,,,,,,,,,,,,2,right,,,,right,1,2.0947,0,46,46,46,1,2901945495-218294.jpg,2592380177-354629.jpg,,
,,,A1QG0HL1XSSGNU,25,FEMALE,8,2022-11-24_10h39.13.568,memory_pilot_most_recent,2022.2.4,Win32,30.00120005,,,,,,,,,,,,,,,,,,,,,,,,,,,,,,,,,3,right,,,,right,1,0.8155,0,47,47,47,1,2804906319-133082.jpg,2898618444-142233.jpg,,
,,,A1QG0HL1XSSGNU,25,FEMALE,8,2022-11-24_10h39.13.568,memory_pilot_most_recent,2022.2.4,Win32,30.00120005,,,,,,,,,,,,,,,,,,,,,,,,,,,,,,,,,1,left,,,,left,1,0.8762,0,48,48,48,1,2874303365-214262.jpg,2609793677-355397.jpg,,
,,,A1QG0HL1XSSGNU,25,FEMALE,8,2022-11-24_10h39.13.568,memory_pilot_most_recent,2022.2.4,Win32,30.00120005,,,,,,,,,,,,,,,,,,,,,,,,,,,,,,,,,2,left,,,,left,1,0.8146,0,49,49,49,1,2452380832-348593.jpg,2238515978-25479.jpg,,
,,,A1QG0HL1XSSGNU,25,FEMALE,8,2022-11-24_10h39.13.568,memory_pilot_most_recent,2022.2.4,Win32,30.00120005,,,,,,,,,,,,,,,,,,,,,,,,,,,,,,,,,1,right,,,,right,1,1.7914,0,50,50,50,1,2984626312-370849.jpg,2883268412-365898.jpg,,
,,,A1QG0HL1XSSGNU,25,FEMALE,8,2022-11-24_10h39.13.568,memory_pilot_most_recent,2022.2.4,Win32,30.00120005,,,,,,,,,,,,,,,,,,,,,,,,,,,,,,,,,3,right,,,,left,0,1.099,0,51,51,51,1,2964219379-144996.jpg,2883254439-140941.jpg,,
,,,A1QG0HL1XSSGNU,25,FEMALE,8,2022-11-24_10h39.13.568,memory_pilot_most_recent,2022.2.4,Win32,30.00120005,,,,,,,,,,,,,,,,,,,,,,,,,,,,,,,,,1,left,,,,right,0,1.7966,0,52,52,52,1,2238428357-313623.jpg,2238499057-320266.jpg,,
,,,A1QG0HL1XSSGNU,25,FEMALE,8,2022-11-24_10h39.13.568,memory_pilot_most_recent,2022.2.4,Win32,30.00120005,,,,,,,,,,,,,,,,,,,,,,,,,,,,,,,,,3,right,,,,left,0,1.0148,0,53,53,53,1,2989730319-147821.jpg,2898633421-291973.jpg,,
,,,A1QG0HL1XSSGNU,25,FEMALE,8,2022-11-24_10h39.13.568,memory_pilot_most_recent,2022.2.4,Win32,30.00120005,,,,,,,,,,,,,,,,,,,,,,,,,,,,,,,,,2,right,,,,right,1,1.5104,0,54,54,54,1,2427875694-122097.jpg,2592379964-131054.jpg,,
,,,A1QG0HL1XSSGNU,25,FEMALE,8,2022-11-24_10h39.13.568,memory_pilot_most_recent,2022.2.4,Win32,30.00120005,,,,,,,,,,,,,,,,,,,,,,,,,,,,,,,,,2,left,,,,left,1,0.9119,0,55,55,55,1,2446759347-347016.jpg,2864904415-212294.jpg,,
,,,A1QG0HL1XSSGNU,25,FEMALE,8,2022-11-24_10h39.13.568,memory_pilot_most_recent,2022.2.4,Win32,30.00120005,,,,,,,,,,,,,,,,,,,,,,,,,,,,,,,,,1,right,,,,right,1,1.3397,0,56,56,56,1,2864901420-212147.jpg,2864907432-362042.jpg,,
,,,A1QG0HL1XSSGNU,25,FEMALE,8,2022-11-24_10h39.13.568,memory_pilot_most_recent,2022.2.4,Win32,30.00120005,,,,,,,,,,,,,,,,,,,,,,,,,,,,,,,,,3,right,,,,right,1,1.3695,0,57,57,57,1,2883266367-365742.jpg,2883268471-290842.jpg,,
,,,A1QG0HL1XSSGNU,25,FEMALE,8,2022-11-24_10h39.13.568,memory_pilot_most_recent,2022.2.4,Win32,30.00120005,,,,,,,,,,,,,,,,,,,,,,,,,,,,,,,,,2,right,,,,left,0,1.002,0,58,58,58,1,2898617374-142166.jpg,2449441881-272368.jpg,,
,,,A1QG0HL1XSSGNU,25,FEMALE,8,2022-11-24_10h39.13.568,memory_pilot_most_recent,2022.2.4,Win32,30.00120005,,,,,,,,,,,,,,,,,,,,,,,,,,,,,,,,,2,right,,,,right,1,1.1123,0,59,59,59,1,2862689306-285912.jpg,2238481198-19822.jpg,,
,,,A1QG0HL1XSSGNU,25,FEMALE,8,2022-11-24_10h39.13.568,memory_pilot_most_recent,2022.2.4,Win32,30.00120005,,,,,,,,,,,,,,,,,,,,,,,,,,,,,,,,,,,,,,,,,,,,,,,,space,18.5188
