button.numClicks,button.timesOn,button.timesOff,workID,Age,Gender,Hours slept (last night),date,expName,psychopyVersion,OS,frameRate,space_key_responce.keys,space_key_responce.rt,demo_encoding_response.keys,demo_encoding_response.corr,demo_encoding_loop.thisRepN,demo_encoding_loop.thisTrialN,demo_encoding_loop.thisN,demo_encoding_loop.thisIndex,demo_encoding_loop.ran,DemoImage,DemoCorrect,demo_encoding_response.rt,demo_test_response.keys,demo_test_response.corr,demo_test_response.rt,demo_test_loop.thisRepN,demo_test_loop.thisTrialN,demo_test_loop.thisN,demo_test_loop.thisIndex,demo_test_loop.ran,DemoImage1,DemoImage2,DemoCorrectTest,test_encoding_response.keys,test_encoding_response.corr,trials.thisRepN,trials.thisTrialN,trials.thisN,trials.thisIndex,trials.ran,target_image,pair,layer,correct,test_encoding_response.rt,key_resp_end.keys,key_resp_end.rt,test_test_response.keys,test_test_response.corr,test_test_response.rt,trials_2.thisRepN,trials_2.thisTrialN,trials_2.thisN,trials_2.thisIndex,trials_2.ran,image1,image2,key_resp_end_2.keys,key_resp_end_2.rt
1,[31.44500000000005],[31.44500000000005],A32BQNJMLMZYG0,22,female,8,2022-11-24_10h11.43.089,memory_pilot_most_recent,2022.2.4,Win32,4,,,,,,,,,,,,,,,,,,,,,,,,,,,,,,,,,,,,,,,,,,,,,,,,,
,,,A32BQNJMLMZYG0,22,female,8,2022-11-24_10h11.43.089,memory_pilot_most_recent,2022.2.4,Win32,4,,,,,,,,,,,,,,,,,,,,,,,,,,,,,,,,,,,,,,,,,,,,,,,,,
,,,A32BQNJMLMZYG0,22,female,8,2022-11-24_10h11.43.089,memory_pilot_most_recent,2022.2.4,Win32,4,space,8.263,,,,,,,,,,,,,,,,,,,,,,,,,,,,,,,,,,,,,,,,,,,,,,,
,,,A32BQNJMLMZYG0,22,female,8,2022-11-24_10h11.43.089,memory_pilot_most_recent,2022.2.4,Win32,4,,,,,,,,,,,,,,,,,,,,,,,,,,,,,,,,,,,,,,,,,,,,,,,,,
,,,A32BQNJMLMZYG0,22,female,8,2022-11-24_10h11.43.089,memory_pilot_most_recent,2022.2.4,Win32,4,,,,1,0,0,0,0,1,flower1.jpg,,,,,,,,,,,,,,,,,,,,,,,,,,,,,,,,,,,,,,,
,,,A32BQNJMLMZYG0,22,female,8,2022-11-24_10h11.43.089,memory_pilot_most_recent,2022.2.4,Win32,4,,,,1,0,1,1,1,1,flower2.jpg,,,,,,,,,,,,,,,,,,,,,,,,,,,,,,,,,,,,,,,
,,,A32BQNJMLMZYG0,22,female,8,2022-11-24_10h11.43.089,memory_pilot_most_recent,2022.2.4,Win32,4,,,left,1,0,2,2,2,1,left.jpg,left,2.11,,,,,,,,,,,,,,,,,,,,,,,,,,,,,,,,,,,,,
,,,A32BQNJMLMZYG0,22,female,8,2022-11-24_10h11.43.089,memory_pilot_most_recent,2022.2.4,Win32,4,,,,1,0,3,3,3,1,flower3.jpg,,,,,,,,,,,,,,,,,,,,,,,,,,,,,,,,,,,,,,,
,,,A32BQNJMLMZYG0,22,female,8,2022-11-24_10h11.43.089,memory_pilot_most_recent,2022.2.4,Win32,4,,,,1,0,4,4,4,1,flower4.jpg,,,,,,,,,,,,,,,,,,,,,,,,,,,,,,,,,,,,,,,
,,,A32BQNJMLMZYG0,22,female,8,2022-11-24_10h11.43.089,memory_pilot_most_recent,2022.2.4,Win32,4,,,,1,0,5,5,5,1,flower5.jpg,,,,,,,,,,,,,,,,,,,,,,,,,,,,,,,,,,,,,,,
,,,A32BQNJMLMZYG0,22,female,8,2022-11-24_10h11.43.089,memory_pilot_most_recent,2022.2.4,Win32,4,,,,1,0,6,6,6,1,flower6.jpg,,,,,,,,,,,,,,,,,,,,,,,,,,,,,,,,,,,,,,,
,,,A32BQNJMLMZYG0,22,female,8,2022-11-24_10h11.43.089,memory_pilot_most_recent,2022.2.4,Win32,4,,,,,,,,,,,,,,,,,,,,,,,,,,,,,,,,,,,,,,,,,,,,,,,,,
,,,A32BQNJMLMZYG0,22,female,8,2022-11-24_10h11.43.089,memory_pilot_most_recent,2022.2.4,Win32,4,,,,,,,,,,,,,left,1,2.878,0,0,0,0,1,flower1.jpg,flower1_pair.jpg,left,,,,,,,,,,,,,,,,,,,,,,,,,,
,,,A32BQNJMLMZYG0,22,female,8,2022-11-24_10h11.43.089,memory_pilot_most_recent,2022.2.4,Win32,4,,,,,,,,,,,,,left,0,2.485,0,1,1,1,1,flower2_pair.jpg,flower2.jpg,right,,,,,,,,,,,,,,,,,,,,,,,,,,
,,,A32BQNJMLMZYG0,22,female,8,2022-11-24_10h11.43.089,memory_pilot_most_recent,2022.2.4,Win32,4,,,,,,,,,,,,,left,1,1.94,0,2,2,2,1,flower3.jpg,flower3_pair.jpg,left,,,,,,,,,,,,,,,,,,,,,,,,,,
,,,A32BQNJMLMZYG0,22,female,8,2022-11-24_10h11.43.089,memory_pilot_most_recent,2022.2.4,Win32,4,,,,,,,,,,,,,left,1,2.671,0,3,3,3,1,flower4.jpg,flower4_pair.jpg,left,,,,,,,,,,,,,,,,,,,,,,,,,,
,,,A32BQNJMLMZYG0,22,female,8,2022-11-24_10h11.43.089,memory_pilot_most_recent,2022.2.4,Win32,4,,,,,,,,,,,,,right,1,1.63,0,4,4,4,1,flower5_pair.jpg,flower5.jpg,right,,,,,,,,,,,,,,,,,,,,,,,,,,
,,,A32BQNJMLMZYG0,22,female,8,2022-11-24_10h11.43.089,memory_pilot_most_recent,2022.2.4,Win32,4,,,,,,,,,,,,,left,1,1.928,0,5,5,5,1,flower6.jpg,flower6_pair.jpg,left,,,,,,,,,,,,,,,,,,,,,,,,,,
,,,A32BQNJMLMZYG0,22,female,8,2022-11-24_10h11.43.089,memory_pilot_most_recent,2022.2.4,Win32,4,,,,,,,,,,,,,,,,,,,,,,,,,,,,,,,,,,,,,,,,,,,,,,,,,
,,,A32BQNJMLMZYG0,22,female,8,2022-11-24_10h11.43.089,memory_pilot_most_recent,2022.2.4,Win32,4,space,5.745,,,,,,,,,,,,,,,,,,,,,,,,,,,,,,,,,,,,,,,,,,,,,,,
,,,A32BQNJMLMZYG0,22,female,8,2022-11-24_10h11.43.089,memory_pilot_most_recent,2022.2.4,Win32,4,,,,,,,,,,,,,,,,,,,,,,,,,1,0,0,0,0,1,2898624426-291546.jpg,2898626395-216901.jpg,2,,,,,,,,,,,,,,,,
,,,A32BQNJMLMZYG0,22,female,8,2022-11-24_10h11.43.089,memory_pilot_most_recent,2022.2.4,Win32,4,,,,,,,,,,,,,,,,,,,,,,,,,1,0,1,1,1,1,2575120738-55529.jpg,2898632385-217137.jpg,1,,,,,,,,,,,,,,,,
,,,A32BQNJMLMZYG0,22,female,8,2022-11-24_10h11.43.089,memory_pilot_most_recent,2022.2.4,Win32,4,,,,,,,,,,,,,,,,,,,,,,,,,1,0,2,2,2,1,2964223381-294447.jpg,2901938432-367628.jpg,3,,,,,,,,,,,,,,,,
,,,A32BQNJMLMZYG0,22,female,8,2022-11-24_10h11.43.089,memory_pilot_most_recent,2022.2.4,Win32,4,,,,,,,,,,,,,,,,,,,,,,,,,1,0,3,3,3,1,2964213381-294060.jpg,2883254439-140940.jpg,3,,,,,,,,,,,,,,,,
,,,A32BQNJMLMZYG0,22,female,8,2022-11-24_10h11.43.089,memory_pilot_most_recent,2022.2.4,Win32,4,,,,,,,,,,,,,,,,,,,,,,,,,1,0,4,4,4,1,2449442529-124446.jpg,2452380171-273112.jpg,1,,,,,,,,,,,,,,,,
,,,A32BQNJMLMZYG0,22,female,8,2022-11-24_10h11.43.089,memory_pilot_most_recent,2022.2.4,Win32,4,,,,,,,,,,,,,,,,,,,,,,,,,1,0,5,5,5,1,2592379964-131054.jpg,2575963989-130576.jpg,1,,,,,,,,,,,,,,,,
,,,A32BQNJMLMZYG0,22,female,8,2022-11-24_10h11.43.089,memory_pilot_most_recent,2022.2.4,Win32,4,,,,,,,,,,,,,,,,,,,,,,,,,1,0,6,6,6,1,2868474407-362883.jpg,2874305405-214397.jpg,2,,,,,,,,,,,,,,,,
,,,A32BQNJMLMZYG0,22,female,8,2022-11-24_10h11.43.089,memory_pilot_most_recent,2022.2.4,Win32,4,,,,,,,,,,,,,,,,,,,,,,,,,1,0,7,7,7,1,2452381505-199546.jpg,2898622392-366513.jpg,3,,,,,,,,,,,,,,,,
,,,A32BQNJMLMZYG0,22,female,8,2022-11-24_10h11.43.089,memory_pilot_most_recent,2022.2.4,Win32,4,,,,,,,,,,,,,,,,,,,,,,,,left,1,0,8,8,8,1,left.jpg,,,left,1.289,,,,,,,,,,,,,,
,,,A32BQNJMLMZYG0,22,female,8,2022-11-24_10h11.43.089,memory_pilot_most_recent,2022.2.4,Win32,4,,,,,,,,,,,,,,,,,,,,,,,,,1,0,9,9,9,1,2592380177-354629.jpg,2901945495-218294.jpg,2,,,,,,,,,,,,,,,,
,,,A32BQNJMLMZYG0,22,female,8,2022-11-24_10h11.43.089,memory_pilot_most_recent,2022.2.4,Win32,4,,,,,,,,,,,,,,,,,,,,,,,,,1,0,10,10,10,1,2898635428-69104.jpg,2901942428-69919.jpg,3,,,,,,,,,,,,,,,,
,,,A32BQNJMLMZYG0,22,female,8,2022-11-24_10h11.43.089,memory_pilot_most_recent,2022.2.4,Win32,4,,,,,,,,,,,,,,,,,,,,,,,,,1,0,11,11,11,1,2446758985-197609.jpg,2981240424-145795.jpg,1,,,,,,,,,,,,,,,,
,,,A32BQNJMLMZYG0,22,female,8,2022-11-24_10h11.43.089,memory_pilot_most_recent,2022.2.4,Win32,4,,,,,,,,,,,,,,,,,,,,,,,,,1,0,12,12,12,1,2964218374-144967.jpg,2964218374-144968.jpg,1,,,,,,,,,,,,,,,,
,,,A32BQNJMLMZYG0,22,female,8,2022-11-24_10h11.43.089,memory_pilot_most_recent,2022.2.4,Win32,4,,,,,,,,,,,,,,,,,,,,,,,,,1,0,13,13,13,1,2898633421-291973.jpg,2989730319-147821.jpg,3,,,,,,,,,,,,,,,,
,,,A32BQNJMLMZYG0,22,female,8,2022-11-24_10h11.43.089,memory_pilot_most_recent,2022.2.4,Win32,4,,,,,,,,,,,,,,,,,,,,,,,,,1,0,14,14,14,1,2901941401-292798.jpg,2964223380-219495.jpg,2,,,,,,,,,,,,,,,,
,,,A32BQNJMLMZYG0,22,female,8,2022-11-24_10h11.43.089,memory_pilot_most_recent,2022.2.4,Win32,4,,,,,,,,,,,,,,,,,,,,,,,,,1,0,15,15,15,1,2874307433-66280.jpg,2864900357-361688.jpg,2,,,,,,,,,,,,,,,,
,,,A32BQNJMLMZYG0,22,female,8,2022-11-24_10h11.43.089,memory_pilot_most_recent,2022.2.4,Win32,4,,,,,,,,,,,,,,,,,,,,,,,,right,1,0,16,16,16,1,right.jpg,,,right,1.302,,,,,,,,,,,,,,
,,,A32BQNJMLMZYG0,22,female,8,2022-11-24_10h11.43.089,memory_pilot_most_recent,2022.2.4,Win32,4,,,,,,,,,,,,,,,,,,,,,,,,,1,0,17,17,17,1,2883268412-365898.jpg,2984615358-72439.jpg,2,,,,,,,,,,,,,,,,
,,,A32BQNJMLMZYG0,22,female,8,2022-11-24_10h11.43.089,memory_pilot_most_recent,2022.2.4,Win32,4,,,,,,,,,,,,,,,,,,,,,,,,,1,0,18,18,18,1,2449442529-124445.jpg,2901946439-144040.jpg,3,,,,,,,,,,,,,,,,
,,,A32BQNJMLMZYG0,22,female,8,2022-11-24_10h11.43.089,memory_pilot_most_recent,2022.2.4,Win32,4,,,,,,,,,,,,,,,,,,,,,,,,,1,0,19,19,19,1,2512875899-126682.jpg,2238547107-328393.jpg,2,,,,,,,,,,,,,,,,
,,,A32BQNJMLMZYG0,22,female,8,2022-11-24_10h11.43.089,memory_pilot_most_recent,2022.2.4,Win32,4,,,,,,,,,,,,,,,,,,,,,,,,,1,0,20,20,20,1,2446759347-347016.jpg,2964224310-219528.jpg,1,,,,,,,,,,,,,,,,
,,,A32BQNJMLMZYG0,22,female,8,2022-11-24_10h11.43.089,memory_pilot_most_recent,2022.2.4,Win32,4,,,,,,,,,,,,,,,,,,,,,,,,,1,0,21,21,21,1,2981231403-71642.jpg,2864900358-63717.jpg,2,,,,,,,,,,,,,,,,
,,,A32BQNJMLMZYG0,22,female,8,2022-11-24_10h11.43.089,memory_pilot_most_recent,2022.2.4,Win32,4,,,,,,,,,,,,,,,,,,,,,,,,,1,0,22,22,22,1,2901939379-143479.jpg,2446759306-271734.jpg,3,,,,,,,,,,,,,,,,
,,,A32BQNJMLMZYG0,22,female,8,2022-11-24_10h11.43.089,memory_pilot_most_recent,2022.2.4,Win32,4,,,,,,,,,,,,,,,,,,,,,,,,,1,0,23,23,23,1,2874302418-65978.jpg,2238577555-185462.jpg,2,,,,,,,,,,,,,,,,
,,,A32BQNJMLMZYG0,22,female,8,2022-11-24_10h11.43.089,memory_pilot_most_recent,2022.2.4,Win32,4,,,,,,,,,,,,,,,,,,,,,,,,,1,0,24,24,24,1,2460547467-349422.jpg,2898635428-69106.jpg,3,,,,,,,,,,,,,,,,
,,,A32BQNJMLMZYG0,22,female,8,2022-11-24_10h11.43.089,memory_pilot_most_recent,2022.2.4,Win32,4,,,,,,,,,,,,,,,,,,,,,,,,,1,0,25,25,25,1,2898618390-216538.jpg,2864910427-362199.jpg,2,,,,,,,,,,,,,,,,
,,,A32BQNJMLMZYG0,22,female,8,2022-11-24_10h11.43.089,memory_pilot_most_recent,2022.2.4,Win32,4,,,,,,,,,,,,,,,,,,,,,,,,,1,0,26,26,26,1,2883254439-140941.jpg,2460548070-200336.jpg,2,,,,,,,,,,,,,,,,
,,,A32BQNJMLMZYG0,22,female,8,2022-11-24_10h11.43.089,memory_pilot_most_recent,2022.2.4,Win32,4,,,,,,,,,,,,,,,,,,,,,,,,,1,0,27,27,27,1,2449441881-272368.jpg,2238576222-334523.jpg,3,,,,,,,,,,,,,,,,
,,,A32BQNJMLMZYG0,22,female,8,2022-11-24_10h11.43.089,memory_pilot_most_recent,2022.2.4,Win32,4,,,,,,,,,,,,,,,,,,,,,,,,,1,0,28,28,28,1,2238572663-35822.jpg,2238375825-162206.jpg,3,,,,,,,,,,,,,,,,
,,,A32BQNJMLMZYG0,22,female,8,2022-11-24_10h11.43.089,memory_pilot_most_recent,2022.2.4,Win32,4,,,,,,,,,,,,,,,,,,,,,,,,,1,0,29,29,29,1,2458347385-199723.jpg,2512875824-126658.jpg,2,,,,,,,,,,,,,,,,
,,,A32BQNJMLMZYG0,22,female,8,2022-11-24_10h11.43.089,memory_pilot_most_recent,2022.2.4,Win32,4,,,,,,,,,,,,,,,,,,,,,,,,,1,0,30,30,30,1,2901947423-70311.jpg,2860312398-62572.jpg,1,,,,,,,,,,,,,,,,
,,,A32BQNJMLMZYG0,22,female,8,2022-11-24_10h11.43.089,memory_pilot_most_recent,2022.2.4,Win32,4,,,,,,,,,,,,,,,,,,,,,,,,left,1,0,31,31,31,1,left.jpg,,,left,1.779,,,,,,,,,,,,,,
,,,A32BQNJMLMZYG0,22,female,8,2022-11-24_10h11.43.089,memory_pilot_most_recent,2022.2.4,Win32,4,,,,,,,,,,,,,,,,,,,,,,,,,1,0,32,32,32,1,2864910426-287204.jpg,2864902304-137862.jpg,1,,,,,,,,,,,,,,,,
,,,A32BQNJMLMZYG0,22,female,8,2022-11-24_10h11.43.089,memory_pilot_most_recent,2022.2.4,Win32,4,,,,,,,,,,,,,,,,,,,,,,,,,1,0,33,33,33,1,2981241414-145842.jpg,2238427023-15948.jpg,3,,,,,,,,,,,,,,,,
,,,A32BQNJMLMZYG0,22,female,8,2022-11-24_10h11.43.089,memory_pilot_most_recent,2022.2.4,Win32,4,,,,,,,,,,,,,,,,,,,,,,,,,1,0,34,34,34,1,2898618444-142233.jpg,2898631359-142721.jpg,1,,,,,,,,,,,,,,,,
,,,A32BQNJMLMZYG0,22,female,8,2022-11-24_10h11.43.089,memory_pilot_most_recent,2022.2.4,Win32,4,,,,,,,,,,,,,,,,,,,,,,,,,1,0,35,35,35,1,2901939379-143480.jpg,2901933403-69214.jpg,3,,,,,,,,,,,,,,,,
,,,A32BQNJMLMZYG0,22,female,8,2022-11-24_10h11.43.089,memory_pilot_most_recent,2022.2.4,Win32,4,,,,,,,,,,,,,,,,,,,,,,,,,1,0,36,36,36,1,2901948350-218459.jpg,2898629328-68806.jpg,2,,,,,,,,,,,,,,,,
,,,A32BQNJMLMZYG0,22,female,8,2022-11-24_10h11.43.089,memory_pilot_most_recent,2022.2.4,Win32,4,,,,,,,,,,,,,,,,,,,,,,,,,1,0,37,37,37,1,2986451363-73599.jpg,2901939327-367669.jpg,1,,,,,,,,,,,,,,,,
,,,A32BQNJMLMZYG0,22,female,8,2022-11-24_10h11.43.089,memory_pilot_most_recent,2022.2.4,Win32,4,,,,,,,,,,,,,,,,,,,,,,,,,1,0,38,38,38,1,2446759803-49249.jpg,2238499155-170911.jpg,2,,,,,,,,,,,,,,,,
,,,A32BQNJMLMZYG0,22,female,8,2022-11-24_10h11.43.089,memory_pilot_most_recent,2022.2.4,Win32,4,,,,,,,,,,,,,,,,,,,,,,,,,1,0,39,39,39,1,2238560245-182099.jpg,2901943480-218116.jpg,3,,,,,,,,,,,,,,,,
,,,A32BQNJMLMZYG0,22,female,8,2022-11-24_10h11.43.089,memory_pilot_most_recent,2022.2.4,Win32,4,,,,,,,,,,,,,,,,,,,,,,,,left,1,0,40,40,40,1,left.jpg,,,left,2.119,,,,,,,,,,,,,,
,,,A32BQNJMLMZYG0,22,female,8,2022-11-24_10h11.43.089,memory_pilot_most_recent,2022.2.4,Win32,4,,,,,,,,,,,,,,,,,,,,,,,,,1,0,41,41,41,1,2460547467-349421.jpg,2981235446-294901.jpg,2,,,,,,,,,,,,,,,,
,,,A32BQNJMLMZYG0,22,female,8,2022-11-24_10h11.43.089,memory_pilot_most_recent,2022.2.4,Win32,4,,,,,,,,,,,,,,,,,,,,,,,,,1,0,42,42,42,1,2238481928-19949.jpg,2883264367-365620.jpg,1,,,,,,,,,,,,,,,,
,,,A32BQNJMLMZYG0,22,female,8,2022-11-24_10h11.43.089,memory_pilot_most_recent,2022.2.4,Win32,4,,,,,,,,,,,,,,,,,,,,,,,,,1,0,43,43,43,1,2883256307-365057.jpg,2901947448-70315.jpg,3,,,,,,,,,,,,,,,,
,,,A32BQNJMLMZYG0,22,female,8,2022-11-24_10h11.43.089,memory_pilot_most_recent,2022.2.4,Win32,4,,,,,,,,,,,,,,,,,,,,,,,,,1,0,44,44,44,1,2452380832-348593.jpg,2238328478-11678.jpg,1,,,,,,,,,,,,,,,,
,,,A32BQNJMLMZYG0,22,female,8,2022-11-24_10h11.43.089,memory_pilot_most_recent,2022.2.4,Win32,4,,,,,,,,,,,,,,,,,,,,,,,,,1,0,45,45,45,1,2874299429-139695.jpg,2883266388-67750.jpg,1,,,,,,,,,,,,,,,,
,,,A32BQNJMLMZYG0,22,female,8,2022-11-24_10h11.43.089,memory_pilot_most_recent,2022.2.4,Win32,4,,,,,,,,,,,,,,,,,,,,,,,,,1,0,46,46,46,1,2592380177-354626.jpg,2579432708-56392.jpg,3,,,,,,,,,,,,,,,,
,,,A32BQNJMLMZYG0,22,female,8,2022-11-24_10h11.43.089,memory_pilot_most_recent,2022.2.4,Win32,4,,,,,,,,,,,,,,,,,,,,,,,,,1,0,47,47,47,1,2238428357-313623.jpg,2984616310-220514.jpg,2,,,,,,,,,,,,,,,,
,,,A32BQNJMLMZYG0,22,female,8,2022-11-24_10h11.43.089,memory_pilot_most_recent,2022.2.4,Win32,4,,,,,,,,,,,,,,,,,,,,,,,,,1,0,48,48,48,1,2964216465-219242.jpg,2981231403-71641.jpg,3,,,,,,,,,,,,,,,,
,,,A32BQNJMLMZYG0,22,female,8,2022-11-24_10h11.43.089,memory_pilot_most_recent,2022.2.4,Win32,4,,,,,,,,,,,,,,,,,,,,,,,,,1,0,49,49,49,1,2874301407-363895.jpg,2901949316-293452.jpg,2,,,,,,,,,,,,,,,,
,,,A32BQNJMLMZYG0,22,female,8,2022-11-24_10h11.43.089,memory_pilot_most_recent,2022.2.4,Win32,4,,,,,,,,,,,,,,,,,,,,,,,,,1,0,50,50,50,1,2238425482-313537.jpg,2864901352-361731.jpg,3,,,,,,,,,,,,,,,,
,,,A32BQNJMLMZYG0,22,female,8,2022-11-24_10h11.43.089,memory_pilot_most_recent,2022.2.4,Win32,4,,,,,,,,,,,,,,,,,,,,,,,,right,1,0,51,51,51,1,right.jpg,,,right,1.021,,,,,,,,,,,,,,
,,,A32BQNJMLMZYG0,22,female,8,2022-11-24_10h11.43.089,memory_pilot_most_recent,2022.2.4,Win32,4,,,,,,,,,,,,,,,,,,,,,,,,,1,0,52,52,52,1,2864907432-362042.jpg,2883264367-365621.jpg,2,,,,,,,,,,,,,,,,
,,,A32BQNJMLMZYG0,22,female,8,2022-11-24_10h11.43.089,memory_pilot_most_recent,2022.2.4,Win32,4,,,,,,,,,,,,,,,,,,,,,,,,,1,0,53,53,53,1,2898634397-367080.jpg,2237944827-301472.jpg,1,,,,,,,,,,,,,,,,
,,,A32BQNJMLMZYG0,22,female,8,2022-11-24_10h11.43.089,memory_pilot_most_recent,2022.2.4,Win32,4,,,,,,,,,,,,,,,,,,,,,,,,,1,0,54,54,54,1,2874303365-214262.jpg,2424124794-120289.jpg,3,,,,,,,,,,,,,,,,
,,,A32BQNJMLMZYG0,22,female,8,2022-11-24_10h11.43.089,memory_pilot_most_recent,2022.2.4,Win32,4,,,,,,,,,,,,,,,,,,,,,,,,,1,0,55,55,55,1,2460547508-51571.jpg,2446760917-347439.jpg,1,,,,,,,,,,,,,,,,
,,,A32BQNJMLMZYG0,22,female,8,2022-11-24_10h11.43.089,memory_pilot_most_recent,2022.2.4,Win32,4,,,,,,,,,,,,,,,,,,,,,,,,,1,0,56,56,56,1,2874302418-65979.jpg,2413147898-43548.jpg,1,,,,,,,,,,,,,,,,
,,,A32BQNJMLMZYG0,22,female,8,2022-11-24_10h11.43.089,memory_pilot_most_recent,2022.2.4,Win32,4,,,,,,,,,,,,,,,,,,,,,,,,,1,0,57,57,57,1,2901952513-70703.jpg,2238537701-251773.jpg,3,,,,,,,,,,,,,,,,
,,,A32BQNJMLMZYG0,22,female,8,2022-11-24_10h11.43.089,memory_pilot_most_recent,2022.2.4,Win32,4,,,,,,,,,,,,,,,,,,,,,,,,,1,0,58,58,58,1,2898617468-68274.jpg,2864906345-212360.jpg,1,,,,,,,,,,,,,,,,
,,,A32BQNJMLMZYG0,22,female,8,2022-11-24_10h11.43.089,memory_pilot_most_recent,2022.2.4,Win32,4,,,,,,,,,,,,,,,,,,,,,,,,,1,0,59,59,59,1,2898635427-367120.jpg,2449442621-272561.jpg,2,,,,,,,,,,,,,,,,
,,,A32BQNJMLMZYG0,22,female,8,2022-11-24_10h11.43.089,memory_pilot_most_recent,2022.2.4,Win32,4,,,,,,,,,,,,,,,,,,,,,,,,,1,0,60,60,60,1,2238480677-317399.jpg,2238481630-168218.jpg,1,,,,,,,,,,,,,,,,
,,,A32BQNJMLMZYG0,22,female,8,2022-11-24_10h11.43.089,memory_pilot_most_recent,2022.2.4,Win32,4,,,,,,,,,,,,,,,,,,,,,,,,,1,0,61,61,61,1,2883268471-290842.jpg,2898623398-68538.jpg,2,,,,,,,,,,,,,,,,
,,,A32BQNJMLMZYG0,22,female,8,2022-11-24_10h11.43.089,memory_pilot_most_recent,2022.2.4,Win32,4,,,,,,,,,,,,,,,,,,,,,,,,,1,0,62,62,62,1,2868475410-213219.jpg,2901946465-218350.jpg,1,,,,,,,,,,,,,,,,
,,,A32BQNJMLMZYG0,22,female,8,2022-11-24_10h11.43.089,memory_pilot_most_recent,2022.2.4,Win32,4,,,,,,,,,,,,,,,,,,,,,,,,,1,0,63,63,63,1,2238580740-186218.jpg,2874312404-140477.jpg,3,,,,,,,,,,,,,,,,
,,,A32BQNJMLMZYG0,22,female,8,2022-11-24_10h11.43.089,memory_pilot_most_recent,2022.2.4,Win32,4,,,,,,,,,,,,,,,,,,,,,,,,,1,0,64,64,64,1,2238481198-19822.jpg,2864908448-64141.jpg,1,,,,,,,,,,,,,,,,
,,,A32BQNJMLMZYG0,22,female,8,2022-11-24_10h11.43.089,memory_pilot_most_recent,2022.2.4,Win32,4,,,,,,,,,,,,,,,,,,,,,,,,,,,,,,,,,,,,space,3.069,,,,,,,,,,,,
,,,A32BQNJMLMZYG0,22,female,8,2022-11-24_10h11.43.089,memory_pilot_most_recent,2022.2.4,Win32,4,,,,,,,,,,,,,,,,,,,,,,,,,,,,,,,,,,,,,,,,,,,,,,,,,
,,,A32BQNJMLMZYG0,22,female,8,2022-11-24_10h11.43.089,memory_pilot_most_recent,2022.2.4,Win32,4,,,,,,,,,,,,,,,,,,,,,,,,,,,,,,,,,3,right,,,,right,1,4.082,0,0,0,0,1,2898622392-366513.jpg,2452381505-199546.jpg,,
,,,A32BQNJMLMZYG0,22,female,8,2022-11-24_10h11.43.089,memory_pilot_most_recent,2022.2.4,Win32,4,,,,,,,,,,,,,,,,,,,,,,,,,,,,,,,,,3,left,,,,left,1,8.823,0,1,1,1,1,2901939379-143479.jpg,2446759306-271734.jpg,,
,,,A32BQNJMLMZYG0,22,female,8,2022-11-24_10h11.43.089,memory_pilot_most_recent,2022.2.4,Win32,4,,,,,,,,,,,,,,,,,,,,,,,,,,,,,,,,,1,right,,,,left,0,2.694,0,2,2,2,1,2413147898-43548.jpg,2874302418-65979.jpg,,
,,,A32BQNJMLMZYG0,22,female,8,2022-11-24_10h11.43.089,memory_pilot_most_recent,2022.2.4,Win32,4,,,,,,,,,,,,,,,,,,,,,,,,,,,,,,,,,3,right,,,,right,1,1.591,0,3,3,3,1,2901946439-144040.jpg,2449442529-124445.jpg,,
,,,A32BQNJMLMZYG0,22,female,8,2022-11-24_10h11.43.089,memory_pilot_most_recent,2022.2.4,Win32,4,,,,,,,,,,,,,,,,,,,,,,,,,,,,,,,,,2,left,,,,left,1,1.685,0,4,4,4,1,2898624426-291546.jpg,2898626395-216901.jpg,,
,,,A32BQNJMLMZYG0,22,female,8,2022-11-24_10h11.43.089,memory_pilot_most_recent,2022.2.4,Win32,4,,,,,,,,,,,,,,,,,,,,,,,,,,,,,,,,,2,left,,,,right,0,1.484,0,5,5,5,1,2883268471-290842.jpg,2898623398-68538.jpg,,
,,,A32BQNJMLMZYG0,22,female,8,2022-11-24_10h11.43.089,memory_pilot_most_recent,2022.2.4,Win32,4,,,,,,,,,,,,,,,,,,,,,,,,,,,,,,,,,3,left,,,,left,1,1.436,0,6,6,6,1,2964223381-294447.jpg,2901938432-367628.jpg,,
,,,A32BQNJMLMZYG0,22,female,8,2022-11-24_10h11.43.089,memory_pilot_most_recent,2022.2.4,Win32,4,,,,,,,,,,,,,,,,,,,,,,,,,,,,,,,,,3,right,,,,right,1,1.818,0,7,7,7,1,2898635428-69106.jpg,2460547467-349422.jpg,,
,,,A32BQNJMLMZYG0,22,female,8,2022-11-24_10h11.43.089,memory_pilot_most_recent,2022.2.4,Win32,4,,,,,,,,,,,,,,,,,,,,,,,,,,,,,,,,,2,left,,,,left,1,1.802,0,8,8,8,1,2874302418-65978.jpg,2238577555-185462.jpg,,
,,,A32BQNJMLMZYG0,22,female,8,2022-11-24_10h11.43.089,memory_pilot_most_recent,2022.2.4,Win32,4,,,,,,,,,,,,,,,,,,,,,,,,,,,,,,,,,1,left,,,,right,0,2.144,0,9,9,9,1,2864910426-287204.jpg,2864902304-137862.jpg,,
,,,A32BQNJMLMZYG0,22,female,8,2022-11-24_10h11.43.089,memory_pilot_most_recent,2022.2.4,Win32,4,,,,,,,,,,,,,,,,,,,,,,,,,,,,,,,,,2,left,,,,left,1,2.041,0,10,10,10,1,2460547467-349421.jpg,2981235446-294901.jpg,,
,,,A32BQNJMLMZYG0,22,female,8,2022-11-24_10h11.43.089,memory_pilot_most_recent,2022.2.4,Win32,4,,,,,,,,,,,,,,,,,,,,,,,,,,,,,,,,,1,right,,,,left,0,2.245,0,11,11,11,1,2864906345-212360.jpg,2898617468-68274.jpg,,
,,,A32BQNJMLMZYG0,22,female,8,2022-11-24_10h11.43.089,memory_pilot_most_recent,2022.2.4,Win32,4,,,,,,,,,,,,,,,,,,,,,,,,,,,,,,,,,1,left,,,,right,0,2.263,0,12,12,12,1,2898634397-367080.jpg,2237944827-301472.jpg,,
,,,A32BQNJMLMZYG0,22,female,8,2022-11-24_10h11.43.089,memory_pilot_most_recent,2022.2.4,Win32,4,,,,,,,,,,,,,,,,,,,,,,,,,,,,,,,,,3,left,,,,right,0,1.814,0,13,13,13,1,2883256307-365057.jpg,2901947448-70315.jpg,,
,,,A32BQNJMLMZYG0,22,female,8,2022-11-24_10h11.43.089,memory_pilot_most_recent,2022.2.4,Win32,4,,,,,,,,,,,,,,,,,,,,,,,,,,,,,,,,,1,left,,,,right,0,1.7,0,14,14,14,1,2964218374-144967.jpg,2964218374-144968.jpg,,
,,,A32BQNJMLMZYG0,22,female,8,2022-11-24_10h11.43.089,memory_pilot_most_recent,2022.2.4,Win32,4,,,,,,,,,,,,,,,,,,,,,,,,,,,,,,,,,2,left,,,,right,0,1.658,0,15,15,15,1,2864907432-362042.jpg,2883264367-365621.jpg,,
,,,A32BQNJMLMZYG0,22,female,8,2022-11-24_10h11.43.089,memory_pilot_most_recent,2022.2.4,Win32,4,,,,,,,,,,,,,,,,,,,,,,,,,,,,,,,,,3,left,,,,left,1,1.792,0,16,16,16,1,2981241414-145842.jpg,2238427023-15948.jpg,,
,,,A32BQNJMLMZYG0,22,female,8,2022-11-24_10h11.43.089,memory_pilot_most_recent,2022.2.4,Win32,4,,,,,,,,,,,,,,,,,,,,,,,,,,,,,,,,,3,left,,,,right,0,2.071,0,17,17,17,1,2901939379-143480.jpg,2901933403-69214.jpg,,
,,,A32BQNJMLMZYG0,22,female,8,2022-11-24_10h11.43.089,memory_pilot_most_recent,2022.2.4,Win32,4,,,,,,,,,,,,,,,,,,,,,,,,,,,,,,,,,1,left,,,,left,1,1.826,0,18,18,18,1,2868475410-213219.jpg,2901946465-218350.jpg,,
,,,A32BQNJMLMZYG0,22,female,8,2022-11-24_10h11.43.089,memory_pilot_most_recent,2022.2.4,Win32,4,,,,,,,,,,,,,,,,,,,,,,,,,,,,,,,,,2,right,,,,left,0,2.052,0,19,19,19,1,2460548070-200336.jpg,2883254439-140941.jpg,,
,,,A32BQNJMLMZYG0,22,female,8,2022-11-24_10h11.43.089,memory_pilot_most_recent,2022.2.4,Win32,4,,,,,,,,,,,,,,,,,,,,,,,,,,,,,,,,,1,right,,,,right,1,1.69,0,20,20,20,1,2860312398-62572.jpg,2901947423-70311.jpg,,
,,,A32BQNJMLMZYG0,22,female,8,2022-11-24_10h11.43.089,memory_pilot_most_recent,2022.2.4,Win32,4,,,,,,,,,,,,,,,,,,,,,,,,,,,,,,,,,1,right,,,,left,0,1.72,0,21,21,21,1,2898631359-142721.jpg,2898618444-142233.jpg,,
,,,A32BQNJMLMZYG0,22,female,8,2022-11-24_10h11.43.089,memory_pilot_most_recent,2022.2.4,Win32,4,,,,,,,,,,,,,,,,,,,,,,,,,,,,,,,,,1,right,,,,left,0,1.443,0,22,22,22,1,2901939327-367669.jpg,2986451363-73599.jpg,,
,,,A32BQNJMLMZYG0,22,female,8,2022-11-24_10h11.43.089,memory_pilot_most_recent,2022.2.4,Win32,4,,,,,,,,,,,,,,,,,,,,,,,,,,,,,,,,,1,right,,,,right,1,1.4,0,23,23,23,1,2964224310-219528.jpg,2446759347-347016.jpg,,
,,,A32BQNJMLMZYG0,22,female,8,2022-11-24_10h11.43.089,memory_pilot_most_recent,2022.2.4,Win32,4,,,,,,,,,,,,,,,,,,,,,,,,,,,,,,,,,3,right,,,,left,0,1.642,0,24,24,24,1,2901942428-69919.jpg,2898635428-69104.jpg,,
,,,A32BQNJMLMZYG0,22,female,8,2022-11-24_10h11.43.089,memory_pilot_most_recent,2022.2.4,Win32,4,,,,,,,,,,,,,,,,,,,,,,,,,,,,,,,,,3,right,,,,right,1,1.51,0,25,25,25,1,2901943480-218116.jpg,2238560245-182099.jpg,,
,,,A32BQNJMLMZYG0,22,female,8,2022-11-24_10h11.43.089,memory_pilot_most_recent,2022.2.4,Win32,4,,,,,,,,,,,,,,,,,,,,,,,,,,,,,,,,,2,left,,,,right,0,1.537,0,26,26,26,1,2901941401-292798.jpg,2964223380-219495.jpg,,
,,,A32BQNJMLMZYG0,22,female,8,2022-11-24_10h11.43.089,memory_pilot_most_recent,2022.2.4,Win32,4,,,,,,,,,,,,,,,,,,,,,,,,,,,,,,,,,1,left,,,,left,1,1.542,0,27,27,27,1,2238481198-19822.jpg,2864908448-64141.jpg,,
,,,A32BQNJMLMZYG0,22,female,8,2022-11-24_10h11.43.089,memory_pilot_most_recent,2022.2.4,Win32,4,,,,,,,,,,,,,,,,,,,,,,,,,,,,,,,,,2,right,,,,right,1,1.778,0,28,28,28,1,2901949316-293452.jpg,2874301407-363895.jpg,,
,,,A32BQNJMLMZYG0,22,female,8,2022-11-24_10h11.43.089,memory_pilot_most_recent,2022.2.4,Win32,4,,,,,,,,,,,,,,,,,,,,,,,,,,,,,,,,,2,right,,,,right,1,1.415,0,29,29,29,1,2238499155-170911.jpg,2446759803-49249.jpg,,
,,,A32BQNJMLMZYG0,22,female,8,2022-11-24_10h11.43.089,memory_pilot_most_recent,2022.2.4,Win32,4,,,,,,,,,,,,,,,,,,,,,,,,,,,,,,,,,2,right,,,,left,0,1.801,0,30,30,30,1,2984615358-72439.jpg,2883268412-365898.jpg,,
,,,A32BQNJMLMZYG0,22,female,8,2022-11-24_10h11.43.089,memory_pilot_most_recent,2022.2.4,Win32,4,,,,,,,,,,,,,,,,,,,,,,,,,,,,,,,,,2,right,,,,right,1,1.635,0,31,31,31,1,2864910427-362199.jpg,2898618390-216538.jpg,,
,,,A32BQNJMLMZYG0,22,female,8,2022-11-24_10h11.43.089,memory_pilot_most_recent,2022.2.4,Win32,4,,,,,,,,,,,,,,,,,,,,,,,,,,,,,,,,,1,right,,,,left,0,1.37,0,32,32,32,1,2575963989-130576.jpg,2592379964-131054.jpg,,
,,,A32BQNJMLMZYG0,22,female,8,2022-11-24_10h11.43.089,memory_pilot_most_recent,2022.2.4,Win32,4,,,,,,,,,,,,,,,,,,,,,,,,,,,,,,,,,1,right,,,,right,1,1.623,0,33,33,33,1,2883266388-67750.jpg,2874299429-139695.jpg,,
,,,A32BQNJMLMZYG0,22,female,8,2022-11-24_10h11.43.089,memory_pilot_most_recent,2022.2.4,Win32,4,,,,,,,,,,,,,,,,,,,,,,,,,,,,,,,,,3,left,,,,left,1,1.884,0,34,34,34,1,2238425482-313537.jpg,2864901352-361731.jpg,,
,,,A32BQNJMLMZYG0,22,female,8,2022-11-24_10h11.43.089,memory_pilot_most_recent,2022.2.4,Win32,4,,,,,,,,,,,,,,,,,,,,,,,,,,,,,,,,,1,left,,,,right,0,1.499,0,35,35,35,1,2238480677-317399.jpg,2238481630-168218.jpg,,
,,,A32BQNJMLMZYG0,22,female,8,2022-11-24_10h11.43.089,memory_pilot_most_recent,2022.2.4,Win32,4,,,,,,,,,,,,,,,,,,,,,,,,,,,,,,,,,3,right,,,,right,1,1.291,0,36,36,36,1,2579432708-56392.jpg,2592380177-354626.jpg,,
,,,A32BQNJMLMZYG0,22,female,8,2022-11-24_10h11.43.089,memory_pilot_most_recent,2022.2.4,Win32,4,,,,,,,,,,,,,,,,,,,,,,,,,,,,,,,,,1,left,,,,left,1,1.945,0,37,37,37,1,2452380832-348593.jpg,2238328478-11678.jpg,,
,,,A32BQNJMLMZYG0,22,female,8,2022-11-24_10h11.43.089,memory_pilot_most_recent,2022.2.4,Win32,4,,,,,,,,,,,,,,,,,,,,,,,,,,,,,,,,,3,right,,,,left,0,1.529,0,38,38,38,1,2424124794-120289.jpg,2874303365-214262.jpg,,
,,,A32BQNJMLMZYG0,22,female,8,2022-11-24_10h11.43.089,memory_pilot_most_recent,2022.2.4,Win32,4,,,,,,,,,,,,,,,,,,,,,,,,,,,,,,,,,2,right,,,,left,0,2.021,0,39,39,39,1,2864900357-361688.jpg,2874307433-66280.jpg,,
,,,A32BQNJMLMZYG0,22,female,8,2022-11-24_10h11.43.089,memory_pilot_most_recent,2022.2.4,Win32,4,,,,,,,,,,,,,,,,,,,,,,,,,,,,,,,,,2,right,,,,right,1,1.74,0,40,40,40,1,2901945495-218294.jpg,2592380177-354629.jpg,,
,,,A32BQNJMLMZYG0,22,female,8,2022-11-24_10h11.43.089,memory_pilot_most_recent,2022.2.4,Win32,4,,,,,,,,,,,,,,,,,,,,,,,,,,,,,,,,,2,left,,,,left,1,1.506,0,41,41,41,1,2512875899-126682.jpg,2238547107-328393.jpg,,
,,,A32BQNJMLMZYG0,22,female,8,2022-11-24_10h11.43.089,memory_pilot_most_recent,2022.2.4,Win32,4,,,,,,,,,,,,,,,,,,,,,,,,,,,,,,,,,2,left,,,,left,1,1.818,0,42,42,42,1,2238428357-313623.jpg,2984616310-220514.jpg,,
,,,A32BQNJMLMZYG0,22,female,8,2022-11-24_10h11.43.089,memory_pilot_most_recent,2022.2.4,Win32,4,,,,,,,,,,,,,,,,,,,,,,,,,,,,,,,,,1,right,,,,left,0,1.438,0,43,43,43,1,2898632385-217137.jpg,2575120738-55529.jpg,,
,,,A32BQNJMLMZYG0,22,female,8,2022-11-24_10h11.43.089,memory_pilot_most_recent,2022.2.4,Win32,4,,,,,,,,,,,,,,,,,,,,,,,,,,,,,,,,,3,right,,,,left,0,1.515,0,44,44,44,1,2989730319-147821.jpg,2898633421-291973.jpg,,
,,,A32BQNJMLMZYG0,22,female,8,2022-11-24_10h11.43.089,memory_pilot_most_recent,2022.2.4,Win32,4,,,,,,,,,,,,,,,,,,,,,,,,,,,,,,,,,1,left,,,,left,1,1.519,0,45,45,45,1,2449442529-124446.jpg,2452380171-273112.jpg,,
,,,A32BQNJMLMZYG0,22,female,8,2022-11-24_10h11.43.089,memory_pilot_most_recent,2022.2.4,Win32,4,,,,,,,,,,,,,,,,,,,,,,,,,,,,,,,,,3,right,,,,left,0,3.534,0,46,46,46,1,2883254439-140940.jpg,2964213381-294060.jpg,,
,,,A32BQNJMLMZYG0,22,female,8,2022-11-24_10h11.43.089,memory_pilot_most_recent,2022.2.4,Win32,4,,,,,,,,,,,,,,,,,,,,,,,,,,,,,,,,,2,left,,,,right,0,1.57,0,47,47,47,1,2898635427-367120.jpg,2449442621-272561.jpg,,
,,,A32BQNJMLMZYG0,22,female,8,2022-11-24_10h11.43.089,memory_pilot_most_recent,2022.2.4,Win32,4,,,,,,,,,,,,,,,,,,,,,,,,,,,,,,,,,3,right,,,,right,1,2.368,0,48,48,48,1,2874312404-140477.jpg,2238580740-186218.jpg,,
,,,A32BQNJMLMZYG0,22,female,8,2022-11-24_10h11.43.089,memory_pilot_most_recent,2022.2.4,Win32,4,,,,,,,,,,,,,,,,,,,,,,,,,,,,,,,,,1,left,,,,right,0,1.769,0,49,49,49,1,2460547508-51571.jpg,2446760917-347439.jpg,,
,,,A32BQNJMLMZYG0,22,female,8,2022-11-24_10h11.43.089,memory_pilot_most_recent,2022.2.4,Win32,4,,,,,,,,,,,,,,,,,,,,,,,,,,,,,,,,,3,right,,,,right,1,1.596,0,50,50,50,1,2981231403-71641.jpg,2964216465-219242.jpg,,
,,,A32BQNJMLMZYG0,22,female,8,2022-11-24_10h11.43.089,memory_pilot_most_recent,2022.2.4,Win32,4,,,,,,,,,,,,,,,,,,,,,,,,,,,,,,,,,2,right,,,,right,1,1.451,0,51,51,51,1,2898629328-68806.jpg,2901948350-218459.jpg,,
,,,A32BQNJMLMZYG0,22,female,8,2022-11-24_10h11.43.089,memory_pilot_most_recent,2022.2.4,Win32,4,,,,,,,,,,,,,,,,,,,,,,,,,,,,,,,,,1,left,,,,right,0,2.156,0,52,52,52,1,2238481928-19949.jpg,2883264367-365620.jpg,,
,,,A32BQNJMLMZYG0,22,female,8,2022-11-24_10h11.43.089,memory_pilot_most_recent,2022.2.4,Win32,4,,,,,,,,,,,,,,,,,,,,,,,,,,,,,,,,,1,left,,,,right,0,0.947,0,53,53,53,1,2446758985-197609.jpg,2981240424-145795.jpg,,
,,,A32BQNJMLMZYG0,22,female,8,2022-11-24_10h11.43.089,memory_pilot_most_recent,2022.2.4,Win32,4,,,,,,,,,,,,,,,,,,,,,,,,,,,,,,,,,3,left,,,,left,1,2.344,0,54,54,54,1,2238572663-35822.jpg,2238375825-162206.jpg,,
,,,A32BQNJMLMZYG0,22,female,8,2022-11-24_10h11.43.089,memory_pilot_most_recent,2022.2.4,Win32,4,,,,,,,,,,,,,,,,,,,,,,,,,,,,,,,,,2,right,,,,left,0,1.258,0,55,55,55,1,2512875824-126658.jpg,2458347385-199723.jpg,,
,,,A32BQNJMLMZYG0,22,female,8,2022-11-24_10h11.43.089,memory_pilot_most_recent,2022.2.4,Win32,4,,,,,,,,,,,,,,,,,,,,,,,,,,,,,,,,,2,left,,,,right,0,1.169,0,56,56,56,1,2981231403-71642.jpg,2864900358-63717.jpg,,
,,,A32BQNJMLMZYG0,22,female,8,2022-11-24_10h11.43.089,memory_pilot_most_recent,2022.2.4,Win32,4,,,,,,,,,,,,,,,,,,,,,,,,,,,,,,,,,3,right,,,,right,1,2.067,0,57,57,57,1,2238537701-251773.jpg,2901952513-70703.jpg,,
,,,A32BQNJMLMZYG0,22,female,8,2022-11-24_10h11.43.089,memory_pilot_most_recent,2022.2.4,Win32,4,,,,,,,,,,,,,,,,,,,,,,,,,,,,,,,,,2,left,,,,left,1,2.847,0,58,58,58,1,2868474407-362883.jpg,2874305405-214397.jpg,,
,,,A32BQNJMLMZYG0,22,female,8,2022-11-24_10h11.43.089,memory_pilot_most_recent,2022.2.4,Win32,4,,,,,,,,,,,,,,,,,,,,,,,,,,,,,,,,,3,right,,,,right,1,2.921,0,59,59,59,1,2238576222-334523.jpg,2449441881-272368.jpg,,
,,,A32BQNJMLMZYG0,22,female,8,2022-11-24_10h11.43.089,memory_pilot_most_recent,2022.2.4,Win32,4,,,,,,,,,,,,,,,,,,,,,,,,,,,,,,,,,,,,,,,,,,,,,,,,space,38.087
