button.numClicks,button.timesOn,button.timesOff,workID,Age,Gender,Hours slept (last night),date,expName,psychopyVersion,OS,frameRate,space_key_responce.keys,space_key_responce.rt,demo_encoding_response.keys,demo_encoding_response.corr,demo_encoding_loop.thisRepN,demo_encoding_loop.thisTrialN,demo_encoding_loop.thisN,demo_encoding_loop.thisIndex,demo_encoding_loop.ran,DemoImage,DemoCorrect,demo_encoding_response.rt,demo_test_response.keys,demo_test_response.corr,demo_test_response.rt,demo_test_loop.thisRepN,demo_test_loop.thisTrialN,demo_test_loop.thisN,demo_test_loop.thisIndex,demo_test_loop.ran,DemoImage1,DemoImage2,DemoCorrectTest,test_encoding_response.keys,test_encoding_response.corr,trials.thisRepN,trials.thisTrialN,trials.thisN,trials.thisIndex,trials.ran,target_image,pair,layer,correct,test_encoding_response.rt,key_resp_end.keys,key_resp_end.rt,test_test_response.keys,test_test_response.corr,test_test_response.rt,trials_2.thisRepN,trials_2.thisTrialN,trials_2.thisN,trials_2.thisIndex,trials_2.ran,image1,image2,key_resp_end_2.keys,key_resp_end_2.rt
1,[49.00499999999988],[49.00499999999988],AZ35WMIEU4RRK,42,Female,7,2022-09-18_10h31.32.744,memory_pilot_most_recent,2022.2.4,Win32,3.158021058,,,,,,,,,,,,,,,,,,,,,,,,,,,,,,,,,,,,,,,,,,,,,,,,,
,,,AZ35WMIEU4RRK,42,Female,7,2022-09-18_10h31.32.744,memory_pilot_most_recent,2022.2.4,Win32,3.158021058,,,,,,,,,,,,,,,,,,,,,,,,,,,,,,,,,,,,,,,,,,,,,,,,,
,,,AZ35WMIEU4RRK,42,Female,7,2022-09-18_10h31.32.744,memory_pilot_most_recent,2022.2.4,Win32,3.158021058,space,7.458,,,,,,,,,,,,,,,,,,,,,,,,,,,,,,,,,,,,,,,,,,,,,,,
,,,AZ35WMIEU4RRK,42,Female,7,2022-09-18_10h31.32.744,memory_pilot_most_recent,2022.2.4,Win32,3.158021058,,,,,,,,,,,,,,,,,,,,,,,,,,,,,,,,,,,,,,,,,,,,,,,,,
,,,AZ35WMIEU4RRK,42,Female,7,2022-09-18_10h31.32.744,memory_pilot_most_recent,2022.2.4,Win32,3.158021058,,,,1,0,0,0,0,1,flower1.jpg,,,,,,,,,,,,,,,,,,,,,,,,,,,,,,,,,,,,,,,
,,,AZ35WMIEU4RRK,42,Female,7,2022-09-18_10h31.32.744,memory_pilot_most_recent,2022.2.4,Win32,3.158021058,,,,1,0,1,1,1,1,flower2.jpg,,,,,,,,,,,,,,,,,,,,,,,,,,,,,,,,,,,,,,,
,,,AZ35WMIEU4RRK,42,Female,7,2022-09-18_10h31.32.744,memory_pilot_most_recent,2022.2.4,Win32,3.158021058,,,left,1,0,2,2,2,1,left.jpg,left,0.872,,,,,,,,,,,,,,,,,,,,,,,,,,,,,,,,,,,,,
,,,AZ35WMIEU4RRK,42,Female,7,2022-09-18_10h31.32.744,memory_pilot_most_recent,2022.2.4,Win32,3.158021058,,,,1,0,3,3,3,1,flower3.jpg,,,,,,,,,,,,,,,,,,,,,,,,,,,,,,,,,,,,,,,
,,,AZ35WMIEU4RRK,42,Female,7,2022-09-18_10h31.32.744,memory_pilot_most_recent,2022.2.4,Win32,3.158021058,,,,1,0,4,4,4,1,flower4.jpg,,,,,,,,,,,,,,,,,,,,,,,,,,,,,,,,,,,,,,,
,,,AZ35WMIEU4RRK,42,Female,7,2022-09-18_10h31.32.744,memory_pilot_most_recent,2022.2.4,Win32,3.158021058,,,,1,0,5,5,5,1,flower5.jpg,,,,,,,,,,,,,,,,,,,,,,,,,,,,,,,,,,,,,,,
,,,AZ35WMIEU4RRK,42,Female,7,2022-09-18_10h31.32.744,memory_pilot_most_recent,2022.2.4,Win32,3.158021058,,,,1,0,6,6,6,1,flower6.jpg,,,,,,,,,,,,,,,,,,,,,,,,,,,,,,,,,,,,,,,
,,,AZ35WMIEU4RRK,42,Female,7,2022-09-18_10h31.32.744,memory_pilot_most_recent,2022.2.4,Win32,3.158021058,,,,,,,,,,,,,,,,,,,,,,,,,,,,,,,,,,,,,,,,,,,,,,,,,
,,,AZ35WMIEU4RRK,42,Female,7,2022-09-18_10h31.32.744,memory_pilot_most_recent,2022.2.4,Win32,3.158021058,,,,,,,,,,,,,right,0,31.917,0,0,0,0,1,flower1.jpg,flower1_pair.jpg,left,,,,,,,,,,,,,,,,,,,,,,,,,,
,,,AZ35WMIEU4RRK,42,Female,7,2022-09-18_10h31.32.744,memory_pilot_most_recent,2022.2.4,Win32,3.158021058,,,,,,,,,,,,,right,1,0.021,0,1,1,1,1,flower2_pair.jpg,flower2.jpg,right,,,,,,,,,,,,,,,,,,,,,,,,,,
,,,AZ35WMIEU4RRK,42,Female,7,2022-09-18_10h31.32.744,memory_pilot_most_recent,2022.2.4,Win32,3.158021058,,,,,,,,,,,,,right,0,4.911,0,2,2,2,1,flower3.jpg,flower3_pair.jpg,left,,,,,,,,,,,,,,,,,,,,,,,,,,
,,,AZ35WMIEU4RRK,42,Female,7,2022-09-18_10h31.32.744,memory_pilot_most_recent,2022.2.4,Win32,3.158021058,,,,,,,,,,,,,right,0,2.133,0,3,3,3,1,flower4.jpg,flower4_pair.jpg,left,,,,,,,,,,,,,,,,,,,,,,,,,,
,,,AZ35WMIEU4RRK,42,Female,7,2022-09-18_10h31.32.744,memory_pilot_most_recent,2022.2.4,Win32,3.158021058,,,,,,,,,,,,,right,1,2.699,0,4,4,4,1,flower5_pair.jpg,flower5.jpg,right,,,,,,,,,,,,,,,,,,,,,,,,,,
,,,AZ35WMIEU4RRK,42,Female,7,2022-09-18_10h31.32.744,memory_pilot_most_recent,2022.2.4,Win32,3.158021058,,,,,,,,,,,,,right,0,1.779,0,5,5,5,1,flower6.jpg,flower6_pair.jpg,left,,,,,,,,,,,,,,,,,,,,,,,,,,
,,,AZ35WMIEU4RRK,42,Female,7,2022-09-18_10h31.32.744,memory_pilot_most_recent,2022.2.4,Win32,3.158021058,,,,,,,,,,,,,,,,,,,,,,,,,,,,,,,,,,,,,,,,,,,,,,,,,
,,,AZ35WMIEU4RRK,42,Female,7,2022-09-18_10h31.32.744,memory_pilot_most_recent,2022.2.4,Win32,3.158021058,space,17.447,,,,,,,,,,,,,,,,,,,,,,,,,,,,,,,,,,,,,,,,,,,,,,,
,,,AZ35WMIEU4RRK,42,Female,7,2022-09-18_10h31.32.744,memory_pilot_most_recent,2022.2.4,Win32,3.158021058,,,,,,,,,,,,,,,,,,,,,,,,,1,0,0,0,0,1,2874299429-139694.jpg,2883266367-365742.jpg,3,,,,,,,,,,,,,,,,
,,,AZ35WMIEU4RRK,42,Female,7,2022-09-18_10h31.32.744,memory_pilot_most_recent,2022.2.4,Win32,3.158021058,,,,,,,,,,,,,,,,,,,,,,,,,1,0,1,1,1,1,2964213381-294060.jpg,2964213381-294061.jpg,3,,,,,,,,,,,,,,,,
,,,AZ35WMIEU4RRK,42,Female,7,2022-09-18_10h31.32.744,memory_pilot_most_recent,2022.2.4,Win32,3.158021058,,,,,,,,,,,,,,,,,,,,,,,,,1,0,2,2,2,1,2864907432-362042.jpg,2989726338-74002.jpg,3,,,,,,,,,,,,,,,,
,,,AZ35WMIEU4RRK,42,Female,7,2022-09-18_10h31.32.744,memory_pilot_most_recent,2022.2.4,Win32,3.158021058,,,,,,,,,,,,,,,,,,,,,,,,,1,0,3,3,3,1,2592380177-354626.jpg,2238576792-334659.jpg,1,,,,,,,,,,,,,,,,
,,,AZ35WMIEU4RRK,42,Female,7,2022-09-18_10h31.32.744,memory_pilot_most_recent,2022.2.4,Win32,3.158021058,,,,,,,,,,,,,,,,,,,,,,,,,1,0,4,4,4,1,2883273443-68193.jpg,2883254439-140940.jpg,1,,,,,,,,,,,,,,,,
,,,AZ35WMIEU4RRK,42,Female,7,2022-09-18_10h31.32.744,memory_pilot_most_recent,2022.2.4,Win32,3.158021058,,,,,,,,,,,,,,,,,,,,,,,,,1,0,5,5,5,1,2460547467-349422.jpg,2898618440-216545.jpg,1,,,,,,,,,,,,,,,,
,,,AZ35WMIEU4RRK,42,Female,7,2022-09-18_10h31.32.744,memory_pilot_most_recent,2022.2.4,Win32,3.158021058,,,,,,,,,,,,,,,,,,,,,,,,,1,0,6,6,6,1,2238425482-313537.jpg,2898633480-217190.jpg,3,,,,,,,,,,,,,,,,
,,,AZ35WMIEU4RRK,42,Female,7,2022-09-18_10h31.32.744,memory_pilot_most_recent,2022.2.4,Win32,3.158021058,,,,,,,,,,,,,,,,,,,,,,,,,1,0,7,7,7,1,2446759803-49249.jpg,2901951392-368654.jpg,3,,,,,,,,,,,,,,,,
,,,AZ35WMIEU4RRK,42,Female,7,2022-09-18_10h31.32.744,memory_pilot_most_recent,2022.2.4,Win32,3.158021058,,,,,,,,,,,,,,,,,,,,,,,,,1,0,8,8,8,1,2868474407-362883.jpg,2901948383-70363.jpg,3,,,,,,,,,,,,,,,,
,,,AZ35WMIEU4RRK,42,Female,7,2022-09-18_10h31.32.744,memory_pilot_most_recent,2022.2.4,Win32,3.158021058,,,,,,,,,,,,,,,,,,,,,,,,right,1,0,9,9,9,1,right.jpg,,,right,1.22,,,,,,,,,,,,,,
,,,AZ35WMIEU4RRK,42,Female,7,2022-09-18_10h31.32.744,memory_pilot_most_recent,2022.2.4,Win32,3.158021058,,,,,,,,,,,,,,,,,,,,,,,,,1,0,10,10,10,1,2898635428-69104.jpg,2446759803-49250.jpg,1,,,,,,,,,,,,,,,,
,,,AZ35WMIEU4RRK,42,Female,7,2022-09-18_10h31.32.744,memory_pilot_most_recent,2022.2.4,Win32,3.158021058,,,,,,,,,,,,,,,,,,,,,,,,,1,0,11,11,11,1,2898635427-367120.jpg,2898621427-366486.jpg,3,,,,,,,,,,,,,,,,
,,,AZ35WMIEU4RRK,42,Female,7,2022-09-18_10h31.32.744,memory_pilot_most_recent,2022.2.4,Win32,3.158021058,,,,,,,,,,,,,,,,,,,,,,,,,1,0,12,12,12,1,2898618444-142233.jpg,2238555262-330312.jpg,2,,,,,,,,,,,,,,,,
,,,AZ35WMIEU4RRK,42,Female,7,2022-09-18_10h31.32.744,memory_pilot_most_recent,2022.2.4,Win32,3.158021058,,,,,,,,,,,,,,,,,,,,,,,,,1,0,13,13,13,1,2898624426-291546.jpg,2964218432-369263.jpg,1,,,,,,,,,,,,,,,,
,,,AZ35WMIEU4RRK,42,Female,7,2022-09-18_10h31.32.744,memory_pilot_most_recent,2022.2.4,Win32,3.158021058,,,,,,,,,,,,,,,,,,,,,,,,,1,0,14,14,14,1,2446758985-197609.jpg,2864909447-362144.jpg,2,,,,,,,,,,,,,,,,
,,,AZ35WMIEU4RRK,42,Female,7,2022-09-18_10h31.32.744,memory_pilot_most_recent,2022.2.4,Win32,3.158021058,,,,,,,,,,,,,,,,,,,,,,,,,1,0,15,15,15,1,2964218374-144967.jpg,2446759306-271734.jpg,2,,,,,,,,,,,,,,,,
,,,AZ35WMIEU4RRK,42,Female,7,2022-09-18_10h31.32.744,memory_pilot_most_recent,2022.2.4,Win32,3.158021058,,,,,,,,,,,,,,,,,,,,,,,,,1,0,16,16,16,1,2238481928-19949.jpg,2883264367-365620.jpg,1,,,,,,,,,,,,,,,,
,,,AZ35WMIEU4RRK,42,Female,7,2022-09-18_10h31.32.744,memory_pilot_most_recent,2022.2.4,Win32,3.158021058,,,,,,,,,,,,,,,,,,,,,,,,,0,0,17,17,17,1,left.jpg,,,left,,,,,,,,,,,,,,,
,,,AZ35WMIEU4RRK,42,Female,7,2022-09-18_10h31.32.744,memory_pilot_most_recent,2022.2.4,Win32,3.158021058,,,,,,,,,,,,,,,,,,,,,,,,,1,0,18,18,18,1,2864910426-287204.jpg,2901939433-69672.jpg,3,,,,,,,,,,,,,,,,
,,,AZ35WMIEU4RRK,42,Female,7,2022-09-18_10h31.32.744,memory_pilot_most_recent,2022.2.4,Win32,3.158021058,,,,,,,,,,,,,,,,,,,,,,,,,1,0,19,19,19,1,2986451363-73598.jpg,2901942443-69925.jpg,3,,,,,,,,,,,,,,,,
,,,AZ35WMIEU4RRK,42,Female,7,2022-09-18_10h31.32.744,memory_pilot_most_recent,2022.2.4,Win32,3.158021058,,,,,,,,,,,,,,,,,,,,,,,,,1,0,20,20,20,1,2901947423-70311.jpg,2860312398-62572.jpg,1,,,,,,,,,,,,,,,,
,,,AZ35WMIEU4RRK,42,Female,7,2022-09-18_10h31.32.744,memory_pilot_most_recent,2022.2.4,Win32,3.158021058,,,,,,,,,,,,,,,,,,,,,,,,,1,0,21,21,21,1,2452380832-348593.jpg,2238481813-19930.jpg,2,,,,,,,,,,,,,,,,
,,,AZ35WMIEU4RRK,42,Female,7,2022-09-18_10h31.32.744,memory_pilot_most_recent,2022.2.4,Win32,3.158021058,,,,,,,,,,,,,,,,,,,,,,,,,1,0,22,22,22,1,2592380177-354629.jpg,2512875587-350044.jpg,3,,,,,,,,,,,,,,,,
,,,AZ35WMIEU4RRK,42,Female,7,2022-09-18_10h31.32.744,memory_pilot_most_recent,2022.2.4,Win32,3.158021058,,,,,,,,,,,,,,,,,,,,,,,,,1,0,23,23,23,1,2898618390-216538.jpg,2901939327-367670.jpg,2,,,,,,,,,,,,,,,,
,,,AZ35WMIEU4RRK,42,Female,7,2022-09-18_10h31.32.744,memory_pilot_most_recent,2022.2.4,Win32,3.158021058,,,,,,,,,,,,,,,,,,,,,,,,,1,0,24,24,24,1,2460547508-51571.jpg,2901941438-69835.jpg,3,,,,,,,,,,,,,,,,
,,,AZ35WMIEU4RRK,42,Female,7,2022-09-18_10h31.32.744,memory_pilot_most_recent,2022.2.4,Win32,3.158021058,,,,,,,,,,,,,,,,,,,,,,,,,1,0,25,25,25,1,2238480677-317399.jpg,2238480278-19661.jpg,3,,,,,,,,,,,,,,,,
,,,AZ35WMIEU4RRK,42,Female,7,2022-09-18_10h31.32.744,memory_pilot_most_recent,2022.2.4,Win32,3.158021058,,,,,,,,,,,,,,,,,,,,,,,,,1,0,26,26,26,1,2874302418-65978.jpg,2898633321-291943.jpg,3,,,,,,,,,,,,,,,,
,,,AZ35WMIEU4RRK,42,Female,7,2022-09-18_10h31.32.744,memory_pilot_most_recent,2022.2.4,Win32,3.158021058,,,,,,,,,,,,,,,,,,,,,,,,,1,0,27,27,27,1,2964222378-71332.jpg,2901933382-367209.jpg,2,,,,,,,,,,,,,,,,
,,,AZ35WMIEU4RRK,42,Female,7,2022-09-18_10h31.32.744,memory_pilot_most_recent,2022.2.4,Win32,3.158021058,,,,,,,,,,,,,,,,,,,,,,,,,1,0,28,28,28,1,2449442529-124446.jpg,2460547536-274181.jpg,2,,,,,,,,,,,,,,,,
,,,AZ35WMIEU4RRK,42,Female,7,2022-09-18_10h31.32.744,memory_pilot_most_recent,2022.2.4,Win32,3.158021058,,,,,,,,,,,,,,,,,,,,,,,,,1,0,29,29,29,1,2986451363-73599.jpg,2898626385-216899.jpg,1,,,,,,,,,,,,,,,,
,,,AZ35WMIEU4RRK,42,Female,7,2022-09-18_10h31.32.744,memory_pilot_most_recent,2022.2.4,Win32,3.158021058,,,,,,,,,,,,,,,,,,,,,,,,,1,0,30,30,30,1,2981231403-71642.jpg,2579432519-130698.jpg,1,,,,,,,,,,,,,,,,
,,,AZ35WMIEU4RRK,42,Female,7,2022-09-18_10h31.32.744,memory_pilot_most_recent,2022.2.4,Win32,3.158021058,,,,,,,,,,,,,,,,,,,,,,,,right,1,0,31,31,31,1,right.jpg,,,right,1.267,,,,,,,,,,,,,,
,,,AZ35WMIEU4RRK,42,Female,7,2022-09-18_10h31.32.744,memory_pilot_most_recent,2022.2.4,Win32,3.158021058,,,,,,,,,,,,,,,,,,,,,,,,,1,0,32,32,32,1,2901939379-143480.jpg,2981229442-369621.jpg,2,,,,,,,,,,,,,,,,
,,,AZ35WMIEU4RRK,42,Female,7,2022-09-18_10h31.32.744,memory_pilot_most_recent,2022.2.4,Win32,3.158021058,,,,,,,,,,,,,,,,,,,,,,,,,1,0,33,33,33,1,2883256307-365057.jpg,2611628310-206388.jpg,1,,,,,,,,,,,,,,,,
,,,AZ35WMIEU4RRK,42,Female,7,2022-09-18_10h31.32.744,memory_pilot_most_recent,2022.2.4,Win32,3.158021058,,,,,,,,,,,,,,,,,,,,,,,,,1,0,34,34,34,1,2575120738-55529.jpg,2575120738-55528.jpg,2,,,,,,,,,,,,,,,,
,,,AZ35WMIEU4RRK,42,Female,7,2022-09-18_10h31.32.744,memory_pilot_most_recent,2022.2.4,Win32,3.158021058,,,,,,,,,,,,,,,,,,,,,,,,,1,0,35,35,35,1,2458347385-199723.jpg,2238480434-93829.jpg,1,,,,,,,,,,,,,,,,
,,,AZ35WMIEU4RRK,42,Female,7,2022-09-18_10h31.32.744,memory_pilot_most_recent,2022.2.4,Win32,3.158021058,,,,,,,,,,,,,,,,,,,,,,,,,1,0,36,36,36,1,2901939379-143479.jpg,2460547467-349423.jpg,1,,,,,,,,,,,,,,,,
,,,AZ35WMIEU4RRK,42,Female,7,2022-09-18_10h31.32.744,memory_pilot_most_recent,2022.2.4,Win32,3.158021058,,,,,,,,,,,,,,,,,,,,,,,,right,1,0,37,37,37,1,right.jpg,,,right,1.29,,,,,,,,,,,,,,
,,,AZ35WMIEU4RRK,42,Female,7,2022-09-18_10h31.32.744,memory_pilot_most_recent,2022.2.4,Win32,3.158021058,,,,,,,,,,,,,,,,,,,,,,,,,1,0,38,38,38,1,2592379964-131054.jpg,2592380272-354673.jpg,3,,,,,,,,,,,,,,,,
,,,AZ35WMIEU4RRK,42,Female,7,2022-09-18_10h31.32.744,memory_pilot_most_recent,2022.2.4,Win32,3.158021058,,,,,,,,,,,,,,,,,,,,,,,,,1,0,39,39,39,1,2874302418-65979.jpg,2237857458-1325.jpg,1,,,,,,,,,,,,,,,,
,,,AZ35WMIEU4RRK,42,Female,7,2022-09-18_10h31.32.744,memory_pilot_most_recent,2022.2.4,Win32,3.158021058,,,,,,,,,,,,,,,,,,,,,,,,,1,0,40,40,40,1,2901952513-70703.jpg,2868469411-287540.jpg,2,,,,,,,,,,,,,,,,
,,,AZ35WMIEU4RRK,42,Female,7,2022-09-18_10h31.32.744,memory_pilot_most_recent,2022.2.4,Win32,3.158021058,,,,,,,,,,,,,,,,,,,,,,,,,1,0,41,41,41,1,2964216465-219242.jpg,2238544191-252422.jpg,1,,,,,,,,,,,,,,,,
,,,AZ35WMIEU4RRK,42,Female,7,2022-09-18_10h31.32.744,memory_pilot_most_recent,2022.2.4,Win32,3.158021058,,,,,,,,,,,,,,,,,,,,,,,,,1,0,42,42,42,1,2238560245-182099.jpg,2592380255-205553.jpg,1,,,,,,,,,,,,,,,,
,,,AZ35WMIEU4RRK,42,Female,7,2022-09-18_10h31.32.744,memory_pilot_most_recent,2022.2.4,Win32,3.158021058,,,,,,,,,,,,,,,,,,,,,,,,,1,0,43,43,43,1,2964223381-294447.jpg,2898628438-68785.jpg,3,,,,,,,,,,,,,,,,
,,,AZ35WMIEU4RRK,42,Female,7,2022-09-18_10h31.32.744,memory_pilot_most_recent,2022.2.4,Win32,3.158021058,,,,,,,,,,,,,,,,,,,,,,,,,1,0,44,44,44,1,2238572663-35822.jpg,2864903351-286874.jpg,3,,,,,,,,,,,,,,,,
,,,AZ35WMIEU4RRK,42,Female,7,2022-09-18_10h31.32.744,memory_pilot_most_recent,2022.2.4,Win32,3.158021058,,,,,,,,,,,,,,,,,,,,,,,,,1,0,45,45,45,1,2449442529-124445.jpg,2986408373-73286.jpg,2,,,,,,,,,,,,,,,,
,,,AZ35WMIEU4RRK,42,Female,7,2022-09-18_10h31.32.744,memory_pilot_most_recent,2022.2.4,Win32,3.158021058,,,,,,,,,,,,,,,,,,,,,,,,,1,0,46,46,46,1,2898633421-291973.jpg,2238550049-105691.jpg,3,,,,,,,,,,,,,,,,
,,,AZ35WMIEU4RRK,42,Female,7,2022-09-18_10h31.32.744,memory_pilot_most_recent,2022.2.4,Win32,3.158021058,,,,,,,,,,,,,,,,,,,,,,,,,1,0,47,47,47,1,2874307433-66280.jpg,2984615358-72439.jpg,1,,,,,,,,,,,,,,,,
,,,AZ35WMIEU4RRK,42,Female,7,2022-09-18_10h31.32.744,memory_pilot_most_recent,2022.2.4,Win32,3.158021058,,,,,,,,,,,,,,,,,,,,,,,,,1,0,48,48,48,1,2452381505-199546.jpg,2901938432-367627.jpg,1,,,,,,,,,,,,,,,,
,,,AZ35WMIEU4RRK,42,Female,7,2022-09-18_10h31.32.744,memory_pilot_most_recent,2022.2.4,Win32,3.158021058,,,,,,,,,,,,,,,,,,,,,,,,,1,0,49,49,49,1,2874301407-363895.jpg,2446761374-124213.jpg,1,,,,,,,,,,,,,,,,
,,,AZ35WMIEU4RRK,42,Female,7,2022-09-18_10h31.32.744,memory_pilot_most_recent,2022.2.4,Win32,3.158021058,,,,,,,,,,,,,,,,,,,,,,,,,1,0,50,50,50,1,2883268471-290842.jpg,2883255450-215310.jpg,2,,,,,,,,,,,,,,,,
,,,AZ35WMIEU4RRK,42,Female,7,2022-09-18_10h31.32.744,memory_pilot_most_recent,2022.2.4,Win32,3.158021058,,,,,,,,,,,,,,,,,,,,,,,,,1,0,51,51,51,1,2898634397-367080.jpg,2237944827-301472.jpg,1,,,,,,,,,,,,,,,,
,,,AZ35WMIEU4RRK,42,Female,7,2022-09-18_10h31.32.744,memory_pilot_most_recent,2022.2.4,Win32,3.158021058,,,,,,,,,,,,,,,,,,,,,,,,,1,0,52,52,52,1,2460547467-349421.jpg,2452380166-273110.jpg,2,,,,,,,,,,,,,,,,
,,,AZ35WMIEU4RRK,42,Female,7,2022-09-18_10h31.32.744,memory_pilot_most_recent,2022.2.4,Win32,3.158021058,,,,,,,,,,,,,,,,,,,,,,,,left,1,0,53,53,53,1,left.jpg,,,left,1.218,,,,,,,,,,,,,,
,,,AZ35WMIEU4RRK,42,Female,7,2022-09-18_10h31.32.744,memory_pilot_most_recent,2022.2.4,Win32,3.158021058,,,,,,,,,,,,,,,,,,,,,,,,,1,0,54,54,54,1,2874303365-214262.jpg,2238563377-332054.jpg,2,,,,,,,,,,,,,,,,
,,,AZ35WMIEU4RRK,42,Female,7,2022-09-18_10h31.32.744,memory_pilot_most_recent,2022.2.4,Win32,3.158021058,,,,,,,,,,,,,,,,,,,,,,,,,1,0,55,55,55,1,2901941401-292798.jpg,2981243412-370222.jpg,2,,,,,,,,,,,,,,,,
,,,AZ35WMIEU4RRK,42,Female,7,2022-09-18_10h31.32.744,memory_pilot_most_recent,2022.2.4,Win32,3.158021058,,,,,,,,,,,,,,,,,,,,,,,,,1,0,56,56,56,1,2874299429-139695.jpg,2901942443-69923.jpg,2,,,,,,,,,,,,,,,,
,,,AZ35WMIEU4RRK,42,Female,7,2022-09-18_10h31.32.744,memory_pilot_most_recent,2022.2.4,Win32,3.158021058,,,,,,,,,,,,,,,,,,,,,,,,,1,0,57,57,57,1,2868475410-213219.jpg,2901946465-218350.jpg,1,,,,,,,,,,,,,,,,
,,,AZ35WMIEU4RRK,42,Female,7,2022-09-18_10h31.32.744,memory_pilot_most_recent,2022.2.4,Win32,3.158021058,,,,,,,,,,,,,,,,,,,,,,,,,1,0,58,58,58,1,2981241414-145842.jpg,2427873848-47312.jpg,3,,,,,,,,,,,,,,,,
,,,AZ35WMIEU4RRK,42,Female,7,2022-09-18_10h31.32.744,memory_pilot_most_recent,2022.2.4,Win32,3.158021058,,,,,,,,,,,,,,,,,,,,,,,,,1,0,59,59,59,1,2898617468-68274.jpg,2901943387-368037.jpg,2,,,,,,,,,,,,,,,,
,,,AZ35WMIEU4RRK,42,Female,7,2022-09-18_10h31.32.744,memory_pilot_most_recent,2022.2.4,Win32,3.158021058,,,,,,,,,,,,,,,,,,,,,,,,,1,0,60,60,60,1,2883268412-365898.jpg,2238436252-314037.jpg,3,,,,,,,,,,,,,,,,
,,,AZ35WMIEU4RRK,42,Female,7,2022-09-18_10h31.32.744,memory_pilot_most_recent,2022.2.4,Win32,3.158021058,,,,,,,,,,,,,,,,,,,,,,,,,1,0,61,61,61,1,2238428357-313623.jpg,2986408339-146952.jpg,3,,,,,,,,,,,,,,,,
,,,AZ35WMIEU4RRK,42,Female,7,2022-09-18_10h31.32.744,memory_pilot_most_recent,2022.2.4,Win32,3.158021058,,,,,,,,,,,,,,,,,,,,,,,,,1,0,62,62,62,1,2238580740-186218.jpg,2238521193-26285.jpg,2,,,,,,,,,,,,,,,,
,,,AZ35WMIEU4RRK,42,Female,7,2022-09-18_10h31.32.744,memory_pilot_most_recent,2022.2.4,Win32,3.158021058,,,,,,,,,,,,,,,,,,,,,,,,,1,0,63,63,63,1,2238481198-19822.jpg,2901946436-293242.jpg,2,,,,,,,,,,,,,,,,
,,,AZ35WMIEU4RRK,42,Female,7,2022-09-18_10h31.32.744,memory_pilot_most_recent,2022.2.4,Win32,3.158021058,,,,,,,,,,,,,,,,,,,,,,,,,1,0,64,64,64,1,2512875899-126682.jpg,2592380177-354628.jpg,2,,,,,,,,,,,,,,,,
,,,AZ35WMIEU4RRK,42,Female,7,2022-09-18_10h31.32.744,memory_pilot_most_recent,2022.2.4,Win32,3.158021058,,,,,,,,,,,,,,,,,,,,,,,,,,,,,,,,,,,,space,3.189,,,,,,,,,,,,
,,,AZ35WMIEU4RRK,42,Female,7,2022-09-18_10h31.32.744,memory_pilot_most_recent,2022.2.4,Win32,3.158021058,,,,,,,,,,,,,,,,,,,,,,,,,,,,,,,,,,,,,,,,,,,,,,,,,
,,,AZ35WMIEU4RRK,42,Female,7,2022-09-18_10h31.32.744,memory_pilot_most_recent,2022.2.4,Win32,3.158021058,,,,,,,,,,,,,,,,,,,,,,,,,,,,,,,,,2,right,,,,left,0,1.845,0,0,0,0,1,2981243412-370222.jpg,2901941401-292798.jpg,,
,,,AZ35WMIEU4RRK,42,Female,7,2022-09-18_10h31.32.744,memory_pilot_most_recent,2022.2.4,Win32,3.158021058,,,,,,,,,,,,,,,,,,,,,,,,,,,,,,,,,1,right,,,,right,1,1.795,0,1,1,1,1,2237857458-1325.jpg,2874302418-65979.jpg,,
,,,AZ35WMIEU4RRK,42,Female,7,2022-09-18_10h31.32.744,memory_pilot_most_recent,2022.2.4,Win32,3.158021058,,,,,,,,,,,,,,,,,,,,,,,,,,,,,,,,,3,left,,,,right,0,2.215,0,2,2,2,1,2868474407-362883.jpg,2901948383-70363.jpg,,
,,,AZ35WMIEU4RRK,42,Female,7,2022-09-18_10h31.32.744,memory_pilot_most_recent,2022.2.4,Win32,3.158021058,,,,,,,,,,,,,,,,,,,,,,,,,,,,,,,,,1,left,,,,left,1,2.717,0,3,3,3,1,2883273443-68193.jpg,2883254439-140940.jpg,,
,,,AZ35WMIEU4RRK,42,Female,7,2022-09-18_10h31.32.744,memory_pilot_most_recent,2022.2.4,Win32,3.158021058,,,,,,,,,,,,,,,,,,,,,,,,,,,,,,,,,3,right,,,,right,1,1.783,0,4,4,4,1,2901939433-69672.jpg,2864910426-287204.jpg,,
,,,AZ35WMIEU4RRK,42,Female,7,2022-09-18_10h31.32.744,memory_pilot_most_recent,2022.2.4,Win32,3.158021058,,,,,,,,,,,,,,,,,,,,,,,,,,,,,,,,,2,right,,,,right,1,1.433,0,5,5,5,1,2986408373-73286.jpg,2449442529-124445.jpg,,
,,,AZ35WMIEU4RRK,42,Female,7,2022-09-18_10h31.32.744,memory_pilot_most_recent,2022.2.4,Win32,3.158021058,,,,,,,,,,,,,,,,,,,,,,,,,,,,,,,,,2,left,,,,left,1,1.893,0,6,6,6,1,2512875899-126682.jpg,2592380177-354628.jpg,,
,,,AZ35WMIEU4RRK,42,Female,7,2022-09-18_10h31.32.744,memory_pilot_most_recent,2022.2.4,Win32,3.158021058,,,,,,,,,,,,,,,,,,,,,,,,,,,,,,,,,2,left,,,,left,1,2.186,0,7,7,7,1,2898617468-68274.jpg,2901943387-368037.jpg,,
,,,AZ35WMIEU4RRK,42,Female,7,2022-09-18_10h31.32.744,memory_pilot_most_recent,2022.2.4,Win32,3.158021058,,,,,,,,,,,,,,,,,,,,,,,,,,,,,,,,,2,left,,,,left,1,1.736,0,8,8,8,1,2898618444-142233.jpg,2238555262-330312.jpg,,
,,,AZ35WMIEU4RRK,42,Female,7,2022-09-18_10h31.32.744,memory_pilot_most_recent,2022.2.4,Win32,3.158021058,,,,,,,,,,,,,,,,,,,,,,,,,,,,,,,,,1,right,,,,right,1,1.748,0,9,9,9,1,2238576792-334659.jpg,2592380177-354626.jpg,,
,,,AZ35WMIEU4RRK,42,Female,7,2022-09-18_10h31.32.744,memory_pilot_most_recent,2022.2.4,Win32,3.158021058,,,,,,,,,,,,,,,,,,,,,,,,,,,,,,,,,2,left,,,,right,0,1.344,0,10,10,10,1,2901952513-70703.jpg,2868469411-287540.jpg,,
,,,AZ35WMIEU4RRK,42,Female,7,2022-09-18_10h31.32.744,memory_pilot_most_recent,2022.2.4,Win32,3.158021058,,,,,,,,,,,,,,,,,,,,,,,,,,,,,,,,,2,right,,,,right,1,1.365,0,11,11,11,1,2238481813-19930.jpg,2452380832-348593.jpg,,
,,,AZ35WMIEU4RRK,42,Female,7,2022-09-18_10h31.32.744,memory_pilot_most_recent,2022.2.4,Win32,3.158021058,,,,,,,,,,,,,,,,,,,,,,,,,,,,,,,,,2,right,,,,left,0,1.391,0,12,12,12,1,2864909447-362144.jpg,2446758985-197609.jpg,,
,,,AZ35WMIEU4RRK,42,Female,7,2022-09-18_10h31.32.744,memory_pilot_most_recent,2022.2.4,Win32,3.158021058,,,,,,,,,,,,,,,,,,,,,,,,,,,,,,,,,3,left,,,,left,1,1.397,0,13,13,13,1,2592380177-354629.jpg,2512875587-350044.jpg,,
,,,AZ35WMIEU4RRK,42,Female,7,2022-09-18_10h31.32.744,memory_pilot_most_recent,2022.2.4,Win32,3.158021058,,,,,,,,,,,,,,,,,,,,,,,,,,,,,,,,,3,right,,,,right,1,2.331,0,14,14,14,1,2238480278-19661.jpg,2238480677-317399.jpg,,
,,,AZ35WMIEU4RRK,42,Female,7,2022-09-18_10h31.32.744,memory_pilot_most_recent,2022.2.4,Win32,3.158021058,,,,,,,,,,,,,,,,,,,,,,,,,,,,,,,,,3,right,,,,left,0,1.795,0,15,15,15,1,2898628438-68785.jpg,2964223381-294447.jpg,,
,,,AZ35WMIEU4RRK,42,Female,7,2022-09-18_10h31.32.744,memory_pilot_most_recent,2022.2.4,Win32,3.158021058,,,,,,,,,,,,,,,,,,,,,,,,,,,,,,,,,3,left,,,,right,0,1.743,0,16,16,16,1,2238425482-313537.jpg,2898633480-217190.jpg,,
,,,AZ35WMIEU4RRK,42,Female,7,2022-09-18_10h31.32.744,memory_pilot_most_recent,2022.2.4,Win32,3.158021058,,,,,,,,,,,,,,,,,,,,,,,,,,,,,,,,,3,right,,,,right,1,2.818,0,17,17,17,1,2986408339-146952.jpg,2238428357-313623.jpg,,
,,,AZ35WMIEU4RRK,42,Female,7,2022-09-18_10h31.32.744,memory_pilot_most_recent,2022.2.4,Win32,3.158021058,,,,,,,,,,,,,,,,,,,,,,,,,,,,,,,,,2,left,,,,right,0,1.41,0,18,18,18,1,2874299429-139695.jpg,2901942443-69923.jpg,,
,,,AZ35WMIEU4RRK,42,Female,7,2022-09-18_10h31.32.744,memory_pilot_most_recent,2022.2.4,Win32,3.158021058,,,,,,,,,,,,,,,,,,,,,,,,,,,,,,,,,1,left,,,,left,1,1.729,0,19,19,19,1,2883256307-365057.jpg,2611628310-206388.jpg,,
,,,AZ35WMIEU4RRK,42,Female,7,2022-09-18_10h31.32.744,memory_pilot_most_recent,2022.2.4,Win32,3.158021058,,,,,,,,,,,,,,,,,,,,,,,,,,,,,,,,,2,right,,,,right,1,2.289,0,20,20,20,1,2452380166-273110.jpg,2460547467-349421.jpg,,
,,,AZ35WMIEU4RRK,42,Female,7,2022-09-18_10h31.32.744,memory_pilot_most_recent,2022.2.4,Win32,3.158021058,,,,,,,,,,,,,,,,,,,,,,,,,,,,,,,,,1,right,,,,left,0,1.792,0,21,21,21,1,2238480434-93829.jpg,2458347385-199723.jpg,,
,,,AZ35WMIEU4RRK,42,Female,7,2022-09-18_10h31.32.744,memory_pilot_most_recent,2022.2.4,Win32,3.158021058,,,,,,,,,,,,,,,,,,,,,,,,,,,,,,,,,1,left,,,,right,0,2.195,0,22,22,22,1,2901947423-70311.jpg,2860312398-62572.jpg,,
,,,AZ35WMIEU4RRK,42,Female,7,2022-09-18_10h31.32.744,memory_pilot_most_recent,2022.2.4,Win32,3.158021058,,,,,,,,,,,,,,,,,,,,,,,,,,,,,,,,,2,right,,,,right,1,2.238,0,23,23,23,1,2901946436-293242.jpg,2238481198-19822.jpg,,
,,,AZ35WMIEU4RRK,42,Female,7,2022-09-18_10h31.32.744,memory_pilot_most_recent,2022.2.4,Win32,3.158021058,,,,,,,,,,,,,,,,,,,,,,,,,,,,,,,,,3,right,,,,left,0,1.754,0,24,24,24,1,2964213381-294061.jpg,2964213381-294060.jpg,,
,,,AZ35WMIEU4RRK,42,Female,7,2022-09-18_10h31.32.744,memory_pilot_most_recent,2022.2.4,Win32,3.158021058,,,,,,,,,,,,,,,,,,,,,,,,,,,,,,,,,1,right,,,,right,1,1.797,0,25,25,25,1,2883264367-365620.jpg,2238481928-19949.jpg,,
,,,AZ35WMIEU4RRK,42,Female,7,2022-09-18_10h31.32.744,memory_pilot_most_recent,2022.2.4,Win32,3.158021058,,,,,,,,,,,,,,,,,,,,,,,,,,,,,,,,,3,left,,,,left,1,2.251,0,26,26,26,1,2592379964-131054.jpg,2592380272-354673.jpg,,
,,,AZ35WMIEU4RRK,42,Female,7,2022-09-18_10h31.32.744,memory_pilot_most_recent,2022.2.4,Win32,3.158021058,,,,,,,,,,,,,,,,,,,,,,,,,,,,,,,,,1,right,,,,left,0,1.541,0,27,27,27,1,2901938432-367627.jpg,2452381505-199546.jpg,,
,,,AZ35WMIEU4RRK,42,Female,7,2022-09-18_10h31.32.744,memory_pilot_most_recent,2022.2.4,Win32,3.158021058,,,,,,,,,,,,,,,,,,,,,,,,,,,,,,,,,3,right,,,,right,1,2.133,0,28,28,28,1,2898633321-291943.jpg,2874302418-65978.jpg,,
,,,AZ35WMIEU4RRK,42,Female,7,2022-09-18_10h31.32.744,memory_pilot_most_recent,2022.2.4,Win32,3.158021058,,,,,,,,,,,,,,,,,,,,,,,,,,,,,,,,,3,left,,,,right,0,1.824,0,29,29,29,1,2986451363-73598.jpg,2901942443-69925.jpg,,
,,,AZ35WMIEU4RRK,42,Female,7,2022-09-18_10h31.32.744,memory_pilot_most_recent,2022.2.4,Win32,3.158021058,,,,,,,,,,,,,,,,,,,,,,,,,,,,,,,,,3,left,,,,right,0,1.921,0,30,30,30,1,2238572663-35822.jpg,2864903351-286874.jpg,,
,,,AZ35WMIEU4RRK,42,Female,7,2022-09-18_10h31.32.744,memory_pilot_most_recent,2022.2.4,Win32,3.158021058,,,,,,,,,,,,,,,,,,,,,,,,,,,,,,,,,2,right,,,,left,0,2.794,0,31,31,31,1,2981229442-369621.jpg,2901939379-143480.jpg,,
,,,AZ35WMIEU4RRK,42,Female,7,2022-09-18_10h31.32.744,memory_pilot_most_recent,2022.2.4,Win32,3.158021058,,,,,,,,,,,,,,,,,,,,,,,,,,,,,,,,,1,right,,,,left,0,2.284,0,32,32,32,1,2237944827-301472.jpg,2898634397-367080.jpg,,
,,,AZ35WMIEU4RRK,42,Female,7,2022-09-18_10h31.32.744,memory_pilot_most_recent,2022.2.4,Win32,3.158021058,,,,,,,,,,,,,,,,,,,,,,,,,,,,,,,,,1,left,,,,left,1,2.757,0,33,33,33,1,2238560245-182099.jpg,2592380255-205553.jpg,,
,,,AZ35WMIEU4RRK,42,Female,7,2022-09-18_10h31.32.744,memory_pilot_most_recent,2022.2.4,Win32,3.158021058,,,,,,,,,,,,,,,,,,,,,,,,,,,,,,,,,2,right,,,,right,1,1.413,0,34,34,34,1,2460547536-274181.jpg,2449442529-124446.jpg,,
,,,AZ35WMIEU4RRK,42,Female,7,2022-09-18_10h31.32.744,memory_pilot_most_recent,2022.2.4,Win32,3.158021058,,,,,,,,,,,,,,,,,,,,,,,,,,,,,,,,,3,right,,,,right,1,1.117,0,35,35,35,1,2901941438-69835.jpg,2460547508-51571.jpg,,
,,,AZ35WMIEU4RRK,42,Female,7,2022-09-18_10h31.32.744,memory_pilot_most_recent,2022.2.4,Win32,3.158021058,,,,,,,,,,,,,,,,,,,,,,,,,,,,,,,,,3,left,,,,left,1,1.054,0,36,36,36,1,2898635427-367120.jpg,2898621427-366486.jpg,,
,,,AZ35WMIEU4RRK,42,Female,7,2022-09-18_10h31.32.744,memory_pilot_most_recent,2022.2.4,Win32,3.158021058,,,,,,,,,,,,,,,,,,,,,,,,,,,,,,,,,3,right,,,,right,1,1.8,0,37,37,37,1,2901951392-368654.jpg,2446759803-49249.jpg,,
,,,AZ35WMIEU4RRK,42,Female,7,2022-09-18_10h31.32.744,memory_pilot_most_recent,2022.2.4,Win32,3.158021058,,,,,,,,,,,,,,,,,,,,,,,,,,,,,,,,,2,right,,,,right,1,1.872,0,38,38,38,1,2883255450-215310.jpg,2883268471-290842.jpg,,
,,,AZ35WMIEU4RRK,42,Female,7,2022-09-18_10h31.32.744,memory_pilot_most_recent,2022.2.4,Win32,3.158021058,,,,,,,,,,,,,,,,,,,,,,,,,,,,,,,,,2,right,,,,right,1,1.85,0,39,39,39,1,2575120738-55528.jpg,2575120738-55529.jpg,,
,,,AZ35WMIEU4RRK,42,Female,7,2022-09-18_10h31.32.744,memory_pilot_most_recent,2022.2.4,Win32,3.158021058,,,,,,,,,,,,,,,,,,,,,,,,,,,,,,,,,2,right,,,,right,1,1.403,0,40,40,40,1,2238563377-332054.jpg,2874303365-214262.jpg,,
,,,AZ35WMIEU4RRK,42,Female,7,2022-09-18_10h31.32.744,memory_pilot_most_recent,2022.2.4,Win32,3.158021058,,,,,,,,,,,,,,,,,,,,,,,,,,,,,,,,,3,left,,,,left,1,1.756,0,41,41,41,1,2981241414-145842.jpg,2427873848-47312.jpg,,
,,,AZ35WMIEU4RRK,42,Female,7,2022-09-18_10h31.32.744,memory_pilot_most_recent,2022.2.4,Win32,3.158021058,,,,,,,,,,,,,,,,,,,,,,,,,,,,,,,,,2,right,,,,left,0,1.388,0,42,42,42,1,2238521193-26285.jpg,2238580740-186218.jpg,,
,,,AZ35WMIEU4RRK,42,Female,7,2022-09-18_10h31.32.744,memory_pilot_most_recent,2022.2.4,Win32,3.158021058,,,,,,,,,,,,,,,,,,,,,,,,,,,,,,,,,1,right,,,,left,0,1.899,0,43,43,43,1,2579432519-130698.jpg,2981231403-71642.jpg,,
,,,AZ35WMIEU4RRK,42,Female,7,2022-09-18_10h31.32.744,memory_pilot_most_recent,2022.2.4,Win32,3.158021058,,,,,,,,,,,,,,,,,,,,,,,,,,,,,,,,,3,right,,,,right,1,1.362,0,44,44,44,1,2883266367-365742.jpg,2874299429-139694.jpg,,
,,,AZ35WMIEU4RRK,42,Female,7,2022-09-18_10h31.32.744,memory_pilot_most_recent,2022.2.4,Win32,3.158021058,,,,,,,,,,,,,,,,,,,,,,,,,,,,,,,,,1,left,,,,left,1,2.251,0,45,45,45,1,2901939379-143479.jpg,2460547467-349423.jpg,,
,,,AZ35WMIEU4RRK,42,Female,7,2022-09-18_10h31.32.744,memory_pilot_most_recent,2022.2.4,Win32,3.158021058,,,,,,,,,,,,,,,,,,,,,,,,,,,,,,,,,1,right,,,,right,1,1.876,0,46,46,46,1,2446761374-124213.jpg,2874301407-363895.jpg,,
,,,AZ35WMIEU4RRK,42,Female,7,2022-09-18_10h31.32.744,memory_pilot_most_recent,2022.2.4,Win32,3.158021058,,,,,,,,,,,,,,,,,,,,,,,,,,,,,,,,,1,right,,,,right,1,1.12,0,47,47,47,1,2898618440-216545.jpg,2460547467-349422.jpg,,
,,,AZ35WMIEU4RRK,42,Female,7,2022-09-18_10h31.32.744,memory_pilot_most_recent,2022.2.4,Win32,3.158021058,,,,,,,,,,,,,,,,,,,,,,,,,,,,,,,,,1,right,,,,right,1,1.831,0,48,48,48,1,2238544191-252422.jpg,2964216465-219242.jpg,,
,,,AZ35WMIEU4RRK,42,Female,7,2022-09-18_10h31.32.744,memory_pilot_most_recent,2022.2.4,Win32,3.158021058,,,,,,,,,,,,,,,,,,,,,,,,,,,,,,,,,1,right,,,,left,0,2.262,0,49,49,49,1,2446759803-49250.jpg,2898635428-69104.jpg,,
,,,AZ35WMIEU4RRK,42,Female,7,2022-09-18_10h31.32.744,memory_pilot_most_recent,2022.2.4,Win32,3.158021058,,,,,,,,,,,,,,,,,,,,,,,,,,,,,,,,,1,left,,,,left,1,1.796,0,50,50,50,1,2986451363-73599.jpg,2898626385-216899.jpg,,
,,,AZ35WMIEU4RRK,42,Female,7,2022-09-18_10h31.32.744,memory_pilot_most_recent,2022.2.4,Win32,3.158021058,,,,,,,,,,,,,,,,,,,,,,,,,,,,,,,,,1,left,,,,right,0,1.358,0,51,51,51,1,2874307433-66280.jpg,2984615358-72439.jpg,,
,,,AZ35WMIEU4RRK,42,Female,7,2022-09-18_10h31.32.744,memory_pilot_most_recent,2022.2.4,Win32,3.158021058,,,,,,,,,,,,,,,,,,,,,,,,,,,,,,,,,3,left,,,,left,1,1.347,0,52,52,52,1,2883268412-365898.jpg,2238436252-314037.jpg,,
,,,AZ35WMIEU4RRK,42,Female,7,2022-09-18_10h31.32.744,memory_pilot_most_recent,2022.2.4,Win32,3.158021058,,,,,,,,,,,,,,,,,,,,,,,,,,,,,,,,,1,left,,,,left,1,1.78,0,53,53,53,1,2898624426-291546.jpg,2964218432-369263.jpg,,
,,,AZ35WMIEU4RRK,42,Female,7,2022-09-18_10h31.32.744,memory_pilot_most_recent,2022.2.4,Win32,3.158021058,,,,,,,,,,,,,,,,,,,,,,,,,,,,,,,,,1,right,,,,right,1,1.832,0,54,54,54,1,2901946465-218350.jpg,2868475410-213219.jpg,,
,,,AZ35WMIEU4RRK,42,Female,7,2022-09-18_10h31.32.744,memory_pilot_most_recent,2022.2.4,Win32,3.158021058,,,,,,,,,,,,,,,,,,,,,,,,,,,,,,,,,2,right,,,,right,1,1.302,0,55,55,55,1,2446759306-271734.jpg,2964218374-144967.jpg,,
,,,AZ35WMIEU4RRK,42,Female,7,2022-09-18_10h31.32.744,memory_pilot_most_recent,2022.2.4,Win32,3.158021058,,,,,,,,,,,,,,,,,,,,,,,,,,,,,,,,,2,left,,,,left,1,1.857,0,56,56,56,1,2898618390-216538.jpg,2901939327-367670.jpg,,
,,,AZ35WMIEU4RRK,42,Female,7,2022-09-18_10h31.32.744,memory_pilot_most_recent,2022.2.4,Win32,3.158021058,,,,,,,,,,,,,,,,,,,,,,,,,,,,,,,,,3,right,,,,right,1,2.282,0,57,57,57,1,2238550049-105691.jpg,2898633421-291973.jpg,,
,,,AZ35WMIEU4RRK,42,Female,7,2022-09-18_10h31.32.744,memory_pilot_most_recent,2022.2.4,Win32,3.158021058,,,,,,,,,,,,,,,,,,,,,,,,,,,,,,,,,3,right,,,,left,0,1.783,0,58,58,58,1,2989726338-74002.jpg,2864907432-362042.jpg,,
,,,AZ35WMIEU4RRK,42,Female,7,2022-09-18_10h31.32.744,memory_pilot_most_recent,2022.2.4,Win32,3.158021058,,,,,,,,,,,,,,,,,,,,,,,,,,,,,,,,,2,right,,,,right,1,1.318,0,59,59,59,1,2901933382-367209.jpg,2964222378-71332.jpg,,
,,,AZ35WMIEU4RRK,42,Female,7,2022-09-18_10h31.32.744,memory_pilot_most_recent,2022.2.4,Win32,3.158021058,,,,,,,,,,,,,,,,,,,,,,,,,,,,,,,,,,,,,,,,,,,,,,,,space,21.193
