,layer,correct,test_test_response.keys,test_test_response.corr,test_test_response.rt,trials_2.thisRepN,trials_2.thisTrialN,trials_2.thisN,trials_2.thisIndex,trials_2.ran,image1,image2,subject
0,1.0,left,right,0.0,2.6299,0.0,0.0,0.0,0.0,1.0,2238580740-186218.jpg,2238550816-254000.jpg,A1J39RAV7TKEMF_2022-09-21_09h07.39.041.csv
1,3.0,left,right,0.0,1.6077,0.0,1.0,1.0,1.0,1.0,2449442529-124445.jpg,2898632385-217137.jpg,A1J39RAV7TKEMF_2022-09-21_09h07.39.041.csv
2,2.0,left,right,0.0,1.4013,0.0,2.0,2.0,2.0,1.0,2898618390-216538.jpg,2901939327-367670.jpg,A1J39RAV7TKEMF_2022-09-21_09h07.39.041.csv
3,2.0,left,left,1.0,1.4336,0.0,3.0,3.0,3.0,1.0,2874302418-65979.jpg,2238480648-19714.jpg,A1J39RAV7TKEMF_2022-09-21_09h07.39.041.csv
4,2.0,left,right,0.0,3.4576,0.0,4.0,4.0,4.0,1.0,2981231403-71642.jpg,2874305405-214397.jpg,A1J39RAV7TKEMF_2022-09-21_09h07.39.041.csv
5,2.0,left,left,1.0,1.8007,0.0,5.0,5.0,5.0,1.0,2981241414-145842.jpg,2874301404-139813.jpg,A1J39RAV7TKEMF_2022-09-21_09h07.39.041.csv
6,1.0,left,left,1.0,4.5117,0.0,6.0,6.0,6.0,1.0,2898635427-367120.jpg,2964221435-219434.jpg,A1J39RAV7TKEMF_2022-09-21_09h07.39.041.csv
7,1.0,right,left,0.0,5.9008,0.0,7.0,7.0,7.0,1.0,2898626385-216899.jpg,2986451363-73599.jpg,A1J39RAV7TKEMF_2022-09-21_09h07.39.041.csv
8,1.0,left,left,1.0,4.3833,0.0,8.0,8.0,8.0,1.0,2883273443-68193.jpg,2883254439-140940.jpg,A1J39RAV7TKEMF_2022-09-21_09h07.39.041.csv
9,2.0,left,left,1.0,2.2009,0.0,9.0,9.0,9.0,1.0,2883256307-365057.jpg,2964210336-293945.jpg,A1J39RAV7TKEMF_2022-09-21_09h07.39.041.csv
10,3.0,left,right,0.0,7.2279,0.0,10.0,10.0,10.0,1.0,2898634397-367080.jpg,2964217461-294238.jpg,A1J39RAV7TKEMF_2022-09-21_09h07.39.041.csv
11,2.0,right,right,1.0,1.4617,0.0,11.0,11.0,11.0,1.0,2868487415-213924.jpg,2460547467-349422.jpg,A1J39RAV7TKEMF_2022-09-21_09h07.39.041.csv
12,2.0,right,left,0.0,5.7819,0.0,12.0,12.0,12.0,1.0,2883268412-365899.jpg,2864910426-287204.jpg,A1J39RAV7TKEMF_2022-09-21_09h07.39.041.csv
13,3.0,right,right,1.0,3.6754,0.0,13.0,13.0,13.0,1.0,2237858942-299356.jpg,2452380832-348593.jpg,A1J39RAV7TKEMF_2022-09-21_09h07.39.041.csv
14,3.0,left,left,1.0,5.2837,0.0,14.0,14.0,14.0,1.0,2901939379-143480.jpg,2898632385-217139.jpg,A1J39RAV7TKEMF_2022-09-21_09h07.39.041.csv
15,2.0,left,right,0.0,8.3161,0.0,15.0,15.0,15.0,1.0,2964218374-144967.jpg,2446759306-271734.jpg,A1J39RAV7TKEMF_2022-09-21_09h07.39.041.csv
16,1.0,right,left,0.0,3.5953,0.0,16.0,16.0,16.0,1.0,2898618327-366317.jpg,2901941401-292798.jpg,A1J39RAV7TKEMF_2022-09-21_09h07.39.041.csv
17,3.0,right,right,1.0,1.2373,0.0,17.0,17.0,17.0,1.0,2460547536-274178.jpg,2449442529-124446.jpg,A1J39RAV7TKEMF_2022-09-21_09h07.39.041.csv
18,3.0,right,right,1.0,5.2809,0.0,18.0,18.0,18.0,1.0,2964207374-144577.jpg,2898617468-68274.jpg,A1J39RAV7TKEMF_2022-09-21_09h07.39.041.csv
19,1.0,left,right,0.0,4.5888,0.0,19.0,19.0,19.0,1.0,2898635428-69104.jpg,2446759803-49250.jpg,A1J39RAV7TKEMF_2022-09-21_09h07.39.041.csv
20,1.0,right,right,1.0,1.3981,0.0,20.0,20.0,20.0,1.0,2592380255-205553.jpg,2238560245-182099.jpg,A1J39RAV7TKEMF_2022-09-21_09h07.39.041.csv
21,2.0,left,left,1.0,2.6323,0.0,21.0,21.0,21.0,1.0,2898633421-291973.jpg,2575118671-277663.jpg,A1J39RAV7TKEMF_2022-09-21_09h07.39.041.csv
22,3.0,left,right,0.0,4.0433,0.0,22.0,22.0,22.0,1.0,2964213381-294060.jpg,2964213381-294061.jpg,A1J39RAV7TKEMF_2022-09-21_09h07.39.041.csv
23,2.0,right,left,0.0,5.5187,0.0,23.0,23.0,23.0,1.0,2427874554-121863.jpg,2458347385-199723.jpg,A1J39RAV7TKEMF_2022-09-21_09h07.39.041.csv
24,2.0,left,left,1.0,16.124,0.0,24.0,24.0,24.0,1.0,2592380177-354626.jpg,2864901386-286797.jpg,A1J39RAV7TKEMF_2022-09-21_09h07.39.041.csv
25,1.0,left,left,1.0,2.4181,0.0,25.0,25.0,25.0,1.0,2874303365-214262.jpg,2274829821-263682.jpg,A1J39RAV7TKEMF_2022-09-21_09h07.39.041.csv
26,2.0,right,right,1.0,2.7493,0.0,26.0,26.0,26.0,1.0,2238573546-258454.jpg,2238480677-317399.jpg,A1J39RAV7TKEMF_2022-09-21_09h07.39.041.csv
27,1.0,right,left,0.0,6.5924,0.0,27.0,27.0,27.0,1.0,2981240424-145794.jpg,2964222378-71332.jpg,A1J39RAV7TKEMF_2022-09-21_09h07.39.041.csv
28,3.0,right,right,1.0,1.2917,0.0,28.0,28.0,28.0,1.0,2883266367-365742.jpg,2874299429-139694.jpg,A1J39RAV7TKEMF_2022-09-21_09h07.39.041.csv
29,3.0,right,right,1.0,2.4141,0.0,29.0,29.0,29.0,1.0,2238436252-314037.jpg,2883268412-365898.jpg,A1J39RAV7TKEMF_2022-09-21_09h07.39.041.csv
30,1.0,left,left,1.0,6.1615,0.0,30.0,30.0,30.0,1.0,2238428357-313623.jpg,2238499057-320266.jpg,A1J39RAV7TKEMF_2022-09-21_09h07.39.041.csv
31,1.0,left,left,1.0,2.3272,0.0,31.0,31.0,31.0,1.0,2898618444-142233.jpg,2898631359-142721.jpg,A1J39RAV7TKEMF_2022-09-21_09h07.39.041.csv
32,3.0,right,left,0.0,5.7641,0.0,32.0,32.0,32.0,1.0,2868474407-362885.jpg,2868475410-213219.jpg,A1J39RAV7TKEMF_2022-09-21_09h07.39.041.csv
33,1.0,right,left,0.0,4.8426,0.0,33.0,33.0,33.0,1.0,2984615358-72439.jpg,2874307433-66280.jpg,A1J39RAV7TKEMF_2022-09-21_09h07.39.041.csv
34,3.0,left,left,1.0,6.5259,0.0,34.0,34.0,34.0,1.0,2592379964-131054.jpg,2592380272-354673.jpg,A1J39RAV7TKEMF_2022-09-21_09h07.39.041.csv
35,1.0,left,right,0.0,5.799,0.0,35.0,35.0,35.0,1.0,2460547508-51571.jpg,2452380166-273109.jpg,A1J39RAV7TKEMF_2022-09-21_09h07.39.041.csv
36,1.0,left,right,0.0,1.9891,0.0,36.0,36.0,36.0,1.0,2964223381-294447.jpg,2427874231-269884.jpg,A1J39RAV7TKEMF_2022-09-21_09h07.39.041.csv
37,2.0,right,right,1.0,7.9496,0.0,37.0,37.0,37.0,1.0,2238571930-184143.jpg,2238572663-35822.jpg,A1J39RAV7TKEMF_2022-09-21_09h07.39.041.csv
38,2.0,right,right,1.0,1.6832,0.0,38.0,38.0,38.0,1.0,2981236443-71859.jpg,2898624426-291546.jpg,A1J39RAV7TKEMF_2022-09-21_09h07.39.041.csv
39,3.0,left,left,1.0,2.7463,0.0,39.0,39.0,39.0,1.0,2901947423-70311.jpg,2238577590-185467.jpg,A1J39RAV7TKEMF_2022-09-21_09h07.39.041.csv
40,3.0,left,left,1.0,6.1513,0.0,40.0,40.0,40.0,1.0,2446759803-49249.jpg,2901951392-368654.jpg,A1J39RAV7TKEMF_2022-09-21_09h07.39.041.csv
41,1.0,left,left,1.0,2.7278,0.0,41.0,41.0,41.0,1.0,2238425482-313537.jpg,2238471391-240918.jpg,A1J39RAV7TKEMF_2022-09-21_09h07.39.041.csv
42,2.0,left,right,0.0,1.3462,0.0,42.0,42.0,42.0,1.0,2238481928-19949.jpg,2864900357-361688.jpg,A1J39RAV7TKEMF_2022-09-21_09h07.39.041.csv
43,3.0,right,left,0.0,2.4053,0.0,43.0,43.0,43.0,1.0,2446760917-347439.jpg,2874299429-139695.jpg,A1J39RAV7TKEMF_2022-09-21_09h07.39.041.csv
44,2.0,right,right,1.0,8.6146,0.0,44.0,44.0,44.0,1.0,2446758985-197610.jpg,2901939379-143479.jpg,A1J39RAV7TKEMF_2022-09-21_09h07.39.041.csv
45,3.0,right,left,0.0,1.31,0.0,45.0,45.0,45.0,1.0,2901947448-70314.jpg,2883268471-290842.jpg,A1J39RAV7TKEMF_2022-09-21_09h07.39.041.csv
46,1.0,right,right,1.0,7.1563,0.0,46.0,46.0,46.0,1.0,2981240424-145795.jpg,2446758985-197609.jpg,A1J39RAV7TKEMF_2022-09-21_09h07.39.041.csv
47,2.0,right,left,0.0,1.8143,0.0,47.0,47.0,47.0,1.0,2898632385-217138.jpg,2452381505-199546.jpg,A1J39RAV7TKEMF_2022-09-21_09h07.39.041.csv
48,3.0,left,right,0.0,1.498,0.0,48.0,48.0,48.0,1.0,2986451363-73598.jpg,2901942443-69925.jpg,A1J39RAV7TKEMF_2022-09-21_09h07.39.041.csv
49,1.0,right,right,1.0,1.1044,0.0,49.0,49.0,49.0,1.0,2864907361-287062.jpg,2901952513-70703.jpg,A1J39RAV7TKEMF_2022-09-21_09h07.39.041.csv
50,2.0,right,right,1.0,1.4492,0.0,50.0,50.0,50.0,1.0,2575120738-55528.jpg,2575120738-55529.jpg,A1J39RAV7TKEMF_2022-09-21_09h07.39.041.csv
51,3.0,left,right,0.0,1.2065,0.0,51.0,51.0,51.0,1.0,2868474407-362883.jpg,2901948383-70363.jpg,A1J39RAV7TKEMF_2022-09-21_09h07.39.041.csv
52,3.0,right,right,1.0,1.3374,0.0,52.0,52.0,52.0,1.0,2989726338-74002.jpg,2864907432-362042.jpg,A1J39RAV7TKEMF_2022-09-21_09h07.39.041.csv
53,3.0,right,left,0.0,1.6102,0.0,53.0,53.0,53.0,1.0,2898619327-366362.jpg,2964216465-219242.jpg,A1J39RAV7TKEMF_2022-09-21_09h07.39.041.csv
54,1.0,left,left,1.0,1.6319,0.0,54.0,54.0,54.0,1.0,2874301407-363895.jpg,2446761374-124213.jpg,A1J39RAV7TKEMF_2022-09-21_09h07.39.041.csv
55,1.0,left,right,0.0,1.2147,0.0,55.0,55.0,55.0,1.0,2238481198-19822.jpg,2862691449-137104.jpg,A1J39RAV7TKEMF_2022-09-21_09h07.39.041.csv
56,3.0,left,left,1.0,1.0945,0.0,56.0,56.0,56.0,1.0,2460547467-349421.jpg,2981235446-294901.jpg,A1J39RAV7TKEMF_2022-09-21_09h07.39.041.csv
57,1.0,left,right,0.0,1.1234,0.0,57.0,57.0,57.0,1.0,2592380177-354629.jpg,2898633421-291974.jpg,A1J39RAV7TKEMF_2022-09-21_09h07.39.041.csv
58,2.0,left,left,1.0,1.4119,0.0,58.0,58.0,58.0,1.0,2874302418-65978.jpg,2238481198-19823.jpg,A1J39RAV7TKEMF_2022-09-21_09h07.39.041.csv
59,2.0,left,left,1.0,1.629,0.0,59.0,59.0,59.0,1.0,2512875899-126682.jpg,2592380177-354628.jpg,A1J39RAV7TKEMF_2022-09-21_09h07.39.041.csv
60,1.0,right,right,1.0,23.838,0.0,0.0,0.0,0.0,1.0,2427874231-269884.jpg,2964223381-294447.jpg,A2EVO0JF0V6Q1_2022-09-21_09h23.24.584.csv
61,1.0,left,right,0.0,0.1605,0.0,1.0,1.0,1.0,1.0,2981241414-145842.jpg,2238516618-25604.jpg,A2EVO0JF0V6Q1_2022-09-21_09h23.24.584.csv
62,3.0,left,left,1.0,0.3014,0.0,2.0,2.0,2.0,1.0,2874299429-139694.jpg,2883266367-365742.jpg,A2EVO0JF0V6Q1_2022-09-21_09h23.24.584.csv
63,1.0,left,right,0.0,0.536,0.0,3.0,3.0,3.0,1.0,2452381505-199546.jpg,2901938432-367627.jpg,A2EVO0JF0V6Q1_2022-09-21_09h23.24.584.csv
64,1.0,left,left,1.0,1.5189,0.0,4.0,4.0,4.0,1.0,2446758985-197609.jpg,2981240424-145795.jpg,A2EVO0JF0V6Q1_2022-09-21_09h23.24.584.csv
65,1.0,left,left,1.0,1.1494,0.0,5.0,5.0,5.0,1.0,2460547467-349422.jpg,2898618440-216545.jpg,A2EVO0JF0V6Q1_2022-09-21_09h23.24.584.csv
66,2.0,left,left,1.0,2.3853,0.0,6.0,6.0,6.0,1.0,2901939379-143479.jpg,2446758985-197610.jpg,A2EVO0JF0V6Q1_2022-09-21_09h23.24.584.csv
67,3.0,right,right,1.0,2.642,0.0,7.0,7.0,7.0,1.0,2238480803-19737.jpg,2238481198-19822.jpg,A2EVO0JF0V6Q1_2022-09-21_09h23.24.584.csv
68,3.0,right,right,1.0,2.4873,0.0,8.0,8.0,8.0,1.0,2901942443-69925.jpg,2986451363-73598.jpg,A2EVO0JF0V6Q1_2022-09-21_09h23.24.584.csv
69,3.0,left,left,1.0,1.4149,0.0,9.0,9.0,9.0,1.0,2238560245-182099.jpg,2238480980-168129.jpg,A2EVO0JF0V6Q1_2022-09-21_09h23.24.584.csv
70,2.0,left,left,1.0,1.5603,0.0,10.0,10.0,10.0,1.0,2460547508-51571.jpg,2981232437-369759.jpg,A2EVO0JF0V6Q1_2022-09-21_09h23.24.584.csv
71,2.0,right,right,1.0,1.3027,0.0,11.0,11.0,11.0,1.0,2981246400-220365.jpg,2874307433-66280.jpg,A2EVO0JF0V6Q1_2022-09-21_09h23.24.584.csv
72,1.0,left,right,0.0,1.4428,0.0,12.0,12.0,12.0,1.0,2883273443-68193.jpg,2883254439-140940.jpg,A2EVO0JF0V6Q1_2022-09-21_09h23.24.584.csv
73,2.0,left,left,1.0,1.2288,0.0,13.0,13.0,13.0,1.0,2449442529-124445.jpg,2986408373-73286.jpg,A2EVO0JF0V6Q1_2022-09-21_09h23.24.584.csv
74,1.0,right,right,1.0,2.9219,0.0,14.0,14.0,14.0,1.0,2964224310-219528.jpg,2874302418-65978.jpg,A2EVO0JF0V6Q1_2022-09-21_09h23.24.584.csv
75,3.0,right,left,0.0,2.6515,0.0,15.0,15.0,15.0,1.0,2901939433-69672.jpg,2864910426-287204.jpg,A2EVO0JF0V6Q1_2022-09-21_09h23.24.584.csv
76,2.0,left,right,0.0,1.3448,0.0,16.0,16.0,16.0,1.0,2986451363-73599.jpg,2860302315-210704.jpg,A2EVO0JF0V6Q1_2022-09-21_09h23.24.584.csv
77,3.0,left,left,1.0,1.2879,0.0,17.0,17.0,17.0,1.0,2512875899-126682.jpg,2986447332-371497.jpg,A2EVO0JF0V6Q1_2022-09-21_09h23.24.584.csv
78,3.0,right,right,1.0,1.1409,0.0,18.0,18.0,18.0,1.0,2238117096-228518.jpg,2592380177-354626.jpg,A2EVO0JF0V6Q1_2022-09-21_09h23.24.584.csv
79,1.0,right,right,1.0,1.2869,0.0,19.0,19.0,19.0,1.0,2575963989-130576.jpg,2592379964-131054.jpg,A2EVO0JF0V6Q1_2022-09-21_09h23.24.584.csv
80,2.0,right,right,1.0,1.2779,0.0,20.0,20.0,20.0,1.0,2901947423-70310.jpg,2864907432-362042.jpg,A2EVO0JF0V6Q1_2022-09-21_09h23.24.584.csv
81,3.0,left,right,0.0,2.5481,0.0,21.0,21.0,21.0,1.0,2238572663-35822.jpg,2864903351-286874.jpg,A2EVO0JF0V6Q1_2022-09-21_09h23.24.584.csv
82,1.0,left,left,1.0,1.3986,0.0,22.0,22.0,22.0,1.0,2449442529-124446.jpg,2446759803-49251.jpg,A2EVO0JF0V6Q1_2022-09-21_09h23.24.584.csv
83,3.0,left,left,1.0,2.0118,0.0,23.0,23.0,23.0,1.0,2238428357-313623.jpg,2986408339-146952.jpg,A2EVO0JF0V6Q1_2022-09-21_09h23.24.584.csv
84,1.0,left,left,1.0,1.7789,0.0,24.0,24.0,24.0,1.0,2874299429-139695.jpg,2883266388-67750.jpg,A2EVO0JF0V6Q1_2022-09-21_09h23.24.584.csv
85,2.0,right,right,1.0,1.4986,0.0,25.0,25.0,25.0,1.0,2901934408-69289.jpg,2898634397-367080.jpg,A2EVO0JF0V6Q1_2022-09-21_09h23.24.584.csv
86,1.0,right,right,1.0,1.6034,0.0,26.0,26.0,26.0,1.0,2446761374-124213.jpg,2874301407-363895.jpg,A2EVO0JF0V6Q1_2022-09-21_09h23.24.584.csv
87,2.0,right,right,1.0,1.8447,0.0,27.0,27.0,27.0,1.0,2238436322-314047.jpg,2238425482-313537.jpg,A2EVO0JF0V6Q1_2022-09-21_09h23.24.584.csv
88,3.0,left,left,1.0,1.752,0.0,28.0,28.0,28.0,1.0,2898633421-291973.jpg,2238550049-105691.jpg,A2EVO0JF0V6Q1_2022-09-21_09h23.24.584.csv
89,3.0,right,right,1.0,1.9913,0.0,29.0,29.0,29.0,1.0,2427873763-47290.jpg,2981231403-71642.jpg,A2EVO0JF0V6Q1_2022-09-21_09h23.24.584.csv
90,1.0,left,left,1.0,1.4613,0.0,30.0,30.0,30.0,1.0,2964213381-294060.jpg,2981244394-145974.jpg,A2EVO0JF0V6Q1_2022-09-21_09h23.24.584.csv
91,2.0,left,left,1.0,1.9374,0.0,31.0,31.0,31.0,1.0,2592380177-354629.jpg,2579432534-130704.jpg,A2EVO0JF0V6Q1_2022-09-21_09h23.24.584.csv
92,3.0,left,left,1.0,1.2272,0.0,32.0,32.0,32.0,1.0,2964218374-144967.jpg,2981231446-294732.jpg,A2EVO0JF0V6Q1_2022-09-21_09h23.24.584.csv
93,1.0,left,right,0.0,1.6183,0.0,33.0,33.0,33.0,1.0,2238580740-186218.jpg,2238550816-254000.jpg,A2EVO0JF0V6Q1_2022-09-21_09h23.24.584.csv
94,2.0,right,right,1.0,1.6057,0.0,34.0,34.0,34.0,1.0,2238481813-19930.jpg,2452380832-348593.jpg,A2EVO0JF0V6Q1_2022-09-21_09h23.24.584.csv
95,1.0,left,right,0.0,2.3411,0.0,35.0,35.0,35.0,1.0,2964222378-71332.jpg,2981240424-145794.jpg,A2EVO0JF0V6Q1_2022-09-21_09h23.24.584.csv
96,3.0,right,right,1.0,1.2192,0.0,36.0,36.0,36.0,1.0,2238577590-185467.jpg,2901947423-70311.jpg,A2EVO0JF0V6Q1_2022-09-21_09h23.24.584.csv
97,1.0,right,left,0.0,1.46,0.0,37.0,37.0,37.0,1.0,2446759803-49250.jpg,2898635428-69104.jpg,A2EVO0JF0V6Q1_2022-09-21_09h23.24.584.csv
98,3.0,right,right,1.0,1.2828,0.0,38.0,38.0,38.0,1.0,2901948383-70363.jpg,2868474407-362883.jpg,A2EVO0JF0V6Q1_2022-09-21_09h23.24.584.csv
99,1.0,left,right,0.0,1.6854,0.0,39.0,39.0,39.0,1.0,2898617468-68274.jpg,2901946439-144040.jpg,A2EVO0JF0V6Q1_2022-09-21_09h23.24.584.csv
100,1.0,right,right,1.0,1.3632,0.0,40.0,40.0,40.0,1.0,2984626312-370849.jpg,2883268412-365898.jpg,A2EVO0JF0V6Q1_2022-09-21_09h23.24.584.csv
101,2.0,right,left,0.0,1.143,0.0,41.0,41.0,41.0,1.0,2883255450-215310.jpg,2883268471-290842.jpg,A2EVO0JF0V6Q1_2022-09-21_09h23.24.584.csv
102,3.0,right,right,1.0,1.3227,0.0,42.0,42.0,42.0,1.0,2981241419-145844.jpg,2238481928-19949.jpg,A2EVO0JF0V6Q1_2022-09-21_09h23.24.584.csv
103,3.0,right,left,0.0,1.4962,0.0,43.0,43.0,43.0,1.0,2238531493-28260.jpg,2575120738-55529.jpg,A2EVO0JF0V6Q1_2022-09-21_09h23.24.584.csv
104,1.0,right,right,1.0,1.0341,0.0,44.0,44.0,44.0,1.0,2898631394-142727.jpg,2460547467-349421.jpg,A2EVO0JF0V6Q1_2022-09-21_09h23.24.584.csv
105,2.0,right,right,1.0,1.2377,0.0,45.0,45.0,45.0,1.0,2238480803-19739.jpg,2868475410-213219.jpg,A2EVO0JF0V6Q1_2022-09-21_09h23.24.584.csv
106,2.0,right,left,0.0,1.3598,0.0,46.0,46.0,46.0,1.0,2981229442-369621.jpg,2901939379-143480.jpg,A2EVO0JF0V6Q1_2022-09-21_09h23.24.584.csv
107,2.0,right,left,0.0,2.1351,0.0,47.0,47.0,47.0,1.0,2868469411-287540.jpg,2901952513-70703.jpg,A2EVO0JF0V6Q1_2022-09-21_09h23.24.584.csv
108,3.0,left,right,0.0,1.0989,0.0,48.0,48.0,48.0,1.0,2898624426-291546.jpg,2981235446-294900.jpg,A2EVO0JF0V6Q1_2022-09-21_09h23.24.584.csv
109,3.0,right,right,1.0,1.7792,0.0,49.0,49.0,49.0,1.0,2864911457-362260.jpg,2874303365-214262.jpg,A2EVO0JF0V6Q1_2022-09-21_09h23.24.584.csv
110,2.0,left,left,1.0,1.1375,0.0,50.0,50.0,50.0,1.0,2238480677-317399.jpg,2238573546-258454.jpg,A2EVO0JF0V6Q1_2022-09-21_09h23.24.584.csv
111,2.0,left,right,0.0,1.2343,0.0,51.0,51.0,51.0,1.0,2901941401-292798.jpg,2981243412-370222.jpg,A2EVO0JF0V6Q1_2022-09-21_09h23.24.584.csv
112,3.0,right,left,0.0,1.254,0.0,52.0,52.0,52.0,1.0,2864904453-63933.jpg,2883256307-365057.jpg,A2EVO0JF0V6Q1_2022-09-21_09h23.24.584.csv
113,2.0,right,left,0.0,1.6041,0.0,53.0,53.0,53.0,1.0,2898618440-216547.jpg,2446759803-49249.jpg,A2EVO0JF0V6Q1_2022-09-21_09h23.24.584.csv
114,2.0,left,right,0.0,1.0263,0.0,54.0,54.0,54.0,1.0,2964216465-219242.jpg,2864900319-137787.jpg,A2EVO0JF0V6Q1_2022-09-21_09h23.24.584.csv
115,1.0,left,right,0.0,0.9311,0.0,55.0,55.0,55.0,1.0,2874302418-65979.jpg,2237857458-1325.jpg,A2EVO0JF0V6Q1_2022-09-21_09h23.24.584.csv
116,3.0,right,left,0.0,1.0175,0.0,56.0,56.0,56.0,1.0,2458347252-348911.jpg,2458347385-199723.jpg,A2EVO0JF0V6Q1_2022-09-21_09h23.24.584.csv
117,2.0,left,right,0.0,0.9292,0.0,57.0,57.0,57.0,1.0,2898635427-367120.jpg,2868479517-363220.jpg,A2EVO0JF0V6Q1_2022-09-21_09h23.24.584.csv
118,2.0,right,right,1.0,1.242,0.0,58.0,58.0,58.0,1.0,2238555262-330312.jpg,2898618444-142233.jpg,A2EVO0JF0V6Q1_2022-09-21_09h23.24.584.csv
119,1.0,left,right,0.0,18.6667,0.0,0.0,0.0,0.0,1.0,2964223381-294447.jpg,2427874231-269884.jpg,A1XIXGOB9KUMPJ_2022-09-21_09h19.13.047.csv
120,3.0,left,right,0.0,0.1755,0.0,1.0,1.0,1.0,1.0,2238481198-19822.jpg,2238480803-19737.jpg,A1XIXGOB9KUMPJ_2022-09-21_09h19.13.047.csv
121,1.0,left,left,1.0,2.2939,0.0,2.0,2.0,2.0,1.0,2883256307-365057.jpg,2611628310-206388.jpg,A1XIXGOB9KUMPJ_2022-09-21_09h19.13.047.csv
122,1.0,right,right,1.0,1.5453,0.0,3.0,3.0,3.0,1.0,2452380171-273112.jpg,2449442529-124445.jpg,A1XIXGOB9KUMPJ_2022-09-21_09h19.13.047.csv
123,2.0,right,right,1.0,2.4967,0.0,4.0,4.0,4.0,1.0,2981244403-72215.jpg,2874299429-139694.jpg,A1XIXGOB9KUMPJ_2022-09-21_09h19.13.047.csv
124,2.0,right,right,1.0,1.9178,0.0,5.0,5.0,5.0,1.0,2868479517-363220.jpg,2898635427-367120.jpg,A1XIXGOB9KUMPJ_2022-09-21_09h19.13.047.csv
125,2.0,right,right,1.0,1.997,0.0,6.0,6.0,6.0,1.0,2874314526-289684.jpg,2238560245-182099.jpg,A1XIXGOB9KUMPJ_2022-09-21_09h19.13.047.csv
126,1.0,right,right,1.0,1.7408,0.0,7.0,7.0,7.0,1.0,2901946465-218350.jpg,2868475410-213219.jpg,A1XIXGOB9KUMPJ_2022-09-21_09h19.13.047.csv
127,1.0,right,right,1.0,1.7241,0.0,8.0,8.0,8.0,1.0,2512876023-52283.jpg,2898633421-291973.jpg,A1XIXGOB9KUMPJ_2022-09-21_09h19.13.047.csv
128,3.0,left,right,0.0,2.6838,0.0,9.0,9.0,9.0,1.0,2874307433-66280.jpg,2981231422-369714.jpg,A1XIXGOB9KUMPJ_2022-09-21_09h19.13.047.csv
129,1.0,left,left,1.0,2.0373,0.0,10.0,10.0,10.0,1.0,2901939379-143480.jpg,2901942428-69919.jpg,A1XIXGOB9KUMPJ_2022-09-21_09h19.13.047.csv
130,1.0,left,left,1.0,1.4449,0.0,11.0,11.0,11.0,1.0,2874302418-65978.jpg,2964224310-219528.jpg,A1XIXGOB9KUMPJ_2022-09-21_09h19.13.047.csv
131,3.0,left,left,1.0,1.5788,0.0,12.0,12.0,12.0,1.0,2901941401-292798.jpg,2898631468-68931.jpg,A1XIXGOB9KUMPJ_2022-09-21_09h19.13.047.csv
132,1.0,right,right,1.0,1.576,0.0,13.0,13.0,13.0,1.0,2575963989-130576.jpg,2592379964-131054.jpg,A1XIXGOB9KUMPJ_2022-09-21_09h19.13.047.csv
133,3.0,right,right,1.0,1.9717,0.0,14.0,14.0,14.0,1.0,2901947448-70314.jpg,2883268471-290842.jpg,A1XIXGOB9KUMPJ_2022-09-21_09h19.13.047.csv
134,1.0,right,left,0.0,2.3422,0.0,15.0,15.0,15.0,1.0,2446759803-49251.jpg,2449442529-124446.jpg,A1XIXGOB9KUMPJ_2022-09-21_09h19.13.047.csv
135,2.0,left,left,1.0,1.5685,0.0,16.0,16.0,16.0,1.0,2898618444-142233.jpg,2238555262-330312.jpg,A1XIXGOB9KUMPJ_2022-09-21_09h19.13.047.csv
136,2.0,left,right,0.0,2.5622,0.0,17.0,17.0,17.0,1.0,2592380177-354629.jpg,2579432534-130704.jpg,A1XIXGOB9KUMPJ_2022-09-21_09h19.13.047.csv
137,3.0,right,right,1.0,2.0061,0.0,18.0,18.0,18.0,1.0,2898619327-366362.jpg,2964216465-219242.jpg,A1XIXGOB9KUMPJ_2022-09-21_09h19.13.047.csv
138,2.0,left,left,1.0,1.5635,0.0,19.0,19.0,19.0,1.0,2981241414-145842.jpg,2874301404-139813.jpg,A1XIXGOB9KUMPJ_2022-09-21_09h19.13.047.csv
139,3.0,right,right,1.0,1.4064,0.0,20.0,20.0,20.0,1.0,2864909447-362146.jpg,2460547467-349422.jpg,A1XIXGOB9KUMPJ_2022-09-21_09h19.13.047.csv
140,2.0,right,left,0.0,1.9458,0.0,21.0,21.0,21.0,1.0,2883268412-365899.jpg,2864910426-287204.jpg,A1XIXGOB9KUMPJ_2022-09-21_09h19.13.047.csv
141,3.0,left,left,1.0,1.4227,0.0,22.0,22.0,22.0,1.0,2874302418-65979.jpg,2238578544-111698.jpg,A1XIXGOB9KUMPJ_2022-09-21_09h19.13.047.csv
142,2.0,left,left,1.0,1.7412,0.0,23.0,23.0,23.0,1.0,2964213381-294060.jpg,2458348012-349114.jpg,A1XIXGOB9KUMPJ_2022-09-21_09h19.13.047.csv
143,1.0,left,left,1.0,1.897,0.0,24.0,24.0,24.0,1.0,2898635428-69104.jpg,2446759803-49250.jpg,A1XIXGOB9KUMPJ_2022-09-21_09h19.13.047.csv
144,1.0,right,right,1.0,1.2785,0.0,25.0,25.0,25.0,1.0,2964218374-144968.jpg,2964218374-144967.jpg,A1XIXGOB9KUMPJ_2022-09-21_09h19.13.047.csv
145,1.0,left,left,1.0,1.6277,0.0,26.0,26.0,26.0,1.0,2452380832-348593.jpg,2238328478-11678.jpg,A1XIXGOB9KUMPJ_2022-09-21_09h19.13.047.csv
146,2.0,right,left,0.0,1.5689,0.0,27.0,27.0,27.0,1.0,2446758985-197610.jpg,2901939379-143479.jpg,A1XIXGOB9KUMPJ_2022-09-21_09h19.13.047.csv
147,3.0,left,left,1.0,1.3239,0.0,28.0,28.0,28.0,1.0,2901947423-70311.jpg,2238577590-185467.jpg,A1XIXGOB9KUMPJ_2022-09-21_09h19.13.047.csv
148,2.0,right,left,0.0,1.4428,0.0,29.0,29.0,29.0,1.0,2898632385-217138.jpg,2452381505-199546.jpg,A1XIXGOB9KUMPJ_2022-09-21_09h19.13.047.csv
149,3.0,left,left,1.0,1.6665,0.0,30.0,30.0,30.0,1.0,2883273443-68193.jpg,2898627427-366763.jpg,A1XIXGOB9KUMPJ_2022-09-21_09h19.13.047.csv
150,3.0,right,right,1.0,3.87,0.0,31.0,31.0,31.0,1.0,2964220333-71258.jpg,2238580740-186218.jpg,A1XIXGOB9KUMPJ_2022-09-21_09h19.13.047.csv
151,1.0,left,left,1.0,3.4099,0.0,32.0,32.0,32.0,1.0,2460547467-349421.jpg,2898631394-142727.jpg,A1XIXGOB9KUMPJ_2022-09-21_09h19.13.047.csv
152,3.0,left,left,1.0,1.3269,0.0,33.0,33.0,33.0,1.0,2874301407-363895.jpg,2901947323-70275.jpg,A1XIXGOB9KUMPJ_2022-09-21_09h19.13.047.csv
153,2.0,left,right,0.0,1.2561,0.0,34.0,34.0,34.0,1.0,2512875899-126682.jpg,2592380177-354628.jpg,A1XIXGOB9KUMPJ_2022-09-21_09h19.13.047.csv
154,1.0,right,right,1.0,1.1333,0.0,35.0,35.0,35.0,1.0,2898626385-216899.jpg,2986451363-73599.jpg,A1XIXGOB9KUMPJ_2022-09-21_09h19.13.047.csv
155,2.0,left,left,1.0,0.8728,0.0,36.0,36.0,36.0,1.0,2446758985-197609.jpg,2864909447-362144.jpg,A1XIXGOB9KUMPJ_2022-09-21_09h19.13.047.csv
156,2.0,right,right,1.0,1.1943,0.0,37.0,37.0,37.0,1.0,2981236443-71859.jpg,2898624426-291546.jpg,A1XIXGOB9KUMPJ_2022-09-21_09h19.13.047.csv
157,3.0,left,right,0.0,1.8445,0.0,38.0,38.0,38.0,1.0,2238572663-35822.jpg,2864903351-286874.jpg,A1XIXGOB9KUMPJ_2022-09-21_09h19.13.047.csv
158,2.0,left,right,0.0,1.4413,0.0,39.0,39.0,39.0,1.0,2238480677-317399.jpg,2238573546-258454.jpg,A1XIXGOB9KUMPJ_2022-09-21_09h19.13.047.csv
159,2.0,left,left,1.0,1.8526,0.0,40.0,40.0,40.0,1.0,2898618390-216538.jpg,2901939327-367670.jpg,A1XIXGOB9KUMPJ_2022-09-21_09h19.13.047.csv
160,3.0,right,right,1.0,1.4895,0.0,41.0,41.0,41.0,1.0,2964207374-144577.jpg,2898617468-68274.jpg,A1XIXGOB9KUMPJ_2022-09-21_09h19.13.047.csv
161,1.0,right,right,1.0,1.7381,0.0,42.0,42.0,42.0,1.0,2981240424-145794.jpg,2964222378-71332.jpg,A1XIXGOB9KUMPJ_2022-09-21_09h19.13.047.csv
162,1.0,left,left,1.0,4.8204,0.0,43.0,43.0,43.0,1.0,2874303365-214262.jpg,2274829821-263682.jpg,A1XIXGOB9KUMPJ_2022-09-21_09h19.13.047.csv
163,2.0,right,left,0.0,1.9372,0.0,44.0,44.0,44.0,1.0,2901942443-69923.jpg,2874299429-139695.jpg,A1XIXGOB9KUMPJ_2022-09-21_09h19.13.047.csv
164,2.0,left,right,0.0,3.0057,0.0,45.0,45.0,45.0,1.0,2868474407-362883.jpg,2981246400-220363.jpg,A1XIXGOB9KUMPJ_2022-09-21_09h19.13.047.csv
165,3.0,right,left,0.0,1.3979,0.0,46.0,46.0,46.0,1.0,2901942443-69925.jpg,2986451363-73598.jpg,A1XIXGOB9KUMPJ_2022-09-21_09h19.13.047.csv
166,3.0,right,left,0.0,3.2112,0.0,47.0,47.0,47.0,1.0,2238531493-28260.jpg,2575120738-55529.jpg,A1XIXGOB9KUMPJ_2022-09-21_09h19.13.047.csv
167,2.0,right,right,1.0,3.508,0.0,48.0,48.0,48.0,1.0,2864901386-286797.jpg,2592380177-354626.jpg,A1XIXGOB9KUMPJ_2022-09-21_09h19.13.047.csv
168,3.0,right,left,0.0,3.1848,0.0,49.0,49.0,49.0,1.0,2238481198-19821.jpg,2901952513-70703.jpg,A1XIXGOB9KUMPJ_2022-09-21_09h19.13.047.csv
169,3.0,left,left,1.0,1.1954,0.0,50.0,50.0,50.0,1.0,2864907432-362042.jpg,2989726338-74002.jpg,A1XIXGOB9KUMPJ_2022-09-21_09h19.13.047.csv
170,1.0,right,right,1.0,3.1345,0.0,51.0,51.0,51.0,1.0,2237944827-301472.jpg,2898634397-367080.jpg,A1XIXGOB9KUMPJ_2022-09-21_09h19.13.047.csv
171,1.0,left,left,1.0,1.1931,0.0,52.0,52.0,52.0,1.0,2458347385-199723.jpg,2238480434-93829.jpg,A1XIXGOB9KUMPJ_2022-09-21_09h19.13.047.csv
172,3.0,right,left,0.0,1.2688,0.0,53.0,53.0,53.0,1.0,2901941438-69835.jpg,2460547508-51571.jpg,A1XIXGOB9KUMPJ_2022-09-21_09h19.13.047.csv
173,1.0,right,right,1.0,1.5386,0.0,54.0,54.0,54.0,1.0,2238471391-240918.jpg,2238425482-313537.jpg,A1XIXGOB9KUMPJ_2022-09-21_09h19.13.047.csv
174,3.0,right,left,0.0,1.4933,0.0,55.0,55.0,55.0,1.0,2901951392-368654.jpg,2446759803-49249.jpg,A1XIXGOB9KUMPJ_2022-09-21_09h19.13.047.csv
175,2.0,left,left,1.0,1.2996,0.0,56.0,56.0,56.0,1.0,2238428357-313623.jpg,2984615361-295509.jpg,A1XIXGOB9KUMPJ_2022-09-21_09h19.13.047.csv
176,2.0,right,left,0.0,1.8918,0.0,57.0,57.0,57.0,1.0,2864900357-361688.jpg,2238481928-19949.jpg,A1XIXGOB9KUMPJ_2022-09-21_09h19.13.047.csv
177,1.0,left,left,1.0,1.9128,0.0,58.0,58.0,58.0,1.0,2981231403-71642.jpg,2579432519-130698.jpg,A1XIXGOB9KUMPJ_2022-09-21_09h19.13.047.csv
178,3.0,right,left,0.0,1.4297,0.0,59.0,59.0,59.0,1.0,2238436252-314037.jpg,2883268412-365898.jpg,A1XIXGOB9KUMPJ_2022-09-21_09h19.13.047.csv
179,1.0,right,left,0.0,9.5952,0.0,0.0,0.0,0.0,1.0,2446759803-49250.jpg,2898635428-69104.jpg,A1STC10BXEP495_2022-09-21_08h03.48.970.csv
180,2.0,left,left,1.0,3.3495,0.0,1.0,1.0,1.0,1.0,2238425482-313537.jpg,2238436322-314047.jpg,A1STC10BXEP495_2022-09-21_08h03.48.970.csv
181,2.0,left,left,1.0,1.7694,0.0,2.0,2.0,2.0,1.0,2575120738-55529.jpg,2575120738-55528.jpg,A1STC10BXEP495_2022-09-21_08h03.48.970.csv
182,3.0,left,right,0.0,2.9427,0.0,3.0,3.0,3.0,1.0,2238560245-182099.jpg,2238480980-168129.jpg,A1STC10BXEP495_2022-09-21_08h03.48.970.csv
183,3.0,right,right,1.0,1.6949,0.0,4.0,4.0,4.0,1.0,2458347252-348911.jpg,2458347385-199723.jpg,A1STC10BXEP495_2022-09-21_08h03.48.970.csv
184,2.0,left,right,0.0,1.7907,0.0,5.0,5.0,5.0,1.0,2460547467-349422.jpg,2868487415-213924.jpg,A1STC10BXEP495_2022-09-21_08h03.48.970.csv
185,1.0,right,right,1.0,2.1749,0.0,6.0,6.0,6.0,1.0,2452380166-273109.jpg,2460547508-51571.jpg,A1STC10BXEP495_2022-09-21_08h03.48.970.csv
186,2.0,right,left,0.0,1.7949,0.0,7.0,7.0,7.0,1.0,2238480803-19739.jpg,2868475410-213219.jpg,A1STC10BXEP495_2022-09-21_08h03.48.970.csv
187,2.0,right,right,1.0,1.5624,0.0,8.0,8.0,8.0,1.0,2874301404-139813.jpg,2981241414-145842.jpg,A1STC10BXEP495_2022-09-21_08h03.48.970.csv
188,1.0,left,left,1.0,1.5407,0.0,9.0,9.0,9.0,1.0,2986451363-73598.jpg,2237857458-1324.jpg,A1STC10BXEP495_2022-09-21_08h03.48.970.csv
189,3.0,left,right,0.0,2.8269,0.0,10.0,10.0,10.0,1.0,2592380177-354626.jpg,2238117096-228518.jpg,A1STC10BXEP495_2022-09-21_08h03.48.970.csv
190,3.0,right,left,0.0,3.5003,0.0,11.0,11.0,11.0,1.0,2981231422-369714.jpg,2874307433-66280.jpg,A1STC10BXEP495_2022-09-21_08h03.48.970.csv
191,2.0,right,right,1.0,2.8657,0.0,12.0,12.0,12.0,1.0,2238480648-19714.jpg,2874302418-65979.jpg,A1STC10BXEP495_2022-09-21_08h03.48.970.csv
192,2.0,left,left,1.0,1.4339,0.0,13.0,13.0,13.0,1.0,2592380177-354629.jpg,2579432534-130704.jpg,A1STC10BXEP495_2022-09-21_08h03.48.970.csv
193,3.0,left,left,1.0,1.7845,0.0,14.0,14.0,14.0,1.0,2864910426-287204.jpg,2901939433-69672.jpg,A1STC10BXEP495_2022-09-21_08h03.48.970.csv
194,3.0,right,right,1.0,1.6773,0.0,15.0,15.0,15.0,1.0,2898633321-291943.jpg,2874302418-65978.jpg,A1STC10BXEP495_2022-09-21_08h03.48.970.csv
195,2.0,right,right,1.0,1.4493,0.0,16.0,16.0,16.0,1.0,2883255450-215310.jpg,2883268471-290842.jpg,A1STC10BXEP495_2022-09-21_08h03.48.970.csv
196,2.0,left,right,0.0,3.9089,0.0,17.0,17.0,17.0,1.0,2964223381-294447.jpg,2901941438-69836.jpg,A1STC10BXEP495_2022-09-21_08h03.48.970.csv
197,2.0,right,left,0.0,1.7859,0.0,18.0,18.0,18.0,1.0,2901942443-69923.jpg,2874299429-139695.jpg,A1STC10BXEP495_2022-09-21_08h03.48.970.csv
198,2.0,right,left,0.0,1.2949,0.0,19.0,19.0,19.0,1.0,2898632385-217138.jpg,2452381505-199546.jpg,A1STC10BXEP495_2022-09-21_08h03.48.970.csv
199,1.0,left,left,1.0,1.5481,0.0,20.0,20.0,20.0,1.0,2446759803-49249.jpg,2446760601-272099.jpg,A1STC10BXEP495_2022-09-21_08h03.48.970.csv
200,1.0,left,right,0.0,2.505,0.0,21.0,21.0,21.0,1.0,2238428357-313623.jpg,2238499057-320266.jpg,A1STC10BXEP495_2022-09-21_08h03.48.970.csv
201,3.0,left,left,1.0,0.9469,0.0,22.0,22.0,22.0,1.0,2901939379-143479.jpg,2964216376-294181.jpg,A1STC10BXEP495_2022-09-21_08h03.48.970.csv
202,1.0,right,right,1.0,0.7107,0.0,23.0,23.0,23.0,1.0,2238328478-11678.jpg,2452380832-348593.jpg,A1STC10BXEP495_2022-09-21_08h03.48.970.csv
203,3.0,right,left,0.0,2.4772,0.0,24.0,24.0,24.0,1.0,2898632385-217137.jpg,2449442529-124445.jpg,A1STC10BXEP495_2022-09-21_08h03.48.970.csv
204,2.0,right,right,1.0,2.2509,0.0,25.0,25.0,25.0,1.0,2964210336-293945.jpg,2883256307-365057.jpg,A1STC10BXEP495_2022-09-21_08h03.48.970.csv
205,1.0,right,right,1.0,4.8987,0.0,26.0,26.0,26.0,1.0,2274829821-263682.jpg,2874303365-214262.jpg,A1STC10BXEP495_2022-09-21_08h03.48.970.csv
206,1.0,right,right,1.0,2.43,0.0,27.0,27.0,27.0,1.0,2238544191-252422.jpg,2964216465-219242.jpg,A1STC10BXEP495_2022-09-21_08h03.48.970.csv
207,1.0,left,right,0.0,2.746,0.0,28.0,28.0,28.0,1.0,2964213381-294060.jpg,2981244394-145974.jpg,A1STC10BXEP495_2022-09-21_08h03.48.970.csv
208,1.0,right,right,1.0,2.3913,0.0,29.0,29.0,29.0,1.0,2579432519-130698.jpg,2981231403-71642.jpg,A1STC10BXEP495_2022-09-21_08h03.48.970.csv
209,1.0,left,right,0.0,3.0917,0.0,30.0,30.0,30.0,1.0,2864907432-362042.jpg,2864901420-212147.jpg,A1STC10BXEP495_2022-09-21_08h03.48.970.csv
210,2.0,right,left,0.0,5.5038,0.0,31.0,31.0,31.0,1.0,2238571930-184143.jpg,2238572663-35822.jpg,A1STC10BXEP495_2022-09-21_08h03.48.970.csv
211,3.0,right,left,0.0,1.4563,0.0,32.0,32.0,32.0,1.0,2981235446-294901.jpg,2460547467-349421.jpg,A1STC10BXEP495_2022-09-21_08h03.48.970.csv
212,1.0,left,left,1.0,1.5365,0.0,33.0,33.0,33.0,1.0,2446758985-197609.jpg,2981240424-145795.jpg,A1STC10BXEP495_2022-09-21_08h03.48.970.csv
213,1.0,right,left,0.0,2.284,0.0,34.0,34.0,34.0,1.0,2864907361-287062.jpg,2901952513-70703.jpg,A1STC10BXEP495_2022-09-21_08h03.48.970.csv
214,1.0,right,right,1.0,1.277,0.0,35.0,35.0,35.0,1.0,2446759803-49251.jpg,2449442529-124446.jpg,A1STC10BXEP495_2022-09-21_08h03.48.970.csv
215,3.0,left,left,1.0,2.0746,0.0,36.0,36.0,36.0,1.0,2964218374-144967.jpg,2981231446-294732.jpg,A1STC10BXEP495_2022-09-21_08h03.48.970.csv
216,3.0,left,left,1.0,1.4445,0.0,37.0,37.0,37.0,1.0,2901941401-292798.jpg,2898631468-68931.jpg,A1STC10BXEP495_2022-09-21_08h03.48.970.csv
217,3.0,right,right,1.0,2.0349,0.0,38.0,38.0,38.0,1.0,2238434559-90406.jpg,2986451363-73599.jpg,A1STC10BXEP495_2022-09-21_08h03.48.970.csv
218,1.0,left,left,1.0,2.0537,0.0,39.0,39.0,39.0,1.0,2964222378-71332.jpg,2981240424-145794.jpg,A1STC10BXEP495_2022-09-21_08h03.48.970.csv
219,2.0,right,right,1.0,1.8173,0.0,40.0,40.0,40.0,1.0,2984615361-295510.jpg,2883268412-365898.jpg,A1STC10BXEP495_2022-09-21_08h03.48.970.csv
220,1.0,right,left,0.0,2.1576,0.0,41.0,41.0,41.0,1.0,2862691449-137104.jpg,2238481198-19822.jpg,A1STC10BXEP495_2022-09-21_08h03.48.970.csv
221,2.0,left,right,0.0,1.5774,0.0,42.0,42.0,42.0,1.0,2874301407-363895.jpg,2986397322-371109.jpg,A1STC10BXEP495_2022-09-21_08h03.48.970.csv
222,2.0,left,left,1.0,3.8043,0.0,43.0,43.0,43.0,1.0,2901947423-70311.jpg,2238573447-333826.jpg,A1STC10BXEP495_2022-09-21_08h03.48.970.csv
223,3.0,right,right,1.0,2.2052,0.0,44.0,44.0,44.0,1.0,2238550049-105691.jpg,2898633421-291973.jpg,A1STC10BXEP495_2022-09-21_08h03.48.970.csv
224,2.0,left,left,1.0,4.0059,0.0,45.0,45.0,45.0,1.0,2592379964-131054.jpg,2238479053-19457.jpg,A1STC10BXEP495_2022-09-21_08h03.48.970.csv
225,3.0,right,right,1.0,4.4052,0.0,46.0,46.0,46.0,1.0,2575120609-129862.jpg,2898618390-216538.jpg,A1STC10BXEP495_2022-09-21_08h03.48.970.csv
226,3.0,left,left,1.0,2.0283,0.0,47.0,47.0,47.0,1.0,2898624426-291546.jpg,2981235446-294900.jpg,A1STC10BXEP495_2022-09-21_08h03.48.970.csv
227,1.0,left,right,0.0,1.2148,0.0,48.0,48.0,48.0,1.0,2874299429-139694.jpg,2986447306-296584.jpg,A1STC10BXEP495_2022-09-21_08h03.48.970.csv
228,2.0,left,left,1.0,3.4973,0.0,49.0,49.0,49.0,1.0,2898618444-142233.jpg,2238555262-330312.jpg,A1STC10BXEP495_2022-09-21_08h03.48.970.csv
229,3.0,left,left,1.0,1.802,0.0,50.0,50.0,50.0,1.0,2898635427-367120.jpg,2898621427-366486.jpg,A1STC10BXEP495_2022-09-21_08h03.48.970.csv
230,1.0,left,right,0.0,1.4431,0.0,51.0,51.0,51.0,1.0,2883273443-68193.jpg,2883254439-140940.jpg,A1STC10BXEP495_2022-09-21_08h03.48.970.csv
231,3.0,left,right,0.0,2.7185,0.0,52.0,52.0,52.0,1.0,2512875899-126682.jpg,2986447332-371497.jpg,A1STC10BXEP495_2022-09-21_08h03.48.970.csv
232,1.0,right,left,0.0,2.0334,0.0,53.0,53.0,53.0,1.0,2901942428-69919.jpg,2901939379-143480.jpg,A1STC10BXEP495_2022-09-21_08h03.48.970.csv
233,3.0,right,right,1.0,1.9257,0.0,54.0,54.0,54.0,1.0,2964207374-144577.jpg,2898617468-68274.jpg,A1STC10BXEP495_2022-09-21_08h03.48.970.csv
234,3.0,left,left,1.0,2.868,0.0,55.0,55.0,55.0,1.0,2238481928-19949.jpg,2981241419-145844.jpg,A1STC10BXEP495_2022-09-21_08h03.48.970.csv
235,2.0,left,right,0.0,1.4412,0.0,56.0,56.0,56.0,1.0,2898634397-367080.jpg,2901934408-69289.jpg,A1STC10BXEP495_2022-09-21_08h03.48.970.csv
236,3.0,right,right,1.0,1.564,0.0,57.0,57.0,57.0,1.0,2238480278-19661.jpg,2238480677-317399.jpg,A1STC10BXEP495_2022-09-21_08h03.48.970.csv
237,2.0,right,right,1.0,2.2646,0.0,58.0,58.0,58.0,1.0,2238521193-26285.jpg,2238580740-186218.jpg,A1STC10BXEP495_2022-09-21_08h03.48.970.csv
238,1.0,left,left,1.0,2.9851,0.0,59.0,59.0,59.0,1.0,2868474407-362883.jpg,2460547732-349518.jpg,A1STC10BXEP495_2022-09-21_08h03.48.970.csv
239,3.0,right,right,1.0,70.4077,0.0,0.0,0.0,0.0,1.0,2981235446-294901.jpg,2460547467-349421.jpg,AN7Z42U38BCQT_2022-09-21_09h14.53.949.csv
240,2.0,left,right,0.0,0.0224,0.0,1.0,1.0,1.0,1.0,2964218374-144967.jpg,2446759306-271734.jpg,AN7Z42U38BCQT_2022-09-21_09h14.53.949.csv
241,1.0,right,right,1.0,0.1954,0.0,2.0,2.0,2.0,1.0,2237857458-1325.jpg,2874302418-65979.jpg,AN7Z42U38BCQT_2022-09-21_09h14.53.949.csv
242,2.0,left,right,0.0,0.0197,0.0,3.0,3.0,3.0,1.0,2446758985-197609.jpg,2864909447-362144.jpg,AN7Z42U38BCQT_2022-09-21_09h14.53.949.csv
243,3.0,right,right,1.0,0.0142,0.0,4.0,4.0,4.0,1.0,2427873763-47290.jpg,2981231403-71642.jpg,AN7Z42U38BCQT_2022-09-21_09h14.53.949.csv
244,3.0,right,right,1.0,0.0165,0.0,5.0,5.0,5.0,1.0,2238480278-19661.jpg,2238480677-317399.jpg,AN7Z42U38BCQT_2022-09-21_09h14.53.949.csv
245,1.0,left,right,0.0,0.0322,0.0,6.0,6.0,6.0,1.0,2874307433-66280.jpg,2984615358-72439.jpg,AN7Z42U38BCQT_2022-09-21_09h14.53.949.csv
246,2.0,right,right,1.0,0.0168,0.0,7.0,7.0,7.0,1.0,2981229442-369621.jpg,2901939379-143480.jpg,AN7Z42U38BCQT_2022-09-21_09h14.53.949.csv
247,3.0,right,right,1.0,0.0169,0.0,8.0,8.0,8.0,1.0,2864909447-362146.jpg,2460547467-349422.jpg,AN7Z42U38BCQT_2022-09-21_09h14.53.949.csv
248,3.0,left,right,0.0,0.1863,0.0,9.0,9.0,9.0,1.0,2592379964-131054.jpg,2592380272-354673.jpg,AN7Z42U38BCQT_2022-09-21_09h14.53.949.csv
249,1.0,left,right,0.0,0.0187,0.0,10.0,10.0,10.0,1.0,2898634397-367080.jpg,2237944827-301472.jpg,AN7Z42U38BCQT_2022-09-21_09h14.53.949.csv
250,1.0,left,right,0.0,0.0353,0.0,11.0,11.0,11.0,1.0,2592380177-354629.jpg,2898633421-291974.jpg,AN7Z42U38BCQT_2022-09-21_09h14.53.949.csv
251,3.0,left,right,0.0,0.016,0.0,12.0,12.0,12.0,1.0,2874302418-65978.jpg,2898633321-291943.jpg,AN7Z42U38BCQT_2022-09-21_09h14.53.949.csv
252,3.0,right,right,1.0,0.0132,0.0,13.0,13.0,13.0,1.0,2994401319-148290.jpg,2452381505-199546.jpg,AN7Z42U38BCQT_2022-09-21_09h14.53.949.csv
253,1.0,right,right,1.0,0.0126,0.0,14.0,14.0,14.0,1.0,2452380171-273112.jpg,2449442529-124445.jpg,AN7Z42U38BCQT_2022-09-21_09h14.53.949.csv
254,1.0,right,right,1.0,0.0341,0.0,15.0,15.0,15.0,1.0,2274829821-263682.jpg,2874303365-214262.jpg,AN7Z42U38BCQT_2022-09-21_09h14.53.949.csv
255,1.0,left,right,0.0,0.1945,0.0,16.0,16.0,16.0,1.0,2883268412-365898.jpg,2984626312-370849.jpg,AN7Z42U38BCQT_2022-09-21_09h14.53.949.csv
256,2.0,right,right,1.0,0.0158,0.0,17.0,17.0,17.0,1.0,2238521193-26285.jpg,2238580740-186218.jpg,AN7Z42U38BCQT_2022-09-21_09h14.53.949.csv
257,1.0,right,right,1.0,0.0272,0.0,18.0,18.0,18.0,1.0,2237856148-989.jpg,2898618390-216538.jpg,AN7Z42U38BCQT_2022-09-21_09h14.53.949.csv
258,3.0,right,right,1.0,0.1878,0.0,19.0,19.0,19.0,1.0,2901948383-70363.jpg,2868474407-362883.jpg,AN7Z42U38BCQT_2022-09-21_09h14.53.949.csv
259,2.0,left,right,0.0,0.0155,0.0,20.0,20.0,20.0,1.0,2874299429-139695.jpg,2901942443-69923.jpg,AN7Z42U38BCQT_2022-09-21_09h14.53.949.csv
260,2.0,right,right,1.0,0.1842,0.0,21.0,21.0,21.0,1.0,2901947423-70310.jpg,2864907432-362042.jpg,AN7Z42U38BCQT_2022-09-21_09h14.53.949.csv
261,1.0,left,right,0.0,0.178,0.0,22.0,22.0,22.0,1.0,2238428357-313623.jpg,2238499057-320266.jpg,AN7Z42U38BCQT_2022-09-21_09h14.53.949.csv
262,1.0,right,right,1.0,0.0266,0.0,23.0,23.0,23.0,1.0,2898631359-142721.jpg,2898618444-142233.jpg,AN7Z42U38BCQT_2022-09-21_09h14.53.949.csv
263,2.0,right,right,1.0,0.0146,0.0,24.0,24.0,24.0,1.0,2981244403-72215.jpg,2874299429-139694.jpg,AN7Z42U38BCQT_2022-09-21_09h14.53.949.csv
264,3.0,left,left,1.0,0.0132,0.0,25.0,25.0,25.0,1.0,2964223381-294447.jpg,2898628438-68785.jpg,AN7Z42U38BCQT_2022-09-21_09h14.53.949.csv
265,3.0,left,left,1.0,0.1909,0.0,26.0,26.0,26.0,1.0,2964222378-71332.jpg,2981240427-370099.jpg,AN7Z42U38BCQT_2022-09-21_09h14.53.949.csv
266,1.0,left,left,1.0,0.0364,0.0,27.0,27.0,27.0,1.0,2575120738-55529.jpg,2864906345-212360.jpg,AN7Z42U38BCQT_2022-09-21_09h14.53.949.csv
267,3.0,right,left,0.0,0.0188,0.0,28.0,28.0,28.0,1.0,2238480980-168129.jpg,2238560245-182099.jpg,AN7Z42U38BCQT_2022-09-21_09h14.53.949.csv
268,1.0,right,left,0.0,0.0147,0.0,29.0,29.0,29.0,1.0,2901946439-144040.jpg,2898617468-68274.jpg,AN7Z42U38BCQT_2022-09-21_09h14.53.949.csv
269,2.0,left,left,1.0,0.0212,0.0,30.0,30.0,30.0,1.0,2883273443-68193.jpg,2460547508-51572.jpg,AN7Z42U38BCQT_2022-09-21_09h14.53.949.csv
270,3.0,right,left,0.0,0.0199,0.0,31.0,31.0,31.0,1.0,2864903351-286874.jpg,2238572663-35822.jpg,AN7Z42U38BCQT_2022-09-21_09h14.53.949.csv
271,1.0,left,left,1.0,0.2,0.0,32.0,32.0,32.0,1.0,2512875899-126682.jpg,2460547536-274179.jpg,AN7Z42U38BCQT_2022-09-21_09h14.53.949.csv
272,3.0,right,left,0.0,0.0339,0.0,33.0,33.0,33.0,1.0,2901941438-69835.jpg,2460547508-51571.jpg,AN7Z42U38BCQT_2022-09-21_09h14.53.949.csv
273,2.0,left,left,1.0,0.0147,0.0,34.0,34.0,34.0,1.0,2452380832-348593.jpg,2238481813-19930.jpg,AN7Z42U38BCQT_2022-09-21_09h14.53.949.csv
274,3.0,left,left,1.0,0.1989,0.0,35.0,35.0,35.0,1.0,2592380177-354626.jpg,2238117096-228518.jpg,AN7Z42U38BCQT_2022-09-21_09h14.53.949.csv
275,2.0,right,left,0.0,0.0136,0.0,36.0,36.0,36.0,1.0,2883255450-215310.jpg,2883268471-290842.jpg,AN7Z42U38BCQT_2022-09-21_09h14.53.949.csv
276,2.0,left,right,0.0,0.1888,0.0,37.0,37.0,37.0,1.0,2901941401-292798.jpg,2981243412-370222.jpg,AN7Z42U38BCQT_2022-09-21_09h14.53.949.csv
277,3.0,right,right,1.0,0.2102,0.0,38.0,38.0,38.0,1.0,2460547536-274178.jpg,2449442529-124446.jpg,AN7Z42U38BCQT_2022-09-21_09h14.53.949.csv
278,2.0,left,right,0.0,0.0149,0.0,39.0,39.0,39.0,1.0,2868475410-213219.jpg,2238480803-19739.jpg,AN7Z42U38BCQT_2022-09-21_09h14.53.949.csv
279,1.0,left,right,0.0,0.0129,0.0,40.0,40.0,40.0,1.0,2986451363-73598.jpg,2237857458-1324.jpg,AN7Z42U38BCQT_2022-09-21_09h14.53.949.csv
280,3.0,left,right,0.0,0.0143,0.0,41.0,41.0,41.0,1.0,2238425482-313537.jpg,2898633480-217190.jpg,AN7Z42U38BCQT_2022-09-21_09h14.53.949.csv
281,2.0,right,right,1.0,0.2135,0.0,42.0,42.0,42.0,1.0,2575118671-277663.jpg,2898633421-291973.jpg,AN7Z42U38BCQT_2022-09-21_09h14.53.949.csv
282,1.0,left,right,0.0,0.2246,0.0,43.0,43.0,43.0,1.0,2986451363-73599.jpg,2898626385-216899.jpg,AN7Z42U38BCQT_2022-09-21_09h14.53.949.csv
283,2.0,left,right,0.0,0.0124,0.0,44.0,44.0,44.0,1.0,2981241414-145842.jpg,2874301404-139813.jpg,AN7Z42U38BCQT_2022-09-21_09h14.53.949.csv
284,1.0,left,right,0.0,0.0167,0.0,45.0,45.0,45.0,1.0,2898635428-69104.jpg,2446759803-49250.jpg,AN7Z42U38BCQT_2022-09-21_09h14.53.949.csv
285,2.0,left,right,0.0,0.1942,0.0,46.0,46.0,46.0,1.0,2874301407-363895.jpg,2986397322-371109.jpg,AN7Z42U38BCQT_2022-09-21_09h14.53.949.csv
286,1.0,right,right,1.0,0.0177,0.0,47.0,47.0,47.0,1.0,2864907361-287062.jpg,2901952513-70703.jpg,AN7Z42U38BCQT_2022-09-21_09h14.53.949.csv
287,2.0,left,right,0.0,0.1879,0.0,48.0,48.0,48.0,1.0,2898635427-367120.jpg,2868479517-363220.jpg,AN7Z42U38BCQT_2022-09-21_09h14.53.949.csv
288,3.0,right,right,1.0,0.0131,0.0,49.0,49.0,49.0,1.0,2964216376-294181.jpg,2901939379-143479.jpg,AN7Z42U38BCQT_2022-09-21_09h14.53.949.csv
289,1.0,right,right,1.0,0.0144,0.0,50.0,50.0,50.0,1.0,2883264367-365620.jpg,2238481928-19949.jpg,AN7Z42U38BCQT_2022-09-21_09h14.53.949.csv
290,1.0,left,right,0.0,0.3844,0.0,51.0,51.0,51.0,1.0,2238481198-19822.jpg,2862691449-137104.jpg,AN7Z42U38BCQT_2022-09-21_09h14.53.949.csv
291,2.0,left,right,0.0,0.3899,0.0,52.0,52.0,52.0,1.0,2458347385-199723.jpg,2427874554-121863.jpg,AN7Z42U38BCQT_2022-09-21_09h14.53.949.csv
292,3.0,right,right,1.0,0.1887,0.0,53.0,53.0,53.0,1.0,2898619327-366362.jpg,2964216465-219242.jpg,AN7Z42U38BCQT_2022-09-21_09h14.53.949.csv
293,2.0,left,right,0.0,0.0162,0.0,54.0,54.0,54.0,1.0,2964213381-294060.jpg,2458348012-349114.jpg,AN7Z42U38BCQT_2022-09-21_09h14.53.949.csv
294,3.0,left,right,0.0,0.1906,0.0,55.0,55.0,55.0,1.0,2898624426-291546.jpg,2981235446-294900.jpg,AN7Z42U38BCQT_2022-09-21_09h14.53.949.csv
295,2.0,right,right,1.0,0.0198,0.0,56.0,56.0,56.0,1.0,2898618440-216547.jpg,2446759803-49249.jpg,AN7Z42U38BCQT_2022-09-21_09h14.53.949.csv
296,1.0,right,right,1.0,0.1806,0.0,57.0,57.0,57.0,1.0,2864902304-137862.jpg,2864910426-287204.jpg,AN7Z42U38BCQT_2022-09-21_09h14.53.949.csv
297,3.0,left,right,0.0,0.0136,0.0,58.0,58.0,58.0,1.0,2883256307-365057.jpg,2864904453-63933.jpg,AN7Z42U38BCQT_2022-09-21_09h14.53.949.csv
298,2.0,left,left,1.0,0.1827,0.0,59.0,59.0,59.0,1.0,2901947423-70311.jpg,2238573447-333826.jpg,AN7Z42U38BCQT_2022-09-21_09h14.53.949.csv
299,1.0,right,right,1.0,2.3616,0.0,0.0,0.0,0.0,1.0,2901938432-367627.jpg,2452381505-199546.jpg,A8K19FZIUU2TE_2022-09-21_09h30.55.475.csv
300,2.0,right,left,0.0,0.6945,0.0,1.0,1.0,1.0,1.0,2981243412-370222.jpg,2901941401-292798.jpg,A8K19FZIUU2TE_2022-09-21_09h30.55.475.csv
301,1.0,right,left,0.0,0.7368,0.0,2.0,2.0,2.0,1.0,2898631394-142727.jpg,2460547467-349421.jpg,A8K19FZIUU2TE_2022-09-21_09h30.55.475.csv
302,1.0,left,left,1.0,1.0382,0.0,3.0,3.0,3.0,1.0,2238481928-19949.jpg,2883264367-365620.jpg,A8K19FZIUU2TE_2022-09-21_09h30.55.475.csv
303,2.0,left,left,1.0,1.2502,0.0,4.0,4.0,4.0,1.0,2874303365-214262.jpg,2238563377-332054.jpg,A8K19FZIUU2TE_2022-09-21_09h30.55.475.csv
304,2.0,right,left,0.0,1.0032,0.0,5.0,5.0,5.0,1.0,2981246400-220365.jpg,2874307433-66280.jpg,A8K19FZIUU2TE_2022-09-21_09h30.55.475.csv
305,1.0,right,right,1.0,1.4386,0.0,6.0,6.0,6.0,1.0,2237944827-301472.jpg,2898634397-367080.jpg,A8K19FZIUU2TE_2022-09-21_09h30.55.475.csv
306,3.0,right,right,1.0,1.1827,0.0,7.0,7.0,7.0,1.0,2898624426-291544.jpg,2446758985-197609.jpg,A8K19FZIUU2TE_2022-09-21_09h30.55.475.csv
307,1.0,right,right,1.0,1.3197,0.0,8.0,8.0,8.0,1.0,2238471391-240918.jpg,2238425482-313537.jpg,A8K19FZIUU2TE_2022-09-21_09h30.55.475.csv
308,1.0,left,left,1.0,0.886,0.0,9.0,9.0,9.0,1.0,2901952513-70703.jpg,2864907361-287062.jpg,A8K19FZIUU2TE_2022-09-21_09h30.55.475.csv
309,1.0,right,right,1.0,0.8933,0.0,10.0,10.0,10.0,1.0,2237857458-1325.jpg,2874302418-65979.jpg,A8K19FZIUU2TE_2022-09-21_09h30.55.475.csv
310,1.0,left,left,1.0,0.804,0.0,11.0,11.0,11.0,1.0,2986451363-73599.jpg,2898626385-216899.jpg,A8K19FZIUU2TE_2022-09-21_09h30.55.475.csv
311,3.0,left,left,1.0,0.8107,0.0,12.0,12.0,12.0,1.0,2898624426-291546.jpg,2981235446-294900.jpg,A8K19FZIUU2TE_2022-09-21_09h30.55.475.csv
312,3.0,right,right,1.0,1.0134,0.0,13.0,13.0,13.0,1.0,2868474407-362885.jpg,2868475410-213219.jpg,A8K19FZIUU2TE_2022-09-21_09h30.55.475.csv
313,1.0,right,right,1.0,1.0168,0.0,14.0,14.0,14.0,1.0,2981240424-145794.jpg,2964222378-71332.jpg,A8K19FZIUU2TE_2022-09-21_09h30.55.475.csv
314,3.0,right,left,0.0,0.7076,0.0,15.0,15.0,15.0,1.0,2575120609-129862.jpg,2898618390-216538.jpg,A8K19FZIUU2TE_2022-09-21_09h30.55.475.csv
315,1.0,left,right,0.0,0.8968,0.0,16.0,16.0,16.0,1.0,2901939379-143480.jpg,2901942428-69919.jpg,A8K19FZIUU2TE_2022-09-21_09h30.55.475.csv
316,3.0,left,left,1.0,0.6256,0.0,17.0,17.0,17.0,1.0,2446759803-49249.jpg,2901951392-368654.jpg,A8K19FZIUU2TE_2022-09-21_09h30.55.475.csv
317,2.0,left,right,0.0,1.3867,0.0,18.0,18.0,18.0,1.0,2874299429-139694.jpg,2981244403-72215.jpg,A8K19FZIUU2TE_2022-09-21_09h30.55.475.csv
318,2.0,left,left,1.0,0.6693,0.0,19.0,19.0,19.0,1.0,2981241414-145842.jpg,2874301404-139813.jpg,A8K19FZIUU2TE_2022-09-21_09h30.55.475.csv
319,3.0,left,left,1.0,0.992,0.0,20.0,20.0,20.0,1.0,2238481198-19822.jpg,2238480803-19737.jpg,A8K19FZIUU2TE_2022-09-21_09h30.55.475.csv
320,3.0,right,right,1.0,1.2369,0.0,21.0,21.0,21.0,1.0,2238577590-185467.jpg,2901947423-70311.jpg,A8K19FZIUU2TE_2022-09-21_09h30.55.475.csv
321,3.0,left,right,0.0,0.9829,0.0,22.0,22.0,22.0,1.0,2964218374-144967.jpg,2981231446-294732.jpg,A8K19FZIUU2TE_2022-09-21_09h30.55.475.csv
322,1.0,right,left,0.0,0.8898,0.0,23.0,23.0,23.0,1.0,2512876023-52283.jpg,2898633421-291973.jpg,A8K19FZIUU2TE_2022-09-21_09h30.55.475.csv
323,3.0,left,left,1.0,1.0278,0.0,24.0,24.0,24.0,1.0,2238560245-182099.jpg,2238480980-168129.jpg,A8K19FZIUU2TE_2022-09-21_09h30.55.475.csv
324,3.0,right,left,0.0,0.9636,0.0,25.0,25.0,25.0,1.0,2901942443-69925.jpg,2986451363-73598.jpg,A8K19FZIUU2TE_2022-09-21_09h30.55.475.csv
325,2.0,left,right,0.0,0.7535,0.0,26.0,26.0,26.0,1.0,2864907432-362042.jpg,2901947423-70310.jpg,A8K19FZIUU2TE_2022-09-21_09h30.55.475.csv
326,3.0,left,left,1.0,1.0466,0.0,27.0,27.0,27.0,1.0,2238428357-313623.jpg,2986408339-146952.jpg,A8K19FZIUU2TE_2022-09-21_09h30.55.475.csv
327,2.0,left,right,0.0,1.3907,0.0,28.0,28.0,28.0,1.0,2512875899-126682.jpg,2592380177-354628.jpg,A8K19FZIUU2TE_2022-09-21_09h30.55.475.csv
328,3.0,left,left,1.0,0.7623,0.0,29.0,29.0,29.0,1.0,2898635428-69104.jpg,2898625336-291572.jpg,A8K19FZIUU2TE_2022-09-21_09h30.55.475.csv
329,2.0,right,left,0.0,0.6801,0.0,30.0,30.0,30.0,1.0,2874305405-214397.jpg,2981231403-71642.jpg,A8K19FZIUU2TE_2022-09-21_09h30.55.475.csv
330,3.0,right,left,0.0,0.6811,0.0,31.0,31.0,31.0,1.0,2898632385-217137.jpg,2449442529-124445.jpg,A8K19FZIUU2TE_2022-09-21_09h30.55.475.csv
331,2.0,right,left,0.0,0.6368,0.0,32.0,32.0,32.0,1.0,2964210336-293945.jpg,2883256307-365057.jpg,A8K19FZIUU2TE_2022-09-21_09h30.55.475.csv
332,1.0,left,right,0.0,1.5793,0.0,33.0,33.0,33.0,1.0,2460547508-51571.jpg,2452380166-273109.jpg,A8K19FZIUU2TE_2022-09-21_09h30.55.475.csv
333,2.0,right,left,0.0,0.537,0.0,34.0,34.0,34.0,1.0,2986397322-371109.jpg,2874301407-363895.jpg,A8K19FZIUU2TE_2022-09-21_09h30.55.475.csv
334,3.0,right,right,1.0,0.802,0.0,35.0,35.0,35.0,1.0,2898628438-68785.jpg,2964223381-294447.jpg,A8K19FZIUU2TE_2022-09-21_09h30.55.475.csv
335,1.0,left,left,1.0,0.4633,0.0,36.0,36.0,36.0,1.0,2898617468-68274.jpg,2901946439-144040.jpg,A8K19FZIUU2TE_2022-09-21_09h30.55.475.csv
336,2.0,left,right,0.0,0.5179,0.0,37.0,37.0,37.0,1.0,2458347385-199723.jpg,2427874554-121863.jpg,A8K19FZIUU2TE_2022-09-21_09h30.55.475.csv
337,1.0,left,left,1.0,0.5427,0.0,38.0,38.0,38.0,1.0,2874302418-65978.jpg,2964224310-219528.jpg,A8K19FZIUU2TE_2022-09-21_09h30.55.475.csv
338,1.0,right,right,1.0,0.732,0.0,39.0,39.0,39.0,1.0,2238328478-11678.jpg,2452380832-348593.jpg,A8K19FZIUU2TE_2022-09-21_09h30.55.475.csv
339,1.0,right,left,0.0,0.5546,0.0,40.0,40.0,40.0,1.0,2981244394-145974.jpg,2964213381-294060.jpg,A8K19FZIUU2TE_2022-09-21_09h30.55.475.csv
340,2.0,right,left,0.0,0.4804,0.0,41.0,41.0,41.0,1.0,2238555262-330312.jpg,2898618444-142233.jpg,A8K19FZIUU2TE_2022-09-21_09h30.55.475.csv
341,2.0,left,left,1.0,0.8665,0.0,42.0,42.0,42.0,1.0,2592380177-354629.jpg,2579432534-130704.jpg,A8K19FZIUU2TE_2022-09-21_09h30.55.475.csv
342,3.0,right,left,0.0,0.9525,0.0,43.0,43.0,43.0,1.0,2592380272-354673.jpg,2592379964-131054.jpg,A8K19FZIUU2TE_2022-09-21_09h30.55.475.csv
343,2.0,left,right,0.0,0.8098,0.0,44.0,44.0,44.0,1.0,2864910426-287204.jpg,2883268412-365899.jpg,A8K19FZIUU2TE_2022-09-21_09h30.55.475.csv
344,3.0,right,right,1.0,0.8783,0.0,45.0,45.0,45.0,1.0,2238531493-28260.jpg,2575120738-55529.jpg,A8K19FZIUU2TE_2022-09-21_09h30.55.475.csv
345,1.0,left,left,1.0,0.7896,0.0,46.0,46.0,46.0,1.0,2883268471-290842.jpg,2883268471-290843.jpg,A8K19FZIUU2TE_2022-09-21_09h30.55.475.csv
346,2.0,right,left,0.0,0.907,0.0,47.0,47.0,47.0,1.0,2981246400-220363.jpg,2868474407-362883.jpg,A8K19FZIUU2TE_2022-09-21_09h30.55.475.csv
347,3.0,left,right,0.0,0.9116,0.0,48.0,48.0,48.0,1.0,2898635427-367120.jpg,2898621427-366486.jpg,A8K19FZIUU2TE_2022-09-21_09h30.55.475.csv
348,2.0,right,left,0.0,0.6977,0.0,49.0,49.0,49.0,1.0,2864901386-286797.jpg,2592380177-354626.jpg,A8K19FZIUU2TE_2022-09-21_09h30.55.475.csv
349,2.0,right,left,0.0,0.836,0.0,50.0,50.0,50.0,1.0,2984615361-295510.jpg,2883268412-365898.jpg,A8K19FZIUU2TE_2022-09-21_09h30.55.475.csv
350,2.0,right,right,1.0,0.5843,0.0,51.0,51.0,51.0,1.0,2868487415-213924.jpg,2460547467-349422.jpg,A8K19FZIUU2TE_2022-09-21_09h30.55.475.csv
351,2.0,right,left,0.0,0.9588,0.0,52.0,52.0,52.0,1.0,2901942443-69923.jpg,2874299429-139695.jpg,A8K19FZIUU2TE_2022-09-21_09h30.55.475.csv
352,1.0,right,right,1.0,1.094,0.0,53.0,53.0,53.0,1.0,2238584894-113161.jpg,2238572663-35822.jpg,A8K19FZIUU2TE_2022-09-21_09h30.55.475.csv
353,3.0,right,left,0.0,0.9448,0.0,54.0,54.0,54.0,1.0,2898627427-366763.jpg,2883273443-68193.jpg,A8K19FZIUU2TE_2022-09-21_09h30.55.475.csv
354,3.0,left,left,1.0,0.9501,0.0,55.0,55.0,55.0,1.0,2238480677-317399.jpg,2238480278-19661.jpg,A8K19FZIUU2TE_2022-09-21_09h30.55.475.csv
355,3.0,left,left,1.0,0.8412,0.0,56.0,56.0,56.0,1.0,2901939379-143479.jpg,2964216376-294181.jpg,A8K19FZIUU2TE_2022-09-21_09h30.55.475.csv
356,1.0,right,right,1.0,0.8055,0.0,57.0,57.0,57.0,1.0,2238550816-254000.jpg,2238580740-186218.jpg,A8K19FZIUU2TE_2022-09-21_09h30.55.475.csv
357,1.0,left,right,0.0,1.437,0.0,58.0,58.0,58.0,1.0,2964216465-219242.jpg,2238544191-252422.jpg,A8K19FZIUU2TE_2022-09-21_09h30.55.475.csv
358,2.0,left,right,0.0,1.3442,0.0,59.0,59.0,59.0,1.0,2449442529-124446.jpg,2460547536-274181.jpg,A8K19FZIUU2TE_2022-09-21_09h30.55.475.csv
359,1.0,right,left,0.0,2.2402,0.0,0.0,0.0,0.0,1.0,2883268471-290843.jpg,2883268471-290842.jpg,A19FW6H7BGKRVT_2022-09-21_09h04.36.524.csv
360,2.0,left,left,1.0,1.198400001,0.0,1.0,1.0,1.0,1.0,2238425482-313537.jpg,2238436322-314047.jpg,A19FW6H7BGKRVT_2022-09-21_09h04.36.524.csv
361,2.0,right,left,0.0,1.262900001,0.0,2.0,2.0,2.0,1.0,2898618440-216547.jpg,2446759803-49249.jpg,A19FW6H7BGKRVT_2022-09-21_09h04.36.524.csv
362,2.0,right,left,0.0,1.4372,0.0,3.0,3.0,3.0,1.0,2901942443-69923.jpg,2874299429-139695.jpg,A19FW6H7BGKRVT_2022-09-21_09h04.36.524.csv
363,3.0,left,left,1.0,1.775400001,0.0,4.0,4.0,4.0,1.0,2986451363-73598.jpg,2901942443-69925.jpg,A19FW6H7BGKRVT_2022-09-21_09h04.36.524.csv
364,3.0,right,right,1.0,1.9597,0.0,5.0,5.0,5.0,1.0,2238550049-105691.jpg,2898633421-291973.jpg,A19FW6H7BGKRVT_2022-09-21_09h04.36.524.csv
365,3.0,right,right,1.0,2.0468,0.0,6.0,6.0,6.0,1.0,2898631468-68931.jpg,2901941401-292798.jpg,A19FW6H7BGKRVT_2022-09-21_09h04.36.524.csv
366,2.0,left,left,1.0,0.7168,0.0,7.0,7.0,7.0,1.0,2238480677-317399.jpg,2238573546-258454.jpg,A19FW6H7BGKRVT_2022-09-21_09h04.36.524.csv
367,1.0,right,right,1.0,0.8174,0.0,8.0,8.0,8.0,1.0,2860312398-62572.jpg,2901947423-70311.jpg,A19FW6H7BGKRVT_2022-09-21_09h04.36.524.csv
368,1.0,left,right,0.0,0.4537,0.0,9.0,9.0,9.0,1.0,2874302418-65979.jpg,2237857458-1325.jpg,A19FW6H7BGKRVT_2022-09-21_09h04.36.524.csv
369,2.0,right,left,0.0,0.2795,0.0,10.0,10.0,10.0,1.0,2901947423-70310.jpg,2864907432-362042.jpg,A19FW6H7BGKRVT_2022-09-21_09h04.36.524.csv
370,3.0,right,right,1.0,0.916,0.0,11.0,11.0,11.0,1.0,2868474407-362885.jpg,2868475410-213219.jpg,A19FW6H7BGKRVT_2022-09-21_09h04.36.524.csv
371,2.0,right,left,0.0,0.4567,0.0,12.0,12.0,12.0,1.0,2864901386-286797.jpg,2592380177-354626.jpg,A19FW6H7BGKRVT_2022-09-21_09h04.36.524.csv
372,3.0,left,right,0.0,0.464900001,0.0,13.0,13.0,13.0,1.0,2898634397-367080.jpg,2964217461-294238.jpg,A19FW6H7BGKRVT_2022-09-21_09h04.36.524.csv
373,3.0,left,left,1.0,0.186700001,0.0,14.0,14.0,14.0,1.0,2898617468-68274.jpg,2964207374-144577.jpg,A19FW6H7BGKRVT_2022-09-21_09h04.36.524.csv
374,3.0,left,right,0.0,0.3569,0.0,15.0,15.0,15.0,1.0,2238580740-186218.jpg,2964220333-71258.jpg,A19FW6H7BGKRVT_2022-09-21_09h04.36.524.csv
375,3.0,left,left,1.0,0.277,0.0,16.0,16.0,16.0,1.0,2986451363-73599.jpg,2238434559-90406.jpg,A19FW6H7BGKRVT_2022-09-21_09h04.36.524.csv
376,1.0,left,right,0.0,0.2765,0.0,17.0,17.0,17.0,1.0,2238481928-19949.jpg,2883264367-365620.jpg,A19FW6H7BGKRVT_2022-09-21_09h04.36.524.csv
377,3.0,left,left,1.0,0.1937,0.0,18.0,18.0,18.0,1.0,2874303365-214262.jpg,2864911457-362260.jpg,A19FW6H7BGKRVT_2022-09-21_09h04.36.524.csv
378,2.0,left,right,0.0,1.5131,0.0,19.0,19.0,19.0,1.0,2460547467-349421.jpg,2452380166-273110.jpg,A19FW6H7BGKRVT_2022-09-21_09h04.36.524.csv
379,2.0,left,right,0.0,0.8957,0.0,20.0,20.0,20.0,1.0,2901952513-70703.jpg,2868469411-287540.jpg,A19FW6H7BGKRVT_2022-09-21_09h04.36.524.csv
380,3.0,right,left,0.0,1.083099999,0.0,21.0,21.0,21.0,1.0,2575120609-129862.jpg,2898618390-216538.jpg,A19FW6H7BGKRVT_2022-09-21_09h04.36.524.csv
381,1.0,right,right,1.0,0.2867,0.0,22.0,22.0,22.0,1.0,2864906345-212360.jpg,2575120738-55529.jpg,A19FW6H7BGKRVT_2022-09-21_09h04.36.524.csv
382,2.0,right,left,0.0,0.2745,0.0,23.0,23.0,23.0,1.0,2986408373-73286.jpg,2449442529-124445.jpg,A19FW6H7BGKRVT_2022-09-21_09h04.36.524.csv
383,2.0,right,right,1.0,0.4562,0.0,24.0,24.0,24.0,1.0,2579432534-130704.jpg,2592380177-354629.jpg,A19FW6H7BGKRVT_2022-09-21_09h04.36.524.csv
384,3.0,left,right,0.0,0.446299999,0.0,25.0,25.0,25.0,1.0,2883273443-68193.jpg,2898627427-366763.jpg,A19FW6H7BGKRVT_2022-09-21_09h04.36.524.csv
385,3.0,left,left,1.0,0.2726,0.0,26.0,26.0,26.0,1.0,2964216465-219242.jpg,2898619327-366362.jpg,A19FW6H7BGKRVT_2022-09-21_09h04.36.524.csv
386,2.0,right,right,1.0,0.3663,0.0,27.0,27.0,27.0,1.0,2898632385-217138.jpg,2452381505-199546.jpg,A19FW6H7BGKRVT_2022-09-21_09h04.36.524.csv
387,1.0,right,right,1.0,0.3661,0.0,28.0,28.0,28.0,1.0,2984615358-72439.jpg,2874307433-66280.jpg,A19FW6H7BGKRVT_2022-09-21_09h04.36.524.csv
388,1.0,left,left,1.0,0.1928,0.0,29.0,29.0,29.0,1.0,2874299429-139694.jpg,2986447306-296584.jpg,A19FW6H7BGKRVT_2022-09-21_09h04.36.524.csv
389,2.0,left,right,0.0,0.721400001,0.0,30.0,30.0,30.0,1.0,2898635427-367120.jpg,2868479517-363220.jpg,A19FW6H7BGKRVT_2022-09-21_09h04.36.524.csv
390,3.0,left,left,1.0,0.2829,0.0,31.0,31.0,31.0,1.0,2864910426-287204.jpg,2901939433-69672.jpg,A19FW6H7BGKRVT_2022-09-21_09h04.36.524.csv
391,2.0,right,right,1.0,0.274099999,0.0,32.0,32.0,32.0,1.0,2238571930-184143.jpg,2238572663-35822.jpg,A19FW6H7BGKRVT_2022-09-21_09h04.36.524.csv
392,3.0,right,left,0.0,0.2759,0.0,33.0,33.0,33.0,1.0,2981235446-294900.jpg,2898624426-291546.jpg,A19FW6H7BGKRVT_2022-09-21_09h04.36.524.csv
393,1.0,left,right,0.0,0.27,0.0,34.0,34.0,34.0,1.0,2452380832-348593.jpg,2238328478-11678.jpg,A19FW6H7BGKRVT_2022-09-21_09h04.36.524.csv
394,2.0,right,right,1.0,0.3616,0.0,35.0,35.0,35.0,1.0,2238481198-19823.jpg,2874302418-65978.jpg,A19FW6H7BGKRVT_2022-09-21_09h04.36.524.csv
395,1.0,left,left,1.0,0.1881,0.0,36.0,36.0,36.0,1.0,2449442529-124446.jpg,2446759803-49251.jpg,A19FW6H7BGKRVT_2022-09-21_09h04.36.524.csv
396,3.0,left,right,0.0,0.2735,0.0,37.0,37.0,37.0,1.0,2901939379-143480.jpg,2898632385-217139.jpg,A19FW6H7BGKRVT_2022-09-21_09h04.36.524.csv
397,1.0,left,left,1.0,0.1832,0.0,38.0,38.0,38.0,1.0,2898618444-142233.jpg,2898631359-142721.jpg,A19FW6H7BGKRVT_2022-09-21_09h04.36.524.csv
398,2.0,right,right,1.0,0.272900001,0.0,39.0,39.0,39.0,1.0,2901941438-69836.jpg,2964223381-294447.jpg,A19FW6H7BGKRVT_2022-09-21_09h04.36.524.csv
399,1.0,left,right,0.0,0.2738,0.0,40.0,40.0,40.0,1.0,2592379964-131054.jpg,2575963989-130576.jpg,A19FW6H7BGKRVT_2022-09-21_09h04.36.524.csv
400,1.0,right,right,1.0,0.269200001,0.0,41.0,41.0,41.0,1.0,2981240424-145795.jpg,2446758985-197609.jpg,A19FW6H7BGKRVT_2022-09-21_09h04.36.524.csv
401,1.0,right,left,0.0,0.2965,0.0,42.0,42.0,42.0,1.0,2579432519-130698.jpg,2981231403-71642.jpg,A19FW6H7BGKRVT_2022-09-21_09h04.36.524.csv
402,1.0,right,right,1.0,0.265099999,0.0,43.0,43.0,43.0,1.0,2898618440-216545.jpg,2460547467-349422.jpg,A19FW6H7BGKRVT_2022-09-21_09h04.36.524.csv
403,2.0,left,left,1.0,3.7373,0.0,44.0,44.0,44.0,1.0,2883268412-365898.jpg,2984615361-295510.jpg,A19FW6H7BGKRVT_2022-09-21_09h04.36.524.csv
404,1.0,left,right,0.0,0.4757,0.0,45.0,45.0,45.0,1.0,2238560245-182099.jpg,2592380255-205553.jpg,A19FW6H7BGKRVT_2022-09-21_09h04.36.524.csv
405,1.0,right,left,0.0,0.375,0.0,46.0,46.0,46.0,1.0,2611628310-206388.jpg,2883256307-365057.jpg,A19FW6H7BGKRVT_2022-09-21_09h04.36.524.csv
406,2.0,left,right,0.0,0.1907,0.0,47.0,47.0,47.0,1.0,2898635428-69104.jpg,2901943411-292945.jpg,A19FW6H7BGKRVT_2022-09-21_09h04.36.524.csv
407,1.0,left,left,1.0,0.2881,0.0,48.0,48.0,48.0,1.0,2458347385-199723.jpg,2238480434-93829.jpg,A19FW6H7BGKRVT_2022-09-21_09h04.36.524.csv
408,2.0,left,right,0.0,0.184799999,0.0,49.0,49.0,49.0,1.0,2964222378-71332.jpg,2901933382-367209.jpg,A19FW6H7BGKRVT_2022-09-21_09h04.36.524.csv
409,3.0,right,left,0.0,0.178900001,0.0,50.0,50.0,50.0,1.0,2981231446-294732.jpg,2964218374-144967.jpg,A19FW6H7BGKRVT_2022-09-21_09h04.36.524.csv
410,1.0,left,right,0.0,0.276900001,0.0,51.0,51.0,51.0,1.0,2874301407-363895.jpg,2446761374-124213.jpg,A19FW6H7BGKRVT_2022-09-21_09h04.36.524.csv
411,3.0,right,right,1.0,0.2715,0.0,52.0,52.0,52.0,1.0,2986447332-371497.jpg,2512875899-126682.jpg,A19FW6H7BGKRVT_2022-09-21_09h04.36.524.csv
412,3.0,left,right,0.0,0.3581,0.0,53.0,53.0,53.0,1.0,2964213381-294060.jpg,2964213381-294061.jpg,A19FW6H7BGKRVT_2022-09-21_09h04.36.524.csv
413,1.0,left,left,1.0,0.274900001,0.0,54.0,54.0,54.0,1.0,2901939379-143479.jpg,2460547467-349423.jpg,A19FW6H7BGKRVT_2022-09-21_09h04.36.524.csv
414,3.0,right,right,1.0,0.6259,0.0,55.0,55.0,55.0,1.0,2427873848-47312.jpg,2981241414-145842.jpg,A19FW6H7BGKRVT_2022-09-21_09h04.36.524.csv
415,2.0,left,right,0.0,0.5407,0.0,56.0,56.0,56.0,1.0,2868474407-362883.jpg,2981246400-220363.jpg,A19FW6H7BGKRVT_2022-09-21_09h04.36.524.csv
416,3.0,left,left,1.0,0.270599999,0.0,57.0,57.0,57.0,1.0,2238428357-313623.jpg,2986408339-146952.jpg,A19FW6H7BGKRVT_2022-09-21_09h04.36.524.csv
417,2.0,right,right,1.0,16.052,0.0,58.0,58.0,58.0,1.0,2901946436-293242.jpg,2238481198-19822.jpg,A19FW6H7BGKRVT_2022-09-21_09h04.36.524.csv
418,1.0,right,left,0.0,1.2705,0.0,59.0,59.0,59.0,1.0,2452380166-273109.jpg,2460547508-51571.jpg,A19FW6H7BGKRVT_2022-09-21_09h04.36.524.csv
419,1.0,left,left,1.0,2.0689,0.0,0.0,0.0,0.0,1.0,2898635427-367120.jpg,2964221435-219434.jpg,ACR6012D868PP_2022-09-21_09h10.03.692.csv
420,1.0,left,right,0.0,0.7478,0.0,1.0,1.0,1.0,1.0,2986451363-73599.jpg,2898626385-216899.jpg,ACR6012D868PP_2022-09-21_09h10.03.692.csv
421,3.0,left,right,0.0,17.5131,0.0,2.0,2.0,2.0,1.0,2874299429-139695.jpg,2446760917-347439.jpg,ACR6012D868PP_2022-09-21_09h10.03.692.csv
422,1.0,right,right,1.0,0.2715,0.0,3.0,3.0,3.0,1.0,2238328478-11678.jpg,2452380832-348593.jpg,ACR6012D868PP_2022-09-21_09h10.03.692.csv
423,2.0,left,right,0.0,0.1332,0.0,4.0,4.0,4.0,1.0,2238481928-19949.jpg,2864900357-361688.jpg,ACR6012D868PP_2022-09-21_09h10.03.692.csv
424,3.0,right,right,1.0,0.145099999,0.0,5.0,5.0,5.0,1.0,2901939433-69672.jpg,2864910426-287204.jpg,ACR6012D868PP_2022-09-21_09h10.03.692.csv
425,2.0,left,right,0.0,0.1395,0.0,6.0,6.0,6.0,1.0,2446758985-197609.jpg,2864909447-362144.jpg,ACR6012D868PP_2022-09-21_09h10.03.692.csv
426,1.0,left,right,0.0,0.5245,0.0,7.0,7.0,7.0,1.0,2964216465-219242.jpg,2238544191-252422.jpg,ACR6012D868PP_2022-09-21_09h10.03.692.csv
427,1.0,right,right,1.0,0.2334,0.0,8.0,8.0,8.0,1.0,2446761374-124213.jpg,2874301407-363895.jpg,ACR6012D868PP_2022-09-21_09h10.03.692.csv
428,2.0,left,right,0.0,0.4092,0.0,9.0,9.0,9.0,1.0,2460547467-349422.jpg,2868487415-213924.jpg,ACR6012D868PP_2022-09-21_09h10.03.692.csv
429,3.0,right,right,1.0,0.417,0.0,10.0,10.0,10.0,1.0,2883266367-365742.jpg,2874299429-139694.jpg,ACR6012D868PP_2022-09-21_09h10.03.692.csv
430,3.0,left,right,0.0,0.1364,0.0,11.0,11.0,11.0,1.0,2238480677-317399.jpg,2238480278-19661.jpg,ACR6012D868PP_2022-09-21_09h10.03.692.csv
431,1.0,left,right,0.0,0.1475,0.0,12.0,12.0,12.0,1.0,2449442529-124446.jpg,2446759803-49251.jpg,ACR6012D868PP_2022-09-21_09h10.03.692.csv
432,3.0,right,right,1.0,0.1496,0.0,13.0,13.0,13.0,1.0,2981240427-370099.jpg,2964222378-71332.jpg,ACR6012D868PP_2022-09-21_09h10.03.692.csv
433,1.0,right,right,1.0,0.1568,0.0,14.0,14.0,14.0,1.0,2901938432-367627.jpg,2452381505-199546.jpg,ACR6012D868PP_2022-09-21_09h10.03.692.csv
434,2.0,left,right,0.0,0.0095,0.0,15.0,15.0,15.0,1.0,2898633421-291973.jpg,2575118671-277663.jpg,ACR6012D868PP_2022-09-21_09h10.03.692.csv
435,3.0,right,right,1.0,0.139400001,0.0,16.0,16.0,16.0,1.0,2864904453-63933.jpg,2883256307-365057.jpg,ACR6012D868PP_2022-09-21_09h10.03.692.csv
436,2.0,left,right,0.0,0.1365,0.0,17.0,17.0,17.0,1.0,2238481198-19822.jpg,2901946436-293242.jpg,ACR6012D868PP_2022-09-21_09h10.03.692.csv
437,2.0,right,right,1.0,0.009799999,0.0,18.0,18.0,18.0,1.0,2579432534-130704.jpg,2592380177-354629.jpg,ACR6012D868PP_2022-09-21_09h10.03.692.csv
438,3.0,right,right,1.0,0.152900001,0.0,19.0,19.0,19.0,1.0,2592380272-354673.jpg,2592379964-131054.jpg,ACR6012D868PP_2022-09-21_09h10.03.692.csv
439,3.0,right,right,1.0,0.1357,0.0,20.0,20.0,20.0,1.0,2901942443-69925.jpg,2986451363-73598.jpg,ACR6012D868PP_2022-09-21_09h10.03.692.csv
440,3.0,left,right,0.0,0.1399,0.0,21.0,21.0,21.0,1.0,2981231403-71642.jpg,2427873763-47290.jpg,ACR6012D868PP_2022-09-21_09h10.03.692.csv
441,1.0,left,right,0.0,0.1482,0.0,22.0,22.0,22.0,1.0,2874302418-65979.jpg,2237857458-1325.jpg,ACR6012D868PP_2022-09-21_09h10.03.692.csv
442,3.0,right,right,1.0,0.2571,0.0,23.0,23.0,23.0,1.0,2901947448-70314.jpg,2883268471-290842.jpg,ACR6012D868PP_2022-09-21_09h10.03.692.csv
443,1.0,right,right,1.0,0.009400001,0.0,24.0,24.0,24.0,1.0,2864906345-212360.jpg,2575120738-55529.jpg,ACR6012D868PP_2022-09-21_09h10.03.692.csv
444,2.0,right,right,1.0,0.1355,0.0,25.0,25.0,25.0,1.0,2238436322-314047.jpg,2238425482-313537.jpg,ACR6012D868PP_2022-09-21_09h10.03.692.csv
445,2.0,left,right,0.0,0.1398,0.0,26.0,26.0,26.0,1.0,2460547467-349421.jpg,2452380166-273110.jpg,ACR6012D868PP_2022-09-21_09h10.03.692.csv
446,2.0,right,right,1.0,0.136599999,0.0,27.0,27.0,27.0,1.0,2901939327-367670.jpg,2898618390-216538.jpg,ACR6012D868PP_2022-09-21_09h10.03.692.csv
447,1.0,right,right,1.0,0.1322,0.0,28.0,28.0,28.0,1.0,2592380255-205553.jpg,2238560245-182099.jpg,ACR6012D868PP_2022-09-21_09h10.03.692.csv
448,2.0,left,right,0.0,0.6554,0.0,29.0,29.0,29.0,1.0,2238580740-186218.jpg,2238521193-26285.jpg,ACR6012D868PP_2022-09-21_09h10.03.692.csv
449,1.0,right,right,1.0,0.7859,0.0,30.0,30.0,30.0,1.0,2238576792-334659.jpg,2592380177-354626.jpg,ACR6012D868PP_2022-09-21_09h10.03.692.csv
450,2.0,left,right,0.0,0.5239,0.0,31.0,31.0,31.0,1.0,2868475410-213219.jpg,2238480803-19739.jpg,ACR6012D868PP_2022-09-21_09h10.03.692.csv
451,3.0,right,right,1.0,0.644099999,0.0,32.0,32.0,32.0,1.0,2964217461-294238.jpg,2898634397-367080.jpg,ACR6012D868PP_2022-09-21_09h10.03.692.csv
452,1.0,right,right,1.0,0.398099999,0.0,33.0,33.0,33.0,1.0,2964224310-219528.jpg,2874302418-65978.jpg,ACR6012D868PP_2022-09-21_09h10.03.692.csv
453,3.0,left,right,0.0,0.3904,0.0,34.0,34.0,34.0,1.0,2901952513-70703.jpg,2238481198-19821.jpg,ACR6012D868PP_2022-09-21_09h10.03.692.csv
454,3.0,right,right,1.0,0.1356,0.0,35.0,35.0,35.0,1.0,2901951392-368654.jpg,2446759803-49249.jpg,ACR6012D868PP_2022-09-21_09h10.03.692.csv
455,1.0,left,right,0.0,0.2623,0.0,36.0,36.0,36.0,1.0,2981241414-145842.jpg,2238516618-25604.jpg,ACR6012D868PP_2022-09-21_09h10.03.692.csv
456,3.0,left,right,0.0,0.2577,0.0,37.0,37.0,37.0,1.0,2460547508-51571.jpg,2901941438-69835.jpg,ACR6012D868PP_2022-09-21_09h10.03.692.csv
457,1.0,right,right,1.0,0.140099999,0.0,38.0,38.0,38.0,1.0,2883254439-140940.jpg,2883273443-68193.jpg,ACR6012D868PP_2022-09-21_09h10.03.692.csv
458,1.0,left,right,0.0,0.256,0.0,39.0,39.0,39.0,1.0,2964218374-144967.jpg,2964218374-144968.jpg,ACR6012D868PP_2022-09-21_09h10.03.692.csv
459,1.0,right,right,1.0,0.1462,0.0,40.0,40.0,40.0,1.0,2981244394-145974.jpg,2964213381-294060.jpg,ACR6012D868PP_2022-09-21_09h10.03.692.csv
460,3.0,left,right,0.0,0.2763,0.0,41.0,41.0,41.0,1.0,2458347385-199723.jpg,2458347252-348911.jpg,ACR6012D868PP_2022-09-21_09h10.03.692.csv
461,2.0,left,right,0.0,0.2685,0.0,42.0,42.0,42.0,1.0,2238572663-35822.jpg,2238571930-184143.jpg,ACR6012D868PP_2022-09-21_09h10.03.692.csv
462,2.0,left,right,0.0,0.141900001,0.0,43.0,43.0,43.0,1.0,2874307433-66280.jpg,2981246400-220365.jpg,ACR6012D868PP_2022-09-21_09h10.03.692.csv
463,3.0,left,right,0.0,0.273,0.0,44.0,44.0,44.0,1.0,2864907432-362042.jpg,2989726338-74002.jpg,ACR6012D868PP_2022-09-21_09h10.03.692.csv
464,3.0,right,right,1.0,0.1318,0.0,45.0,45.0,45.0,1.0,2964207374-144577.jpg,2898617468-68274.jpg,ACR6012D868PP_2022-09-21_09h10.03.692.csv
465,1.0,right,right,1.0,0.2837,0.0,46.0,46.0,46.0,1.0,2860312398-62572.jpg,2901947423-70311.jpg,ACR6012D868PP_2022-09-21_09h10.03.692.csv
466,3.0,left,right,0.0,0.2857,0.0,47.0,47.0,47.0,1.0,2901939379-143479.jpg,2964216376-294181.jpg,ACR6012D868PP_2022-09-21_09h10.03.692.csv
467,2.0,left,right,0.0,0.2564,0.0,48.0,48.0,48.0,1.0,2238428357-313623.jpg,2984615361-295509.jpg,ACR6012D868PP_2022-09-21_09h10.03.692.csv
468,1.0,right,right,1.0,0.3757,0.0,49.0,49.0,49.0,1.0,2898631359-142721.jpg,2898618444-142233.jpg,ACR6012D868PP_2022-09-21_09h10.03.692.csv
469,3.0,left,right,0.0,0.2542,0.0,50.0,50.0,50.0,1.0,2898624426-291546.jpg,2981235446-294900.jpg,ACR6012D868PP_2022-09-21_09h10.03.692.csv
470,2.0,left,right,0.0,0.266,0.0,51.0,51.0,51.0,1.0,2901941401-292798.jpg,2981243412-370222.jpg,ACR6012D868PP_2022-09-21_09h10.03.692.csv
471,2.0,right,right,1.0,0.2738,0.0,52.0,52.0,52.0,1.0,2984615361-295510.jpg,2883268412-365898.jpg,ACR6012D868PP_2022-09-21_09h10.03.692.csv
472,1.0,right,right,1.0,0.2741,0.0,53.0,53.0,53.0,1.0,2901942428-69919.jpg,2901939379-143480.jpg,ACR6012D868PP_2022-09-21_09h10.03.692.csv
473,3.0,left,right,0.0,0.1405,0.0,54.0,54.0,54.0,1.0,2898635428-69104.jpg,2898625336-291572.jpg,ACR6012D868PP_2022-09-21_09h10.03.692.csv
474,1.0,right,right,1.0,0.2585,0.0,55.0,55.0,55.0,1.0,2452380171-273112.jpg,2449442529-124445.jpg,ACR6012D868PP_2022-09-21_09h10.03.692.csv
475,2.0,left,right,0.0,0.2597,0.0,56.0,56.0,56.0,1.0,2874303365-214262.jpg,2238563377-332054.jpg,ACR6012D868PP_2022-09-21_09h10.03.692.csv
476,2.0,left,right,0.0,0.1497,0.0,57.0,57.0,57.0,1.0,2868474407-362883.jpg,2981246400-220363.jpg,ACR6012D868PP_2022-09-21_09h10.03.692.csv
477,2.0,right,right,1.0,0.133299999,0.0,58.0,58.0,58.0,1.0,2592380177-354628.jpg,2512875899-126682.jpg,ACR6012D868PP_2022-09-21_09h10.03.692.csv
478,2.0,right,right,1.0,0.3897,0.0,59.0,59.0,59.0,1.0,2901941438-69836.jpg,2964223381-294447.jpg,ACR6012D868PP_2022-09-21_09h10.03.692.csv
479,1.0,right,right,1.0,1.6458,0.0,0.0,0.0,0.0,1.0,2575963989-130576.jpg,2592379964-131054.jpg,A2U5OFMW8H30PC_2022-09-21_09h03.15.065.csv
480,3.0,right,right,1.0,1.8509,0.0,1.0,1.0,1.0,1.0,2238436252-314037.jpg,2883268412-365898.jpg,A2U5OFMW8H30PC_2022-09-21_09h03.15.065.csv
481,3.0,right,right,1.0,1.6676,0.0,2.0,2.0,2.0,1.0,2901939433-69672.jpg,2864910426-287204.jpg,A2U5OFMW8H30PC_2022-09-21_09h03.15.065.csv
482,3.0,right,right,1.0,1.6197,0.0,3.0,3.0,3.0,1.0,2512875587-350044.jpg,2592380177-354629.jpg,A2U5OFMW8H30PC_2022-09-21_09h03.15.065.csv
483,1.0,right,right,1.0,2.1615,0.0,4.0,4.0,4.0,1.0,2898618327-366317.jpg,2901941401-292798.jpg,A2U5OFMW8H30PC_2022-09-21_09h03.15.065.csv
484,1.0,right,right,1.0,5.6717,0.0,5.0,5.0,5.0,1.0,2460547467-349423.jpg,2901939379-143479.jpg,A2U5OFMW8H30PC_2022-09-21_09h03.15.065.csv
485,1.0,left,left,1.0,2.0993,0.0,6.0,6.0,6.0,1.0,2898635428-69104.jpg,2446759803-49250.jpg,A2U5OFMW8H30PC_2022-09-21_09h03.15.065.csv
486,2.0,right,right,1.0,1.9142,0.0,7.0,7.0,7.0,1.0,2901933382-367209.jpg,2964222378-71332.jpg,A2U5OFMW8H30PC_2022-09-21_09h03.15.065.csv
487,3.0,left,left,1.0,1.4509,0.0,8.0,8.0,8.0,1.0,2874303365-214262.jpg,2864911457-362260.jpg,A2U5OFMW8H30PC_2022-09-21_09h03.15.065.csv
488,3.0,left,left,1.0,2.6839,0.0,9.0,9.0,9.0,1.0,2898635427-367120.jpg,2898621427-366486.jpg,A2U5OFMW8H30PC_2022-09-21_09h03.15.065.csv
489,2.0,right,right,1.0,1.3692,0.0,10.0,10.0,10.0,1.0,2901942443-69923.jpg,2874299429-139695.jpg,A2U5OFMW8H30PC_2022-09-21_09h03.15.065.csv
490,3.0,right,right,1.0,1.3469,0.0,11.0,11.0,11.0,1.0,2981241419-145844.jpg,2238481928-19949.jpg,A2U5OFMW8H30PC_2022-09-21_09h03.15.065.csv
491,1.0,left,left,1.0,1.279,0.0,12.0,12.0,12.0,1.0,2238572663-35822.jpg,2238584894-113161.jpg,A2U5OFMW8H30PC_2022-09-21_09h03.15.065.csv
492,2.0,left,left,1.0,1.5635,0.0,13.0,13.0,13.0,1.0,2460547467-349422.jpg,2868487415-213924.jpg,A2U5OFMW8H30PC_2022-09-21_09h03.15.065.csv
493,3.0,left,left,1.0,1.7714,0.0,14.0,14.0,14.0,1.0,2964213381-294060.jpg,2964213381-294061.jpg,A2U5OFMW8H30PC_2022-09-21_09h03.15.065.csv
494,2.0,left,left,1.0,2.1528,0.0,15.0,15.0,15.0,1.0,2874299429-139694.jpg,2981244403-72215.jpg,A2U5OFMW8H30PC_2022-09-21_09h03.15.065.csv
495,3.0,right,right,1.0,2.2678,0.0,16.0,16.0,16.0,1.0,2864904453-63933.jpg,2883256307-365057.jpg,A2U5OFMW8H30PC_2022-09-21_09h03.15.065.csv
496,1.0,left,left,1.0,1.2578,0.0,17.0,17.0,17.0,1.0,2874301407-363895.jpg,2446761374-124213.jpg,A2U5OFMW8H30PC_2022-09-21_09h03.15.065.csv
497,1.0,right,left,0.0,2.3281,0.0,18.0,18.0,18.0,1.0,2981240424-145795.jpg,2446758985-197609.jpg,A2U5OFMW8H30PC_2022-09-21_09h03.15.065.csv
498,3.0,left,left,1.0,1.7604,0.0,19.0,19.0,19.0,1.0,2874302418-65978.jpg,2898633321-291943.jpg,A2U5OFMW8H30PC_2022-09-21_09h03.15.065.csv
499,1.0,left,left,1.0,1.481,0.0,20.0,20.0,20.0,1.0,2238480677-317399.jpg,2238481630-168218.jpg,A2U5OFMW8H30PC_2022-09-21_09h03.15.065.csv
500,2.0,right,right,1.0,2.1859,0.0,21.0,21.0,21.0,1.0,2452380166-273110.jpg,2460547467-349421.jpg,A2U5OFMW8H30PC_2022-09-21_09h03.15.065.csv
501,2.0,right,right,1.0,1.5862,0.0,22.0,22.0,22.0,1.0,2238436322-314047.jpg,2238425482-313537.jpg,A2U5OFMW8H30PC_2022-09-21_09h03.15.065.csv
502,3.0,right,right,1.0,1.4756,0.0,23.0,23.0,23.0,1.0,2238531493-28260.jpg,2575120738-55529.jpg,A2U5OFMW8H30PC_2022-09-21_09h03.15.065.csv
503,2.0,left,left,1.0,2.5959,0.0,24.0,24.0,24.0,1.0,2981231403-71642.jpg,2874305405-214397.jpg,A2U5OFMW8H30PC_2022-09-21_09h03.15.065.csv
504,2.0,right,right,1.0,1.8914,0.0,25.0,25.0,25.0,1.0,2901934408-69289.jpg,2898634397-367080.jpg,A2U5OFMW8H30PC_2022-09-21_09h03.15.065.csv
505,2.0,left,right,0.0,2.1698,0.0,26.0,26.0,26.0,1.0,2874307433-66280.jpg,2981246400-220365.jpg,A2U5OFMW8H30PC_2022-09-21_09h03.15.065.csv
506,2.0,right,right,1.0,2.4746,0.0,27.0,27.0,27.0,1.0,2427874554-121863.jpg,2458347385-199723.jpg,A2U5OFMW8H30PC_2022-09-21_09h03.15.065.csv
507,3.0,right,right,1.0,1.9391,0.0,28.0,28.0,28.0,1.0,2901948383-70363.jpg,2868474407-362883.jpg,A2U5OFMW8H30PC_2022-09-21_09h03.15.065.csv
508,3.0,right,left,0.0,1.6564,0.0,29.0,29.0,29.0,1.0,2964207374-144577.jpg,2898617468-68274.jpg,A2U5OFMW8H30PC_2022-09-21_09h03.15.065.csv
509,2.0,left,left,1.0,1.8527,0.0,30.0,30.0,30.0,1.0,2238580740-186218.jpg,2238521193-26285.jpg,A2U5OFMW8H30PC_2022-09-21_09h03.15.065.csv
510,1.0,right,right,1.0,1.7342,0.0,31.0,31.0,31.0,1.0,2883268471-290843.jpg,2883268471-290842.jpg,A2U5OFMW8H30PC_2022-09-21_09h03.15.065.csv
511,3.0,left,left,1.0,1.9152,0.0,32.0,32.0,32.0,1.0,2449442529-124446.jpg,2460547536-274178.jpg,A2U5OFMW8H30PC_2022-09-21_09h03.15.065.csv
512,1.0,left,left,1.0,1.4857,0.0,33.0,33.0,33.0,1.0,2898624426-291546.jpg,2964218432-369263.jpg,A2U5OFMW8H30PC_2022-09-21_09h03.15.065.csv
513,1.0,left,left,1.0,1.1873,0.0,34.0,34.0,34.0,1.0,2898618444-142233.jpg,2898631359-142721.jpg,A2U5OFMW8H30PC_2022-09-21_09h03.15.065.csv
514,1.0,left,left,1.0,1.1937,0.0,35.0,35.0,35.0,1.0,2898618390-216538.jpg,2237856148-989.jpg,A2U5OFMW8H30PC_2022-09-21_09h03.15.065.csv
515,2.0,left,right,0.0,1.4862,0.0,36.0,36.0,36.0,1.0,2964216465-219242.jpg,2864900319-137787.jpg,A2U5OFMW8H30PC_2022-09-21_09h03.15.065.csv
516,1.0,left,left,1.0,1.6546,0.0,37.0,37.0,37.0,1.0,2446759803-49249.jpg,2446760601-272099.jpg,A2U5OFMW8H30PC_2022-09-21_09h03.15.065.csv
517,2.0,right,right,1.0,1.6515,0.0,38.0,38.0,38.0,1.0,2446759306-271734.jpg,2964218374-144967.jpg,A2U5OFMW8H30PC_2022-09-21_09h03.15.065.csv
518,2.0,left,left,1.0,4.0364,0.0,39.0,39.0,39.0,1.0,2874302418-65979.jpg,2238480648-19714.jpg,A2U5OFMW8H30PC_2022-09-21_09h03.15.065.csv
519,1.0,left,left,1.0,1.2215,0.0,40.0,40.0,40.0,1.0,2238428357-313623.jpg,2238499057-320266.jpg,A2U5OFMW8H30PC_2022-09-21_09h03.15.065.csv
520,2.0,left,left,1.0,1.7049,0.0,41.0,41.0,41.0,1.0,2986451363-73598.jpg,2984628361-295995.jpg,A2U5OFMW8H30PC_2022-09-21_09h03.15.065.csv
521,1.0,right,right,1.0,1.2223,0.0,42.0,42.0,42.0,1.0,2238576792-334659.jpg,2592380177-354626.jpg,A2U5OFMW8H30PC_2022-09-21_09h03.15.065.csv
522,1.0,left,left,1.0,3.732,0.0,43.0,43.0,43.0,1.0,2238481198-19822.jpg,2862691449-137104.jpg,A2U5OFMW8H30PC_2022-09-21_09h03.15.065.csv
523,3.0,left,left,1.0,1.2208,0.0,44.0,44.0,44.0,1.0,2452380832-348593.jpg,2237858942-299356.jpg,A2U5OFMW8H30PC_2022-09-21_09h03.15.065.csv
524,2.0,left,left,1.0,1.3407,0.0,45.0,45.0,45.0,1.0,2898633421-291973.jpg,2575118671-277663.jpg,A2U5OFMW8H30PC_2022-09-21_09h03.15.065.csv
525,3.0,right,right,1.0,1.5096,0.0,46.0,46.0,46.0,1.0,2994401319-148290.jpg,2452381505-199546.jpg,A2U5OFMW8H30PC_2022-09-21_09h03.15.065.csv
526,2.0,left,left,1.0,1.7224,0.0,47.0,47.0,47.0,1.0,2964223381-294447.jpg,2901941438-69836.jpg,A2U5OFMW8H30PC_2022-09-21_09h03.15.065.csv
527,2.0,right,right,1.0,1.5218,0.0,48.0,48.0,48.0,1.0,2868469411-287540.jpg,2901952513-70703.jpg,A2U5OFMW8H30PC_2022-09-21_09h03.15.065.csv
528,3.0,right,right,1.0,1.7529,0.0,49.0,49.0,49.0,1.0,2238480980-168129.jpg,2238560245-182099.jpg,A2U5OFMW8H30PC_2022-09-21_09h03.15.065.csv
529,2.0,right,right,1.0,2.0999,0.0,50.0,50.0,50.0,1.0,2238573447-333826.jpg,2901947423-70311.jpg,A2U5OFMW8H30PC_2022-09-21_09h03.15.065.csv
530,1.0,right,right,1.0,1.6663,0.0,51.0,51.0,51.0,1.0,2460547536-274179.jpg,2512875899-126682.jpg,A2U5OFMW8H30PC_2022-09-21_09h03.15.065.csv
531,2.0,left,left,1.0,1.4049,0.0,52.0,52.0,52.0,1.0,2449442529-124445.jpg,2986408373-73286.jpg,A2U5OFMW8H30PC_2022-09-21_09h03.15.065.csv
532,3.0,right,left,0.0,1.6281,0.0,53.0,53.0,53.0,1.0,2898632385-217139.jpg,2901939379-143480.jpg,A2U5OFMW8H30PC_2022-09-21_09h03.15.065.csv
533,1.0,right,right,1.0,1.7898,0.0,54.0,54.0,54.0,1.0,2864901420-212147.jpg,2864907432-362042.jpg,A2U5OFMW8H30PC_2022-09-21_09h03.15.065.csv
534,1.0,left,right,0.0,2.2144,0.0,55.0,55.0,55.0,1.0,2868475410-213219.jpg,2901946465-218350.jpg,A2U5OFMW8H30PC_2022-09-21_09h03.15.065.csv
535,3.0,left,right,0.0,1.7433,0.0,56.0,56.0,56.0,1.0,2460547508-51571.jpg,2901941438-69835.jpg,A2U5OFMW8H30PC_2022-09-21_09h03.15.065.csv
536,1.0,right,right,1.0,1.9333,0.0,57.0,57.0,57.0,1.0,2898626385-216899.jpg,2986451363-73599.jpg,A2U5OFMW8H30PC_2022-09-21_09h03.15.065.csv
537,3.0,left,left,1.0,1.6872,0.0,58.0,58.0,58.0,1.0,2883273443-68193.jpg,2898627427-366763.jpg,A2U5OFMW8H30PC_2022-09-21_09h03.15.065.csv
538,3.0,right,right,1.0,2.3653,0.0,59.0,59.0,59.0,1.0,2427873848-47312.jpg,2981241414-145842.jpg,A2U5OFMW8H30PC_2022-09-21_09h03.15.065.csv
539,2.0,left,left,1.0,2.116,0.0,0.0,0.0,0.0,1.0,2449442529-124445.jpg,2986408373-73286.jpg,A2TZVJFRJ5I61B_2022-09-21_09h06.25.253.csv
540,2.0,left,left,1.0,4.2596,0.0,1.0,1.0,1.0,1.0,2898624426-291546.jpg,2981236443-71859.jpg,A2TZVJFRJ5I61B_2022-09-21_09h06.25.253.csv
541,2.0,left,left,1.0,7.5017,0.0,2.0,2.0,2.0,1.0,2898617468-68274.jpg,2901943387-368037.jpg,A2TZVJFRJ5I61B_2022-09-21_09h06.25.253.csv
542,3.0,right,right,1.0,16.7268,0.0,3.0,3.0,3.0,1.0,2981231446-294732.jpg,2964218374-144967.jpg,A2TZVJFRJ5I61B_2022-09-21_09h06.25.253.csv
543,3.0,right,left,0.0,10.1145,0.0,4.0,4.0,4.0,1.0,2901948383-70363.jpg,2868474407-362883.jpg,A2TZVJFRJ5I61B_2022-09-21_09h06.25.253.csv
544,1.0,left,right,0.0,8.8828,0.0,5.0,5.0,5.0,1.0,2901941401-292798.jpg,2898618327-366317.jpg,A2TZVJFRJ5I61B_2022-09-21_09h06.25.253.csv
545,1.0,left,left,1.0,4.9409,0.0,6.0,6.0,6.0,1.0,2964216465-219242.jpg,2238544191-252422.jpg,A2TZVJFRJ5I61B_2022-09-21_09h06.25.253.csv
546,2.0,left,left,1.0,7.4183,0.0,7.0,7.0,7.0,1.0,2592379964-131054.jpg,2238479053-19457.jpg,A2TZVJFRJ5I61B_2022-09-21_09h06.25.253.csv
547,2.0,right,right,1.0,33.0448,0.0,8.0,8.0,8.0,1.0,2868479517-363220.jpg,2898635427-367120.jpg,A2TZVJFRJ5I61B_2022-09-21_09h06.25.253.csv
548,1.0,left,left,1.0,4.8397,0.0,9.0,9.0,9.0,1.0,2981231403-71642.jpg,2579432519-130698.jpg,A2TZVJFRJ5I61B_2022-09-21_09h06.25.253.csv
549,3.0,right,left,0.0,8.3617,0.0,10.0,10.0,10.0,1.0,2898628438-68785.jpg,2964223381-294447.jpg,A2TZVJFRJ5I61B_2022-09-21_09h06.25.253.csv
550,2.0,right,right,1.0,2.9133,0.0,11.0,11.0,11.0,1.0,2868487415-213924.jpg,2460547467-349422.jpg,A2TZVJFRJ5I61B_2022-09-21_09h06.25.253.csv
551,3.0,left,left,1.0,5.5787,0.0,12.0,12.0,12.0,1.0,2238572663-35822.jpg,2864903351-286874.jpg,A2TZVJFRJ5I61B_2022-09-21_09h06.25.253.csv
552,3.0,left,left,1.0,11.2745,0.0,13.0,13.0,13.0,1.0,2901939379-143480.jpg,2898632385-217139.jpg,A2TZVJFRJ5I61B_2022-09-21_09h06.25.253.csv
553,2.0,right,right,1.0,10.6451,0.0,14.0,14.0,14.0,1.0,2575120738-55528.jpg,2575120738-55529.jpg,A2TZVJFRJ5I61B_2022-09-21_09h06.25.253.csv
554,1.0,left,left,1.0,1.9999,0.0,15.0,15.0,15.0,1.0,2238425482-313537.jpg,2238471391-240918.jpg,A2TZVJFRJ5I61B_2022-09-21_09h06.25.253.csv
555,3.0,right,right,1.0,10.1287,0.0,16.0,16.0,16.0,1.0,2981240427-370099.jpg,2964222378-71332.jpg,A2TZVJFRJ5I61B_2022-09-21_09h06.25.253.csv
556,1.0,right,left,0.0,10.4949,0.0,17.0,17.0,17.0,1.0,2460547467-349423.jpg,2901939379-143479.jpg,A2TZVJFRJ5I61B_2022-09-21_09h06.25.253.csv
557,3.0,left,left,1.0,6.4888,0.0,18.0,18.0,18.0,1.0,2452380832-348593.jpg,2237858942-299356.jpg,A2TZVJFRJ5I61B_2022-09-21_09h06.25.253.csv
558,2.0,right,right,1.0,18.6185,0.0,19.0,19.0,19.0,1.0,2460547536-274181.jpg,2449442529-124446.jpg,A2TZVJFRJ5I61B_2022-09-21_09h06.25.253.csv
559,3.0,left,left,1.0,7.2209,0.0,20.0,20.0,20.0,1.0,2592380177-354629.jpg,2512875587-350044.jpg,A2TZVJFRJ5I61B_2022-09-21_09h06.25.253.csv
560,3.0,left,left,1.0,16.8668,0.0,21.0,21.0,21.0,1.0,2446758985-197609.jpg,2898624426-291544.jpg,A2TZVJFRJ5I61B_2022-09-21_09h06.25.253.csv
561,2.0,left,left,1.0,5.9687,0.0,22.0,22.0,22.0,1.0,2883268471-290842.jpg,2883255450-215310.jpg,A2TZVJFRJ5I61B_2022-09-21_09h06.25.253.csv
562,1.0,left,left,1.0,11.2817,0.0,23.0,23.0,23.0,1.0,2874302418-65979.jpg,2237857458-1325.jpg,A2TZVJFRJ5I61B_2022-09-21_09h06.25.253.csv
563,3.0,right,left,0.0,19.0994,0.0,24.0,24.0,24.0,1.0,2898633321-291943.jpg,2874302418-65978.jpg,A2TZVJFRJ5I61B_2022-09-21_09h06.25.253.csv
564,2.0,right,right,1.0,11.0562,0.0,25.0,25.0,25.0,1.0,2901943411-292945.jpg,2898635428-69104.jpg,A2TZVJFRJ5I61B_2022-09-21_09h06.25.253.csv
565,1.0,right,right,1.0,3.1177,0.0,26.0,26.0,26.0,1.0,2898626385-216899.jpg,2986451363-73599.jpg,A2TZVJFRJ5I61B_2022-09-21_09h06.25.253.csv
566,3.0,left,left,1.0,0.2867,0.0,27.0,27.0,27.0,1.0,2986451363-73598.jpg,2901942443-69925.jpg,A2TZVJFRJ5I61B_2022-09-21_09h06.25.253.csv
567,3.0,left,right,0.0,4.3176,0.0,28.0,28.0,28.0,1.0,2981241414-145842.jpg,2427873848-47312.jpg,A2TZVJFRJ5I61B_2022-09-21_09h06.25.253.csv
568,2.0,right,left,0.0,3.6777,0.0,29.0,29.0,29.0,1.0,2874314526-289684.jpg,2238560245-182099.jpg,A2TZVJFRJ5I61B_2022-09-21_09h06.25.253.csv
569,3.0,right,right,1.0,5.6506,0.0,30.0,30.0,30.0,1.0,2238480278-19661.jpg,2238480677-317399.jpg,A2TZVJFRJ5I61B_2022-09-21_09h06.25.253.csv
570,1.0,right,left,0.0,14.4143,0.0,31.0,31.0,31.0,1.0,2981244394-145974.jpg,2964213381-294060.jpg,A2TZVJFRJ5I61B_2022-09-21_09h06.25.253.csv
571,2.0,right,right,1.0,2.8937,0.0,32.0,32.0,32.0,1.0,2981244403-72215.jpg,2874299429-139694.jpg,A2TZVJFRJ5I61B_2022-09-21_09h06.25.253.csv
572,2.0,right,left,0.0,22.9718,0.0,33.0,33.0,33.0,1.0,2460547508-51572.jpg,2883273443-68193.jpg,A2TZVJFRJ5I61B_2022-09-21_09h06.25.253.csv
573,1.0,left,right,0.0,5.724,0.0,34.0,34.0,34.0,1.0,2460547508-51571.jpg,2452380166-273109.jpg,A2TZVJFRJ5I61B_2022-09-21_09h06.25.253.csv
574,3.0,right,right,1.0,6.7547,0.0,35.0,35.0,35.0,1.0,2238577590-185467.jpg,2901947423-70311.jpg,A2TZVJFRJ5I61B_2022-09-21_09h06.25.253.csv
575,1.0,right,right,1.0,11.3797,0.0,36.0,36.0,36.0,1.0,2984615358-72439.jpg,2874307433-66280.jpg,A2TZVJFRJ5I61B_2022-09-21_09h06.25.253.csv
576,2.0,left,left,1.0,3.8441,0.0,37.0,37.0,37.0,1.0,2238481928-19949.jpg,2864900357-361688.jpg,A2TZVJFRJ5I61B_2022-09-21_09h06.25.253.csv
577,3.0,right,left,0.0,1.1958,0.0,38.0,38.0,38.0,1.0,2964217461-294238.jpg,2898634397-367080.jpg,A2TZVJFRJ5I61B_2022-09-21_09h06.25.253.csv
578,1.0,left,left,1.0,1.7918,0.0,39.0,39.0,39.0,1.0,2874303365-214262.jpg,2274829821-263682.jpg,A2TZVJFRJ5I61B_2022-09-21_09h06.25.253.csv
579,2.0,right,left,0.0,2.7505,0.0,40.0,40.0,40.0,1.0,2901942443-69923.jpg,2874299429-139695.jpg,A2TZVJFRJ5I61B_2022-09-21_09h06.25.253.csv
580,3.0,left,right,0.0,1.6097,0.0,41.0,41.0,41.0,1.0,2883256307-365057.jpg,2864904453-63933.jpg,A2TZVJFRJ5I61B_2022-09-21_09h06.25.253.csv
581,2.0,left,right,0.0,2.2087,0.0,42.0,42.0,42.0,1.0,2898618390-216538.jpg,2901939327-367670.jpg,A2TZVJFRJ5I61B_2022-09-21_09h06.25.253.csv
582,1.0,left,right,0.0,1.2339,0.0,43.0,43.0,43.0,1.0,2592380177-354626.jpg,2238576792-334659.jpg,A2TZVJFRJ5I61B_2022-09-21_09h06.25.253.csv
583,3.0,left,right,0.0,1.9948,0.0,44.0,44.0,44.0,1.0,2898618444-142233.jpg,2898618444-142232.jpg,A2TZVJFRJ5I61B_2022-09-21_09h06.25.253.csv
584,1.0,right,left,0.0,1.8557,0.0,45.0,45.0,45.0,1.0,2446760601-272099.jpg,2446759803-49249.jpg,A2TZVJFRJ5I61B_2022-09-21_09h06.25.253.csv
585,1.0,right,right,1.0,1.8866,0.0,46.0,46.0,46.0,1.0,2864901420-212147.jpg,2864907432-362042.jpg,A2TZVJFRJ5I61B_2022-09-21_09h06.25.253.csv
586,3.0,left,left,1.0,1.5756,0.0,47.0,47.0,47.0,1.0,2238428357-313623.jpg,2986408339-146952.jpg,A2TZVJFRJ5I61B_2022-09-21_09h06.25.253.csv
587,1.0,left,right,0.0,1.2616,0.0,48.0,48.0,48.0,1.0,2460547467-349421.jpg,2898631394-142727.jpg,A2TZVJFRJ5I61B_2022-09-21_09h06.25.253.csv
588,1.0,right,left,0.0,1.4473,0.0,49.0,49.0,49.0,1.0,2864902304-137862.jpg,2864910426-287204.jpg,A2TZVJFRJ5I61B_2022-09-21_09h06.25.253.csv
589,3.0,left,right,0.0,2.0421,0.0,50.0,50.0,50.0,1.0,2868475410-213219.jpg,2868474407-362885.jpg,A2TZVJFRJ5I61B_2022-09-21_09h06.25.253.csv
590,2.0,left,left,1.0,1.3329,0.0,51.0,51.0,51.0,1.0,2238481198-19822.jpg,2901946436-293242.jpg,A2TZVJFRJ5I61B_2022-09-21_09h06.25.253.csv
591,1.0,left,left,1.0,1.438,0.0,52.0,52.0,52.0,1.0,2512875899-126682.jpg,2460547536-274179.jpg,A2TZVJFRJ5I61B_2022-09-21_09h06.25.253.csv
592,1.0,right,left,0.0,2.6975,0.0,53.0,53.0,53.0,1.0,2238480434-93829.jpg,2458347385-199723.jpg,A2TZVJFRJ5I61B_2022-09-21_09h06.25.253.csv
593,2.0,left,left,1.0,1.239,0.0,54.0,54.0,54.0,1.0,2901952513-70703.jpg,2868469411-287540.jpg,A2TZVJFRJ5I61B_2022-09-21_09h06.25.253.csv
594,2.0,right,left,0.0,1.7028,0.0,55.0,55.0,55.0,1.0,2898632385-217138.jpg,2452381505-199546.jpg,A2TZVJFRJ5I61B_2022-09-21_09h06.25.253.csv
595,2.0,right,left,0.0,1.273,0.0,56.0,56.0,56.0,1.0,2984615361-295510.jpg,2883268412-365898.jpg,A2TZVJFRJ5I61B_2022-09-21_09h06.25.253.csv
596,1.0,left,left,1.0,1.7836,0.0,57.0,57.0,57.0,1.0,2898633421-291973.jpg,2512876023-52283.jpg,A2TZVJFRJ5I61B_2022-09-21_09h06.25.253.csv
597,1.0,right,left,0.0,2.1606,0.0,58.0,58.0,58.0,1.0,2238550816-254000.jpg,2238580740-186218.jpg,A2TZVJFRJ5I61B_2022-09-21_09h06.25.253.csv
598,3.0,right,right,1.0,1.659,0.0,59.0,59.0,59.0,1.0,2901947323-70275.jpg,2874301407-363895.jpg,A2TZVJFRJ5I61B_2022-09-21_09h06.25.253.csv
599,3.0,left,left,1.0,3.06,0.0,0.0,0.0,0.0,1.0,2238572663-35822.jpg,2864903351-286874.jpg,A1R5JNC2LO6X1S_2022-09-21_09h10.40.559.csv
600,1.0,left,left,1.0,2.279,0.0,1.0,1.0,1.0,1.0,2868475410-213219.jpg,2901946465-218350.jpg,A1R5JNC2LO6X1S_2022-09-21_09h10.40.559.csv
601,1.0,right,right,1.0,1.512,0.0,2.0,2.0,2.0,1.0,2460547536-274179.jpg,2512875899-126682.jpg,A1R5JNC2LO6X1S_2022-09-21_09h10.40.559.csv
602,1.0,left,left,1.0,1.674,0.0,3.0,3.0,3.0,1.0,2460547467-349422.jpg,2898618440-216545.jpg,A1R5JNC2LO6X1S_2022-09-21_09h10.40.559.csv
603,1.0,left,left,1.0,1.642,0.0,4.0,4.0,4.0,1.0,2449442529-124446.jpg,2446759803-49251.jpg,A1R5JNC2LO6X1S_2022-09-21_09h10.40.559.csv
604,2.0,right,right,1.0,1.663,0.0,5.0,5.0,5.0,1.0,2901942443-69923.jpg,2874299429-139695.jpg,A1R5JNC2LO6X1S_2022-09-21_09h10.40.559.csv
605,3.0,left,left,1.0,1.728,0.0,6.0,6.0,6.0,1.0,2898618390-216538.jpg,2575120609-129862.jpg,A1R5JNC2LO6X1S_2022-09-21_09h10.40.559.csv
606,3.0,left,left,1.0,1.701,0.0,7.0,7.0,7.0,1.0,2901939379-143480.jpg,2898632385-217139.jpg,A1R5JNC2LO6X1S_2022-09-21_09h10.40.559.csv
607,3.0,right,right,1.0,1.503,0.0,8.0,8.0,8.0,1.0,2864904453-63933.jpg,2883256307-365057.jpg,A1R5JNC2LO6X1S_2022-09-21_09h10.40.559.csv
608,3.0,left,left,1.0,1.52,0.0,9.0,9.0,9.0,1.0,2901947423-70311.jpg,2238577590-185467.jpg,A1R5JNC2LO6X1S_2022-09-21_09h10.40.559.csv
609,1.0,right,left,0.0,1.537,0.0,10.0,10.0,10.0,1.0,2862691449-137104.jpg,2238481198-19822.jpg,A1R5JNC2LO6X1S_2022-09-21_09h10.40.559.csv
610,3.0,left,right,0.0,1.524,0.0,11.0,11.0,11.0,1.0,2964223381-294447.jpg,2898628438-68785.jpg,A1R5JNC2LO6X1S_2022-09-21_09h10.40.559.csv
611,1.0,right,right,1.0,2.142,0.0,12.0,12.0,12.0,1.0,2238471391-240918.jpg,2238425482-313537.jpg,A1R5JNC2LO6X1S_2022-09-21_09h10.40.559.csv
612,2.0,right,left,0.0,1.79,0.0,13.0,13.0,13.0,1.0,2864901386-286797.jpg,2592380177-354626.jpg,A1R5JNC2LO6X1S_2022-09-21_09h10.40.559.csv
613,1.0,left,left,1.0,1.569,0.0,14.0,14.0,14.0,1.0,2446759803-49249.jpg,2446760601-272099.jpg,A1R5JNC2LO6X1S_2022-09-21_09h10.40.559.csv
614,3.0,right,right,1.0,1.556,0.0,15.0,15.0,15.0,1.0,2898633321-291943.jpg,2874302418-65978.jpg,A1R5JNC2LO6X1S_2022-09-21_09h10.40.559.csv
615,3.0,right,left,0.0,2.26,0.0,16.0,16.0,16.0,1.0,2238550049-105691.jpg,2898633421-291973.jpg,A1R5JNC2LO6X1S_2022-09-21_09h10.40.559.csv
616,2.0,left,left,1.0,1.439,0.0,17.0,17.0,17.0,1.0,2883273443-68193.jpg,2460547508-51572.jpg,A1R5JNC2LO6X1S_2022-09-21_09h10.40.559.csv
617,3.0,right,left,0.0,1.688,0.0,18.0,18.0,18.0,1.0,2427873848-47312.jpg,2981241414-145842.jpg,A1R5JNC2LO6X1S_2022-09-21_09h10.40.559.csv
618,2.0,right,left,0.0,1.39,0.0,19.0,19.0,19.0,1.0,2981246400-220363.jpg,2868474407-362883.jpg,A1R5JNC2LO6X1S_2022-09-21_09h10.40.559.csv
619,3.0,right,left,0.0,1.598,0.0,20.0,20.0,20.0,1.0,2981235446-294901.jpg,2460547467-349421.jpg,A1R5JNC2LO6X1S_2022-09-21_09h10.40.559.csv
620,1.0,left,left,1.0,2.725,0.0,21.0,21.0,21.0,1.0,2981231403-71642.jpg,2579432519-130698.jpg,A1R5JNC2LO6X1S_2022-09-21_09h10.40.559.csv
621,1.0,left,right,0.0,1.954,0.0,22.0,22.0,22.0,1.0,2898635427-367120.jpg,2964221435-219434.jpg,A1R5JNC2LO6X1S_2022-09-21_09h10.40.559.csv
622,2.0,right,right,1.0,1.977,0.0,23.0,23.0,23.0,1.0,2446758985-197610.jpg,2901939379-143479.jpg,A1R5JNC2LO6X1S_2022-09-21_09h10.40.559.csv
623,1.0,right,left,0.0,1.76,0.0,24.0,24.0,24.0,1.0,2898618327-366317.jpg,2901941401-292798.jpg,A1R5JNC2LO6X1S_2022-09-21_09h10.40.559.csv
624,1.0,left,left,1.0,1.902,0.0,25.0,25.0,25.0,1.0,2864907432-362042.jpg,2864901420-212147.jpg,A1R5JNC2LO6X1S_2022-09-21_09h10.40.559.csv
625,1.0,right,left,0.0,1.976,0.0,26.0,26.0,26.0,1.0,2964218374-144968.jpg,2964218374-144967.jpg,A1R5JNC2LO6X1S_2022-09-21_09h10.40.559.csv
626,2.0,right,left,0.0,1.55,0.0,27.0,27.0,27.0,1.0,2981236443-71859.jpg,2898624426-291546.jpg,A1R5JNC2LO6X1S_2022-09-21_09h10.40.559.csv
627,2.0,right,right,1.0,1.714,0.0,28.0,28.0,28.0,1.0,2901933382-367209.jpg,2964222378-71332.jpg,A1R5JNC2LO6X1S_2022-09-21_09h10.40.559.csv
628,2.0,left,left,1.0,1.63,0.0,29.0,29.0,29.0,1.0,2446758985-197609.jpg,2864909447-362144.jpg,A1R5JNC2LO6X1S_2022-09-21_09h10.40.559.csv
629,3.0,left,left,1.0,2.472,0.0,30.0,30.0,30.0,1.0,2592379964-131054.jpg,2592380272-354673.jpg,A1R5JNC2LO6X1S_2022-09-21_09h10.40.559.csv
630,1.0,left,left,1.0,1.829,0.0,31.0,31.0,31.0,1.0,2898634397-367080.jpg,2237944827-301472.jpg,A1R5JNC2LO6X1S_2022-09-21_09h10.40.559.csv
631,2.0,right,left,0.0,1.419,0.0,32.0,32.0,32.0,1.0,2981232437-369759.jpg,2460547508-51571.jpg,A1R5JNC2LO6X1S_2022-09-21_09h10.40.559.csv
632,2.0,left,left,1.0,1.442,0.0,33.0,33.0,33.0,1.0,2986451363-73598.jpg,2984628361-295995.jpg,A1R5JNC2LO6X1S_2022-09-21_09h10.40.559.csv
633,1.0,right,left,0.0,1.324,0.0,34.0,34.0,34.0,1.0,2901946439-144040.jpg,2898617468-68274.jpg,A1R5JNC2LO6X1S_2022-09-21_09h10.40.559.csv
634,3.0,right,right,1.0,1.513,0.0,35.0,35.0,35.0,1.0,2237858942-299356.jpg,2452380832-348593.jpg,A1R5JNC2LO6X1S_2022-09-21_09h10.40.559.csv
635,1.0,right,left,0.0,1.436,0.0,36.0,36.0,36.0,1.0,2984615358-72439.jpg,2874307433-66280.jpg,A1R5JNC2LO6X1S_2022-09-21_09h10.40.559.csv
636,2.0,right,left,0.0,1.972,0.0,37.0,37.0,37.0,1.0,2458348012-349114.jpg,2964213381-294060.jpg,A1R5JNC2LO6X1S_2022-09-21_09h10.40.559.csv
637,3.0,left,left,1.0,1.695,0.0,38.0,38.0,38.0,1.0,2874302418-65979.jpg,2238578544-111698.jpg,A1R5JNC2LO6X1S_2022-09-21_09h10.40.559.csv
638,3.0,left,left,1.0,1.421,0.0,39.0,39.0,39.0,1.0,2449442529-124445.jpg,2898632385-217137.jpg,A1R5JNC2LO6X1S_2022-09-21_09h10.40.559.csv
639,2.0,right,left,0.0,1.635,0.0,40.0,40.0,40.0,1.0,2238573546-258454.jpg,2238480677-317399.jpg,A1R5JNC2LO6X1S_2022-09-21_09h10.40.559.csv
640,2.0,left,right,0.0,1.613,0.0,41.0,41.0,41.0,1.0,2238580740-186218.jpg,2238521193-26285.jpg,A1R5JNC2LO6X1S_2022-09-21_09h10.40.559.csv
641,1.0,left,right,0.0,1.326,0.0,42.0,42.0,42.0,1.0,2458347385-199723.jpg,2238480434-93829.jpg,A1R5JNC2LO6X1S_2022-09-21_09h10.40.559.csv
642,1.0,left,left,1.0,1.811,0.0,43.0,43.0,43.0,1.0,2874301407-363895.jpg,2446761374-124213.jpg,A1R5JNC2LO6X1S_2022-09-21_09h10.40.559.csv
643,2.0,right,right,1.0,1.805,0.0,44.0,44.0,44.0,1.0,2575120738-55528.jpg,2575120738-55529.jpg,A1R5JNC2LO6X1S_2022-09-21_09h10.40.559.csv
644,1.0,left,left,1.0,1.255,0.0,45.0,45.0,45.0,1.0,2898618444-142233.jpg,2898631359-142721.jpg,A1R5JNC2LO6X1S_2022-09-21_09h10.40.559.csv
645,2.0,left,left,1.0,1.236,0.0,46.0,46.0,46.0,1.0,2898635428-69104.jpg,2901943411-292945.jpg,A1R5JNC2LO6X1S_2022-09-21_09h10.40.559.csv
646,3.0,right,left,0.0,1.919,0.0,47.0,47.0,47.0,1.0,2883266367-365742.jpg,2874299429-139694.jpg,A1R5JNC2LO6X1S_2022-09-21_09h10.40.559.csv
647,2.0,left,left,1.0,1.362,0.0,48.0,48.0,48.0,1.0,2986451363-73599.jpg,2860302315-210704.jpg,A1R5JNC2LO6X1S_2022-09-21_09h10.40.559.csv
648,3.0,right,right,1.0,1.317,0.0,49.0,49.0,49.0,1.0,2981241419-145844.jpg,2238481928-19949.jpg,A1R5JNC2LO6X1S_2022-09-21_09h10.40.559.csv
649,3.0,right,right,1.0,1.481,0.0,50.0,50.0,50.0,1.0,2238436252-314037.jpg,2883268412-365898.jpg,A1R5JNC2LO6X1S_2022-09-21_09h10.40.559.csv
650,3.0,left,left,1.0,1.288,0.0,51.0,51.0,51.0,1.0,2452381505-199546.jpg,2994401319-148290.jpg,A1R5JNC2LO6X1S_2022-09-21_09h10.40.559.csv
651,2.0,right,right,1.0,1.436,0.0,52.0,52.0,52.0,1.0,2874314526-289684.jpg,2238560245-182099.jpg,A1R5JNC2LO6X1S_2022-09-21_09h10.40.559.csv
652,1.0,right,right,1.0,1.742,0.0,53.0,53.0,53.0,1.0,2864902304-137862.jpg,2864910426-287204.jpg,A1R5JNC2LO6X1S_2022-09-21_09h10.40.559.csv
653,2.0,left,left,1.0,1.642,0.0,54.0,54.0,54.0,1.0,2883268471-290842.jpg,2883255450-215310.jpg,A1R5JNC2LO6X1S_2022-09-21_09h10.40.559.csv
654,3.0,right,right,1.0,1.185,0.0,55.0,55.0,55.0,1.0,2238481198-19821.jpg,2901952513-70703.jpg,A1R5JNC2LO6X1S_2022-09-21_09h10.40.559.csv
655,1.0,right,right,1.0,2.294,0.0,56.0,56.0,56.0,1.0,2898633421-291974.jpg,2592380177-354629.jpg,A1R5JNC2LO6X1S_2022-09-21_09h10.40.559.csv
656,3.0,left,left,1.0,1.747,0.0,57.0,57.0,57.0,1.0,2964216465-219242.jpg,2898619327-366362.jpg,A1R5JNC2LO6X1S_2022-09-21_09h10.40.559.csv
657,2.0,right,left,0.0,1.987,0.0,58.0,58.0,58.0,1.0,2984615361-295509.jpg,2238428357-313623.jpg,A1R5JNC2LO6X1S_2022-09-21_09h10.40.559.csv
658,2.0,right,left,0.0,1.695,0.0,59.0,59.0,59.0,1.0,2238563377-332054.jpg,2874303365-214262.jpg,A1R5JNC2LO6X1S_2022-09-21_09h10.40.559.csv
659,2.0,right,left,0.0,2.655,0.0,0.0,0.0,0.0,1.0,2981243412-370222.jpg,2901941401-292798.jpg,A3L9EN8YL1HZWF_2022-09-21_09h42.50.613.csv
660,1.0,right,right,1.0,1.76,0.0,1.0,1.0,1.0,1.0,2237857458-1325.jpg,2874302418-65979.jpg,A3L9EN8YL1HZWF_2022-09-21_09h42.50.613.csv
661,3.0,left,left,1.0,2.008,0.0,2.0,2.0,2.0,1.0,2868474407-362883.jpg,2901948383-70363.jpg,A3L9EN8YL1HZWF_2022-09-21_09h42.50.613.csv
662,1.0,left,left,1.0,1.93,0.0,3.0,3.0,3.0,1.0,2883273443-68193.jpg,2883254439-140940.jpg,A3L9EN8YL1HZWF_2022-09-21_09h42.50.613.csv
663,3.0,right,right,1.0,2.87,0.0,4.0,4.0,4.0,1.0,2901939433-69672.jpg,2864910426-287204.jpg,A3L9EN8YL1HZWF_2022-09-21_09h42.50.613.csv
664,2.0,right,right,1.0,1.513,0.0,5.0,5.0,5.0,1.0,2986408373-73286.jpg,2449442529-124445.jpg,A3L9EN8YL1HZWF_2022-09-21_09h42.50.613.csv
665,2.0,left,left,1.0,1.372,0.0,6.0,6.0,6.0,1.0,2512875899-126682.jpg,2592380177-354628.jpg,A3L9EN8YL1HZWF_2022-09-21_09h42.50.613.csv
666,2.0,left,left,1.0,1.605,0.0,7.0,7.0,7.0,1.0,2898617468-68274.jpg,2901943387-368037.jpg,A3L9EN8YL1HZWF_2022-09-21_09h42.50.613.csv
667,2.0,left,left,1.0,1.914,0.0,8.0,8.0,8.0,1.0,2898618444-142233.jpg,2238555262-330312.jpg,A3L9EN8YL1HZWF_2022-09-21_09h42.50.613.csv
668,1.0,right,right,1.0,1.716,0.0,9.0,9.0,9.0,1.0,2238576792-334659.jpg,2592380177-354626.jpg,A3L9EN8YL1HZWF_2022-09-21_09h42.50.613.csv
669,2.0,left,left,1.0,2.076,0.0,10.0,10.0,10.0,1.0,2901952513-70703.jpg,2868469411-287540.jpg,A3L9EN8YL1HZWF_2022-09-21_09h42.50.613.csv
670,2.0,right,right,1.0,1.322,0.0,11.0,11.0,11.0,1.0,2238481813-19930.jpg,2452380832-348593.jpg,A3L9EN8YL1HZWF_2022-09-21_09h42.50.613.csv
671,2.0,right,left,0.0,1.493,0.0,12.0,12.0,12.0,1.0,2864909447-362144.jpg,2446758985-197609.jpg,A3L9EN8YL1HZWF_2022-09-21_09h42.50.613.csv
672,3.0,left,left,1.0,1.452,0.0,13.0,13.0,13.0,1.0,2592380177-354629.jpg,2512875587-350044.jpg,A3L9EN8YL1HZWF_2022-09-21_09h42.50.613.csv
673,3.0,right,right,1.0,1.424,0.0,14.0,14.0,14.0,1.0,2238480278-19661.jpg,2238480677-317399.jpg,A3L9EN8YL1HZWF_2022-09-21_09h42.50.613.csv
674,3.0,right,left,0.0,2.233,0.0,15.0,15.0,15.0,1.0,2898628438-68785.jpg,2964223381-294447.jpg,A3L9EN8YL1HZWF_2022-09-21_09h42.50.613.csv
675,3.0,left,left,1.0,1.742,0.0,16.0,16.0,16.0,1.0,2238425482-313537.jpg,2898633480-217190.jpg,A3L9EN8YL1HZWF_2022-09-21_09h42.50.613.csv
676,3.0,right,right,1.0,1.465,0.0,17.0,17.0,17.0,1.0,2986408339-146952.jpg,2238428357-313623.jpg,A3L9EN8YL1HZWF_2022-09-21_09h42.50.613.csv
677,2.0,left,left,1.0,2.089,0.0,18.0,18.0,18.0,1.0,2874299429-139695.jpg,2901942443-69923.jpg,A3L9EN8YL1HZWF_2022-09-21_09h42.50.613.csv
678,1.0,left,left,1.0,1.525,0.0,19.0,19.0,19.0,1.0,2883256307-365057.jpg,2611628310-206388.jpg,A3L9EN8YL1HZWF_2022-09-21_09h42.50.613.csv
679,2.0,right,right,1.0,1.584,0.0,20.0,20.0,20.0,1.0,2452380166-273110.jpg,2460547467-349421.jpg,A3L9EN8YL1HZWF_2022-09-21_09h42.50.613.csv
680,1.0,right,right,1.0,2.221,0.0,21.0,21.0,21.0,1.0,2238480434-93829.jpg,2458347385-199723.jpg,A3L9EN8YL1HZWF_2022-09-21_09h42.50.613.csv
681,1.0,left,left,1.0,2.188,0.0,22.0,22.0,22.0,1.0,2901947423-70311.jpg,2860312398-62572.jpg,A3L9EN8YL1HZWF_2022-09-21_09h42.50.613.csv
682,2.0,right,right,1.0,1.468,0.0,23.0,23.0,23.0,1.0,2901946436-293242.jpg,2238481198-19822.jpg,A3L9EN8YL1HZWF_2022-09-21_09h42.50.613.csv
683,3.0,right,right,1.0,1.813,0.0,24.0,24.0,24.0,1.0,2964213381-294061.jpg,2964213381-294060.jpg,A3L9EN8YL1HZWF_2022-09-21_09h42.50.613.csv
684,1.0,right,right,1.0,2.125,0.0,25.0,25.0,25.0,1.0,2883264367-365620.jpg,2238481928-19949.jpg,A3L9EN8YL1HZWF_2022-09-21_09h42.50.613.csv
685,3.0,left,left,1.0,1.168,0.0,26.0,26.0,26.0,1.0,2592379964-131054.jpg,2592380272-354673.jpg,A3L9EN8YL1HZWF_2022-09-21_09h42.50.613.csv
686,1.0,right,right,1.0,2.521,0.0,27.0,27.0,27.0,1.0,2901938432-367627.jpg,2452381505-199546.jpg,A3L9EN8YL1HZWF_2022-09-21_09h42.50.613.csv
687,3.0,right,right,1.0,1.951,0.0,28.0,28.0,28.0,1.0,2898633321-291943.jpg,2874302418-65978.jpg,A3L9EN8YL1HZWF_2022-09-21_09h42.50.613.csv
688,3.0,left,right,0.0,2.143,0.0,29.0,29.0,29.0,1.0,2986451363-73598.jpg,2901942443-69925.jpg,A3L9EN8YL1HZWF_2022-09-21_09h42.50.613.csv
689,3.0,left,right,0.0,2.573,0.0,30.0,30.0,30.0,1.0,2238572663-35822.jpg,2864903351-286874.jpg,A3L9EN8YL1HZWF_2022-09-21_09h42.50.613.csv
690,2.0,right,right,1.0,2.4,0.0,31.0,31.0,31.0,1.0,2981229442-369621.jpg,2901939379-143480.jpg,A3L9EN8YL1HZWF_2022-09-21_09h42.50.613.csv
691,1.0,right,left,0.0,1.99,0.0,32.0,32.0,32.0,1.0,2237944827-301472.jpg,2898634397-367080.jpg,A3L9EN8YL1HZWF_2022-09-21_09h42.50.613.csv
692,1.0,left,left,1.0,1.659,0.0,33.0,33.0,33.0,1.0,2238560245-182099.jpg,2592380255-205553.jpg,A3L9EN8YL1HZWF_2022-09-21_09h42.50.613.csv
693,2.0,right,right,1.0,1.486,0.0,34.0,34.0,34.0,1.0,2460547536-274181.jpg,2449442529-124446.jpg,A3L9EN8YL1HZWF_2022-09-21_09h42.50.613.csv
694,3.0,right,right,1.0,1.447,0.0,35.0,35.0,35.0,1.0,2901941438-69835.jpg,2460547508-51571.jpg,A3L9EN8YL1HZWF_2022-09-21_09h42.50.613.csv
695,3.0,left,left,1.0,1.612,0.0,36.0,36.0,36.0,1.0,2898635427-367120.jpg,2898621427-366486.jpg,A3L9EN8YL1HZWF_2022-09-21_09h42.50.613.csv
696,3.0,right,right,1.0,1.339,0.0,37.0,37.0,37.0,1.0,2901951392-368654.jpg,2446759803-49249.jpg,A3L9EN8YL1HZWF_2022-09-21_09h42.50.613.csv
697,2.0,right,left,0.0,1.542,0.0,38.0,38.0,38.0,1.0,2883255450-215310.jpg,2883268471-290842.jpg,A3L9EN8YL1HZWF_2022-09-21_09h42.50.613.csv
698,2.0,right,right,1.0,1.117,0.0,39.0,39.0,39.0,1.0,2575120738-55528.jpg,2575120738-55529.jpg,A3L9EN8YL1HZWF_2022-09-21_09h42.50.613.csv
699,2.0,right,right,1.0,1.624,0.0,40.0,40.0,40.0,1.0,2238563377-332054.jpg,2874303365-214262.jpg,A3L9EN8YL1HZWF_2022-09-21_09h42.50.613.csv
700,3.0,left,left,1.0,2.057,0.0,41.0,41.0,41.0,1.0,2981241414-145842.jpg,2427873848-47312.jpg,A3L9EN8YL1HZWF_2022-09-21_09h42.50.613.csv
701,2.0,right,right,1.0,1.942,0.0,42.0,42.0,42.0,1.0,2238521193-26285.jpg,2238580740-186218.jpg,A3L9EN8YL1HZWF_2022-09-21_09h42.50.613.csv
702,1.0,right,right,1.0,1.881,0.0,43.0,43.0,43.0,1.0,2579432519-130698.jpg,2981231403-71642.jpg,A3L9EN8YL1HZWF_2022-09-21_09h42.50.613.csv
703,3.0,right,left,0.0,2.974,0.0,44.0,44.0,44.0,1.0,2883266367-365742.jpg,2874299429-139694.jpg,A3L9EN8YL1HZWF_2022-09-21_09h42.50.613.csv
704,1.0,left,right,0.0,1.473,0.0,45.0,45.0,45.0,1.0,2901939379-143479.jpg,2460547467-349423.jpg,A3L9EN8YL1HZWF_2022-09-21_09h42.50.613.csv
705,1.0,right,right,1.0,2.017,0.0,46.0,46.0,46.0,1.0,2446761374-124213.jpg,2874301407-363895.jpg,A3L9EN8YL1HZWF_2022-09-21_09h42.50.613.csv
706,1.0,right,right,1.0,1.149,0.0,47.0,47.0,47.0,1.0,2898618440-216545.jpg,2460547467-349422.jpg,A3L9EN8YL1HZWF_2022-09-21_09h42.50.613.csv
707,1.0,right,right,1.0,1.861,0.0,48.0,48.0,48.0,1.0,2238544191-252422.jpg,2964216465-219242.jpg,A3L9EN8YL1HZWF_2022-09-21_09h42.50.613.csv
708,1.0,right,left,0.0,1.804,0.0,49.0,49.0,49.0,1.0,2446759803-49250.jpg,2898635428-69104.jpg,A3L9EN8YL1HZWF_2022-09-21_09h42.50.613.csv
709,1.0,left,left,1.0,1.474,0.0,50.0,50.0,50.0,1.0,2986451363-73599.jpg,2898626385-216899.jpg,A3L9EN8YL1HZWF_2022-09-21_09h42.50.613.csv
710,1.0,left,left,1.0,1.707,0.0,51.0,51.0,51.0,1.0,2874307433-66280.jpg,2984615358-72439.jpg,A3L9EN8YL1HZWF_2022-09-21_09h42.50.613.csv
711,3.0,left,left,1.0,2.044,0.0,52.0,52.0,52.0,1.0,2883268412-365898.jpg,2238436252-314037.jpg,A3L9EN8YL1HZWF_2022-09-21_09h42.50.613.csv
712,1.0,left,left,1.0,2.959,0.0,53.0,53.0,53.0,1.0,2898624426-291546.jpg,2964218432-369263.jpg,A3L9EN8YL1HZWF_2022-09-21_09h42.50.613.csv
713,1.0,right,right,1.0,1.5,0.0,54.0,54.0,54.0,1.0,2901946465-218350.jpg,2868475410-213219.jpg,A3L9EN8YL1HZWF_2022-09-21_09h42.50.613.csv
714,2.0,right,left,0.0,1.662,0.0,55.0,55.0,55.0,1.0,2446759306-271734.jpg,2964218374-144967.jpg,A3L9EN8YL1HZWF_2022-09-21_09h42.50.613.csv
715,2.0,left,left,1.0,1.808,0.0,56.0,56.0,56.0,1.0,2898618390-216538.jpg,2901939327-367670.jpg,A3L9EN8YL1HZWF_2022-09-21_09h42.50.613.csv
716,3.0,right,right,1.0,1.309,0.0,57.0,57.0,57.0,1.0,2238550049-105691.jpg,2898633421-291973.jpg,A3L9EN8YL1HZWF_2022-09-21_09h42.50.613.csv
717,3.0,right,right,1.0,1.927,0.0,58.0,58.0,58.0,1.0,2989726338-74002.jpg,2864907432-362042.jpg,A3L9EN8YL1HZWF_2022-09-21_09h42.50.613.csv
718,2.0,right,left,0.0,1.581,0.0,59.0,59.0,59.0,1.0,2901933382-367209.jpg,2964222378-71332.jpg,A3L9EN8YL1HZWF_2022-09-21_09h42.50.613.csv
719,2.0,right,right,1.0,2.4192,0.0,0.0,0.0,0.0,1.0,2446758985-197610.jpg,2901939379-143479.jpg,A1AT1U9SZ2T4NN_2022-09-21_10h01.27.159.csv
720,3.0,left,right,0.0,0.1691,0.0,1.0,1.0,1.0,1.0,2901941401-292798.jpg,2898631468-68931.jpg,A1AT1U9SZ2T4NN_2022-09-21_10h01.27.159.csv
