,index,test_encoding_response.keys,test_encoding_response.corr,trials.thisTrialN,target_image,pair,layer,correct,test_encoding_response.rt,key_resp_end.keys,subject
0,20,,1.0,0.0,2898624426-291546.jpg,2981236443-71859.jpg,2.0,,,,A1J39RAV7TKEMF_2022-09-21_09h07.39.041.csv
1,21,,1.0,1.0,2238572663-35822.jpg,2238571930-184143.jpg,2.0,,,,A1J39RAV7TKEMF_2022-09-21_09h07.39.041.csv
2,22,,1.0,2.0,2964213381-294060.jpg,2964213381-294061.jpg,3.0,,,,A1J39RAV7TKEMF_2022-09-21_09h07.39.041.csv
3,23,,1.0,3.0,2592380177-354626.jpg,2864901386-286797.jpg,2.0,,,,A1J39RAV7TKEMF_2022-09-21_09h07.39.041.csv
4,24,,1.0,4.0,2449442529-124446.jpg,2460547536-274178.jpg,3.0,,,,A1J39RAV7TKEMF_2022-09-21_09h07.39.041.csv
5,25,,1.0,5.0,2964218374-144967.jpg,2446759306-271734.jpg,2.0,,,,A1J39RAV7TKEMF_2022-09-21_09h07.39.041.csv
6,26,left,1.0,6.0,left.jpg,,,left,2.1468,,A1J39RAV7TKEMF_2022-09-21_09h07.39.041.csv
7,27,,1.0,7.0,2874302418-65979.jpg,2238480648-19714.jpg,2.0,,,,A1J39RAV7TKEMF_2022-09-21_09h07.39.041.csv
8,28,,1.0,8.0,2986451363-73598.jpg,2901942443-69925.jpg,3.0,,,,A1J39RAV7TKEMF_2022-09-21_09h07.39.041.csv
9,29,,1.0,9.0,2452381505-199546.jpg,2898632385-217138.jpg,2.0,,,,A1J39RAV7TKEMF_2022-09-21_09h07.39.041.csv
10,30,,1.0,10.0,2864907432-362042.jpg,2989726338-74002.jpg,3.0,,,,A1J39RAV7TKEMF_2022-09-21_09h07.39.041.csv
11,31,,1.0,11.0,2460547508-51571.jpg,2452380166-273109.jpg,1.0,,,,A1J39RAV7TKEMF_2022-09-21_09h07.39.041.csv
12,32,,1.0,12.0,2964222378-71332.jpg,2981240424-145794.jpg,1.0,,,,A1J39RAV7TKEMF_2022-09-21_09h07.39.041.csv
13,33,,1.0,13.0,2986451363-73599.jpg,2898626385-216899.jpg,1.0,,,,A1J39RAV7TKEMF_2022-09-21_09h07.39.041.csv
14,34,,1.0,14.0,2238480677-317399.jpg,2238573546-258454.jpg,2.0,,,,A1J39RAV7TKEMF_2022-09-21_09h07.39.041.csv
15,35,,1.0,15.0,2874303365-214262.jpg,2274829821-263682.jpg,1.0,,,,A1J39RAV7TKEMF_2022-09-21_09h07.39.041.csv
16,36,,1.0,16.0,2901939379-143479.jpg,2446758985-197610.jpg,2.0,,,,A1J39RAV7TKEMF_2022-09-21_09h07.39.041.csv
17,37,,1.0,17.0,2874302418-65978.jpg,2238481198-19823.jpg,2.0,,,,A1J39RAV7TKEMF_2022-09-21_09h07.39.041.csv
18,38,,1.0,18.0,2452380832-348593.jpg,2237858942-299356.jpg,3.0,,,,A1J39RAV7TKEMF_2022-09-21_09h07.39.041.csv
19,39,,1.0,19.0,2901941401-292798.jpg,2898618327-366317.jpg,1.0,,,,A1J39RAV7TKEMF_2022-09-21_09h07.39.041.csv
20,40,,1.0,20.0,2868475410-213219.jpg,2868474407-362885.jpg,3.0,,,,A1J39RAV7TKEMF_2022-09-21_09h07.39.041.csv
21,41,left,1.0,21.0,left.jpg,,,left,1.9755,,A1J39RAV7TKEMF_2022-09-21_09h07.39.041.csv
22,42,,1.0,22.0,2898635427-367120.jpg,2964221435-219434.jpg,1.0,,,,A1J39RAV7TKEMF_2022-09-21_09h07.39.041.csv
23,43,,1.0,23.0,2964216465-219242.jpg,2898619327-366362.jpg,3.0,,,,A1J39RAV7TKEMF_2022-09-21_09h07.39.041.csv
24,44,,1.0,24.0,2901947423-70311.jpg,2238577590-185467.jpg,3.0,,,,A1J39RAV7TKEMF_2022-09-21_09h07.39.041.csv
25,45,,1.0,25.0,2449442529-124445.jpg,2898632385-217137.jpg,3.0,,,,A1J39RAV7TKEMF_2022-09-21_09h07.39.041.csv
26,46,,1.0,26.0,2238481198-19822.jpg,2862691449-137104.jpg,1.0,,,,A1J39RAV7TKEMF_2022-09-21_09h07.39.041.csv
27,47,,1.0,27.0,2592380177-354629.jpg,2898633421-291974.jpg,1.0,,,,A1J39RAV7TKEMF_2022-09-21_09h07.39.041.csv
28,48,,1.0,28.0,2868474407-362883.jpg,2901948383-70363.jpg,3.0,,,,A1J39RAV7TKEMF_2022-09-21_09h07.39.041.csv
29,49,,1.0,29.0,2883268471-290842.jpg,2901947448-70314.jpg,3.0,,,,A1J39RAV7TKEMF_2022-09-21_09h07.39.041.csv
30,50,,1.0,30.0,2898635428-69104.jpg,2446759803-49250.jpg,1.0,,,,A1J39RAV7TKEMF_2022-09-21_09h07.39.041.csv
31,51,,1.0,31.0,2901939379-143480.jpg,2898632385-217139.jpg,3.0,,,,A1J39RAV7TKEMF_2022-09-21_09h07.39.041.csv
32,52,,1.0,32.0,2898634397-367080.jpg,2964217461-294238.jpg,3.0,,,,A1J39RAV7TKEMF_2022-09-21_09h07.39.041.csv
33,53,,0.0,33.0,left.jpg,,,left,,,A1J39RAV7TKEMF_2022-09-21_09h07.39.041.csv
34,54,,1.0,34.0,2238481928-19949.jpg,2864900357-361688.jpg,2.0,,,,A1J39RAV7TKEMF_2022-09-21_09h07.39.041.csv
35,55,,1.0,35.0,2238580740-186218.jpg,2238550816-254000.jpg,1.0,,,,A1J39RAV7TKEMF_2022-09-21_09h07.39.041.csv
36,56,,1.0,36.0,2864910426-287204.jpg,2883268412-365899.jpg,2.0,,,,A1J39RAV7TKEMF_2022-09-21_09h07.39.041.csv
37,57,,1.0,37.0,2883256307-365057.jpg,2964210336-293945.jpg,2.0,,,,A1J39RAV7TKEMF_2022-09-21_09h07.39.041.csv
38,58,,0.0,38.0,left.jpg,,,left,,,A1J39RAV7TKEMF_2022-09-21_09h07.39.041.csv
39,59,,1.0,39.0,2901952513-70703.jpg,2864907361-287062.jpg,1.0,,,,A1J39RAV7TKEMF_2022-09-21_09h07.39.041.csv
40,60,,1.0,40.0,2446759803-49249.jpg,2901951392-368654.jpg,3.0,,,,A1J39RAV7TKEMF_2022-09-21_09h07.39.041.csv
41,61,,1.0,41.0,2898618390-216538.jpg,2901939327-367670.jpg,2.0,,,,A1J39RAV7TKEMF_2022-09-21_09h07.39.041.csv
42,62,,1.0,42.0,2238560245-182099.jpg,2592380255-205553.jpg,1.0,,,,A1J39RAV7TKEMF_2022-09-21_09h07.39.041.csv
43,63,,1.0,43.0,2883273443-68193.jpg,2883254439-140940.jpg,1.0,,,,A1J39RAV7TKEMF_2022-09-21_09h07.39.041.csv
44,64,,1.0,44.0,2458347385-199723.jpg,2427874554-121863.jpg,2.0,,,,A1J39RAV7TKEMF_2022-09-21_09h07.39.041.csv
45,65,,1.0,45.0,2883268412-365898.jpg,2238436252-314037.jpg,3.0,,,,A1J39RAV7TKEMF_2022-09-21_09h07.39.041.csv
46,66,,0.0,46.0,right.jpg,,,right,,,A1J39RAV7TKEMF_2022-09-21_09h07.39.041.csv
47,67,,1.0,47.0,2981241414-145842.jpg,2874301404-139813.jpg,2.0,,,,A1J39RAV7TKEMF_2022-09-21_09h07.39.041.csv
48,68,,1.0,48.0,2981231403-71642.jpg,2874305405-214397.jpg,2.0,,,,A1J39RAV7TKEMF_2022-09-21_09h07.39.041.csv
49,69,,1.0,49.0,2575120738-55529.jpg,2575120738-55528.jpg,2.0,,,,A1J39RAV7TKEMF_2022-09-21_09h07.39.041.csv
50,70,,1.0,50.0,2446758985-197609.jpg,2981240424-145795.jpg,1.0,,,,A1J39RAV7TKEMF_2022-09-21_09h07.39.041.csv
51,71,,1.0,51.0,2874301407-363895.jpg,2446761374-124213.jpg,1.0,,,,A1J39RAV7TKEMF_2022-09-21_09h07.39.041.csv
52,72,,1.0,52.0,2874299429-139695.jpg,2446760917-347439.jpg,3.0,,,,A1J39RAV7TKEMF_2022-09-21_09h07.39.041.csv
53,73,,1.0,53.0,2898618444-142233.jpg,2898631359-142721.jpg,1.0,,,,A1J39RAV7TKEMF_2022-09-21_09h07.39.041.csv
54,74,,1.0,54.0,2898617468-68274.jpg,2964207374-144577.jpg,3.0,,,,A1J39RAV7TKEMF_2022-09-21_09h07.39.041.csv
55,75,,1.0,55.0,2460547467-349421.jpg,2981235446-294901.jpg,3.0,,,,A1J39RAV7TKEMF_2022-09-21_09h07.39.041.csv
56,76,,1.0,56.0,2874307433-66280.jpg,2984615358-72439.jpg,1.0,,,,A1J39RAV7TKEMF_2022-09-21_09h07.39.041.csv
57,77,,1.0,57.0,2874299429-139694.jpg,2883266367-365742.jpg,3.0,,,,A1J39RAV7TKEMF_2022-09-21_09h07.39.041.csv
58,78,,1.0,58.0,2238425482-313537.jpg,2238471391-240918.jpg,1.0,,,,A1J39RAV7TKEMF_2022-09-21_09h07.39.041.csv
59,79,,1.0,59.0,2238428357-313623.jpg,2238499057-320266.jpg,1.0,,,,A1J39RAV7TKEMF_2022-09-21_09h07.39.041.csv
60,80,,1.0,60.0,2592379964-131054.jpg,2592380272-354673.jpg,3.0,,,,A1J39RAV7TKEMF_2022-09-21_09h07.39.041.csv
61,81,,1.0,61.0,2898633421-291973.jpg,2575118671-277663.jpg,2.0,,,,A1J39RAV7TKEMF_2022-09-21_09h07.39.041.csv
62,82,,1.0,62.0,2460547467-349422.jpg,2868487415-213924.jpg,2.0,,,,A1J39RAV7TKEMF_2022-09-21_09h07.39.041.csv
63,83,,1.0,63.0,2964223381-294447.jpg,2427874231-269884.jpg,1.0,,,,A1J39RAV7TKEMF_2022-09-21_09h07.39.041.csv
64,84,,1.0,64.0,2512875899-126682.jpg,2592380177-354628.jpg,2.0,,,,A1J39RAV7TKEMF_2022-09-21_09h07.39.041.csv
65,20,,1.0,0.0,2592379964-131054.jpg,2575963989-130576.jpg,1.0,,,,A2EVO0JF0V6Q1_2022-09-21_09h23.24.584.csv
66,21,,1.0,1.0,2964213381-294060.jpg,2981244394-145974.jpg,1.0,,,,A2EVO0JF0V6Q1_2022-09-21_09h23.24.584.csv
67,22,,1.0,2.0,2898618390-216538.jpg,2237856148-989.jpg,1.0,,,,A2EVO0JF0V6Q1_2022-09-21_09h23.24.584.csv
68,23,,1.0,3.0,2981241414-145842.jpg,2238516618-25604.jpg,1.0,,,,A2EVO0JF0V6Q1_2022-09-21_09h23.24.584.csv
69,24,,1.0,4.0,2898634397-367080.jpg,2901934408-69289.jpg,2.0,,,,A2EVO0JF0V6Q1_2022-09-21_09h23.24.584.csv
70,25,,1.0,5.0,2868474407-362883.jpg,2901948383-70363.jpg,3.0,,,,A2EVO0JF0V6Q1_2022-09-21_09h23.24.584.csv
71,26,,1.0,6.0,2874302418-65978.jpg,2964224310-219528.jpg,1.0,,,,A2EVO0JF0V6Q1_2022-09-21_09h23.24.584.csv
72,27,,0.0,7.0,left.jpg,,,left,,,A2EVO0JF0V6Q1_2022-09-21_09h23.24.584.csv
73,28,,1.0,8.0,2898624426-291546.jpg,2981235446-294900.jpg,3.0,,,,A2EVO0JF0V6Q1_2022-09-21_09h23.24.584.csv
74,29,,1.0,9.0,2238572663-35822.jpg,2864903351-286874.jpg,3.0,,,,A2EVO0JF0V6Q1_2022-09-21_09h23.24.584.csv
75,30,,1.0,10.0,2868475410-213219.jpg,2238480803-19739.jpg,2.0,,,,A2EVO0JF0V6Q1_2022-09-21_09h23.24.584.csv
76,31,,1.0,11.0,2452380832-348593.jpg,2238481813-19930.jpg,2.0,,,,A2EVO0JF0V6Q1_2022-09-21_09h23.24.584.csv
77,32,,1.0,12.0,2901939379-143480.jpg,2981229442-369621.jpg,2.0,,,,A2EVO0JF0V6Q1_2022-09-21_09h23.24.584.csv
78,33,,1.0,13.0,2575120738-55529.jpg,2238531493-28260.jpg,3.0,,,,A2EVO0JF0V6Q1_2022-09-21_09h23.24.584.csv
79,34,,1.0,14.0,2883256307-365057.jpg,2864904453-63933.jpg,3.0,,,,A2EVO0JF0V6Q1_2022-09-21_09h23.24.584.csv
80,35,,1.0,15.0,2901939379-143479.jpg,2446758985-197610.jpg,2.0,,,,A2EVO0JF0V6Q1_2022-09-21_09h23.24.584.csv
81,36,,0.0,16.0,right.jpg,,,right,,,A2EVO0JF0V6Q1_2022-09-21_09h23.24.584.csv
82,37,,1.0,17.0,2864907432-362042.jpg,2901947423-70310.jpg,2.0,,,,A2EVO0JF0V6Q1_2022-09-21_09h23.24.584.csv
83,38,,1.0,18.0,2874307433-66280.jpg,2981246400-220365.jpg,2.0,,,,A2EVO0JF0V6Q1_2022-09-21_09h23.24.584.csv
84,39,,1.0,19.0,2874302418-65979.jpg,2237857458-1325.jpg,1.0,,,,A2EVO0JF0V6Q1_2022-09-21_09h23.24.584.csv
85,40,,1.0,20.0,2592380177-354629.jpg,2579432534-130704.jpg,2.0,,,,A2EVO0JF0V6Q1_2022-09-21_09h23.24.584.csv
86,41,,1.0,21.0,2964223381-294447.jpg,2427874231-269884.jpg,1.0,,,,A2EVO0JF0V6Q1_2022-09-21_09h23.24.584.csv
87,42,,1.0,22.0,2238428357-313623.jpg,2986408339-146952.jpg,3.0,,,,A2EVO0JF0V6Q1_2022-09-21_09h23.24.584.csv
88,43,,1.0,23.0,2460547467-349422.jpg,2898618440-216545.jpg,1.0,,,,A2EVO0JF0V6Q1_2022-09-21_09h23.24.584.csv
89,44,,1.0,24.0,2452381505-199546.jpg,2901938432-367627.jpg,1.0,,,,A2EVO0JF0V6Q1_2022-09-21_09h23.24.584.csv
90,45,,1.0,25.0,2449442529-124446.jpg,2446759803-49251.jpg,1.0,,,,A2EVO0JF0V6Q1_2022-09-21_09h23.24.584.csv
91,46,,1.0,26.0,2981231403-71642.jpg,2427873763-47290.jpg,3.0,,,,A2EVO0JF0V6Q1_2022-09-21_09h23.24.584.csv
92,47,,0.0,27.0,right.jpg,,,right,,,A2EVO0JF0V6Q1_2022-09-21_09h23.24.584.csv
93,48,,1.0,28.0,2460547467-349421.jpg,2898631394-142727.jpg,1.0,,,,A2EVO0JF0V6Q1_2022-09-21_09h23.24.584.csv
94,49,,1.0,29.0,2883268471-290842.jpg,2883255450-215310.jpg,2.0,,,,A2EVO0JF0V6Q1_2022-09-21_09h23.24.584.csv
95,50,,1.0,30.0,2901952513-70703.jpg,2868469411-287540.jpg,2.0,,,,A2EVO0JF0V6Q1_2022-09-21_09h23.24.584.csv
96,51,,1.0,31.0,2898635427-367120.jpg,2868479517-363220.jpg,2.0,,,,A2EVO0JF0V6Q1_2022-09-21_09h23.24.584.csv
97,52,,1.0,32.0,2449442529-124445.jpg,2986408373-73286.jpg,2.0,,,,A2EVO0JF0V6Q1_2022-09-21_09h23.24.584.csv
98,53,,1.0,33.0,2238481198-19822.jpg,2238480803-19737.jpg,3.0,,,,A2EVO0JF0V6Q1_2022-09-21_09h23.24.584.csv
99,54,,1.0,34.0,2458347385-199723.jpg,2458347252-348911.jpg,3.0,,,,A2EVO0JF0V6Q1_2022-09-21_09h23.24.584.csv
100,55,,1.0,35.0,2238580740-186218.jpg,2238550816-254000.jpg,1.0,,,,A2EVO0JF0V6Q1_2022-09-21_09h23.24.584.csv
101,56,,1.0,36.0,2238481928-19949.jpg,2981241419-145844.jpg,3.0,,,,A2EVO0JF0V6Q1_2022-09-21_09h23.24.584.csv
102,57,,1.0,37.0,2874299429-139695.jpg,2883266388-67750.jpg,1.0,,,,A2EVO0JF0V6Q1_2022-09-21_09h23.24.584.csv
103,58,,1.0,38.0,2964222378-71332.jpg,2981240424-145794.jpg,1.0,,,,A2EVO0JF0V6Q1_2022-09-21_09h23.24.584.csv
104,59,,1.0,39.0,2446758985-197609.jpg,2981240424-145795.jpg,1.0,,,,A2EVO0JF0V6Q1_2022-09-21_09h23.24.584.csv
105,60,,0.0,40.0,right.jpg,,,right,,,A2EVO0JF0V6Q1_2022-09-21_09h23.24.584.csv
106,61,,1.0,41.0,2883273443-68193.jpg,2883254439-140940.jpg,1.0,,,,A2EVO0JF0V6Q1_2022-09-21_09h23.24.584.csv
107,62,,1.0,42.0,2901941401-292798.jpg,2981243412-370222.jpg,2.0,,,,A2EVO0JF0V6Q1_2022-09-21_09h23.24.584.csv
108,63,,1.0,43.0,2238560245-182099.jpg,2238480980-168129.jpg,3.0,,,,A2EVO0JF0V6Q1_2022-09-21_09h23.24.584.csv
109,64,,1.0,44.0,2874299429-139694.jpg,2883266367-365742.jpg,3.0,,,,A2EVO0JF0V6Q1_2022-09-21_09h23.24.584.csv
110,65,,1.0,45.0,2898617468-68274.jpg,2901946439-144040.jpg,1.0,,,,A2EVO0JF0V6Q1_2022-09-21_09h23.24.584.csv
111,66,,1.0,46.0,2592380177-354626.jpg,2238117096-228518.jpg,3.0,,,,A2EVO0JF0V6Q1_2022-09-21_09h23.24.584.csv
112,67,,1.0,47.0,2901947423-70311.jpg,2238577590-185467.jpg,3.0,,,,A2EVO0JF0V6Q1_2022-09-21_09h23.24.584.csv
113,68,,1.0,48.0,2964216465-219242.jpg,2864900319-137787.jpg,2.0,,,,A2EVO0JF0V6Q1_2022-09-21_09h23.24.584.csv
114,69,,1.0,49.0,2986451363-73598.jpg,2901942443-69925.jpg,3.0,,,,A2EVO0JF0V6Q1_2022-09-21_09h23.24.584.csv
115,70,,0.0,50.0,left.jpg,,,left,,,A2EVO0JF0V6Q1_2022-09-21_09h23.24.584.csv
116,71,,1.0,51.0,2883268412-365898.jpg,2984626312-370849.jpg,1.0,,,,A2EVO0JF0V6Q1_2022-09-21_09h23.24.584.csv
117,72,,1.0,52.0,2986451363-73599.jpg,2860302315-210704.jpg,2.0,,,,A2EVO0JF0V6Q1_2022-09-21_09h23.24.584.csv
118,73,,1.0,53.0,2898633421-291973.jpg,2238550049-105691.jpg,3.0,,,,A2EVO0JF0V6Q1_2022-09-21_09h23.24.584.csv
119,74,,1.0,54.0,2964218374-144967.jpg,2981231446-294732.jpg,3.0,,,,A2EVO0JF0V6Q1_2022-09-21_09h23.24.584.csv
120,75,,1.0,55.0,2238425482-313537.jpg,2238436322-314047.jpg,2.0,,,,A2EVO0JF0V6Q1_2022-09-21_09h23.24.584.csv
121,76,,1.0,56.0,2446759803-49249.jpg,2898618440-216547.jpg,2.0,,,,A2EVO0JF0V6Q1_2022-09-21_09h23.24.584.csv
122,77,,1.0,57.0,2512875899-126682.jpg,2986447332-371497.jpg,3.0,,,,A2EVO0JF0V6Q1_2022-09-21_09h23.24.584.csv
123,78,,1.0,58.0,2864910426-287204.jpg,2901939433-69672.jpg,3.0,,,,A2EVO0JF0V6Q1_2022-09-21_09h23.24.584.csv
124,79,,1.0,59.0,2874301407-363895.jpg,2446761374-124213.jpg,1.0,,,,A2EVO0JF0V6Q1_2022-09-21_09h23.24.584.csv
125,80,,1.0,60.0,2898635428-69104.jpg,2446759803-49250.jpg,1.0,,,,A2EVO0JF0V6Q1_2022-09-21_09h23.24.584.csv
126,81,,1.0,61.0,2874303365-214262.jpg,2864911457-362260.jpg,3.0,,,,A2EVO0JF0V6Q1_2022-09-21_09h23.24.584.csv
127,82,,1.0,62.0,2238480677-317399.jpg,2238573546-258454.jpg,2.0,,,,A2EVO0JF0V6Q1_2022-09-21_09h23.24.584.csv
128,83,,1.0,63.0,2460547508-51571.jpg,2981232437-369759.jpg,2.0,,,,A2EVO0JF0V6Q1_2022-09-21_09h23.24.584.csv
129,84,,1.0,64.0,2898618444-142233.jpg,2238555262-330312.jpg,2.0,,,,A2EVO0JF0V6Q1_2022-09-21_09h23.24.584.csv
130,20,,1.0,0.0,2238428357-313623.jpg,2984615361-295509.jpg,2.0,,,,A1XIXGOB9KUMPJ_2022-09-21_09h19.13.047.csv
131,21,,1.0,1.0,2898617468-68274.jpg,2964207374-144577.jpg,3.0,,,,A1XIXGOB9KUMPJ_2022-09-21_09h19.13.047.csv
132,22,,1.0,2.0,2874301407-363895.jpg,2901947323-70275.jpg,3.0,,,,A1XIXGOB9KUMPJ_2022-09-21_09h19.13.047.csv
133,23,,1.0,3.0,2964216465-219242.jpg,2898619327-366362.jpg,3.0,,,,A1XIXGOB9KUMPJ_2022-09-21_09h19.13.047.csv
134,24,,1.0,4.0,2981241414-145842.jpg,2874301404-139813.jpg,2.0,,,,A1XIXGOB9KUMPJ_2022-09-21_09h19.13.047.csv
135,25,,1.0,5.0,2512875899-126682.jpg,2592380177-354628.jpg,2.0,,,,A1XIXGOB9KUMPJ_2022-09-21_09h19.13.047.csv
136,26,,1.0,6.0,2868475410-213219.jpg,2901946465-218350.jpg,1.0,,,,A1XIXGOB9KUMPJ_2022-09-21_09h19.13.047.csv
137,27,,1.0,7.0,2452380832-348593.jpg,2238328478-11678.jpg,1.0,,,,A1XIXGOB9KUMPJ_2022-09-21_09h19.13.047.csv
138,28,right,1.0,8.0,right.jpg,,,right,1.3692,,A1XIXGOB9KUMPJ_2022-09-21_09h19.13.047.csv
139,29,,1.0,9.0,2874299429-139694.jpg,2981244403-72215.jpg,2.0,,,,A1XIXGOB9KUMPJ_2022-09-21_09h19.13.047.csv
140,30,,1.0,10.0,2446758985-197609.jpg,2864909447-362144.jpg,2.0,,,,A1XIXGOB9KUMPJ_2022-09-21_09h19.13.047.csv
141,31,,1.0,11.0,2901941401-292798.jpg,2898631468-68931.jpg,3.0,,,,A1XIXGOB9KUMPJ_2022-09-21_09h19.13.047.csv
142,32,,1.0,12.0,2575120738-55529.jpg,2238531493-28260.jpg,3.0,,,,A1XIXGOB9KUMPJ_2022-09-21_09h19.13.047.csv
143,33,,1.0,13.0,2868474407-362883.jpg,2981246400-220363.jpg,2.0,,,,A1XIXGOB9KUMPJ_2022-09-21_09h19.13.047.csv
144,34,,1.0,14.0,2964222378-71332.jpg,2981240424-145794.jpg,1.0,,,,A1XIXGOB9KUMPJ_2022-09-21_09h19.13.047.csv
145,35,,1.0,15.0,2883273443-68193.jpg,2898627427-366763.jpg,3.0,,,,A1XIXGOB9KUMPJ_2022-09-21_09h19.13.047.csv
146,36,,1.0,16.0,2238425482-313537.jpg,2238471391-240918.jpg,1.0,,,,A1XIXGOB9KUMPJ_2022-09-21_09h19.13.047.csv
147,37,,1.0,17.0,2986451363-73598.jpg,2901942443-69925.jpg,3.0,,,,A1XIXGOB9KUMPJ_2022-09-21_09h19.13.047.csv
148,38,,1.0,18.0,2874299429-139695.jpg,2901942443-69923.jpg,2.0,,,,A1XIXGOB9KUMPJ_2022-09-21_09h19.13.047.csv
149,39,,1.0,19.0,2898633421-291973.jpg,2512876023-52283.jpg,1.0,,,,A1XIXGOB9KUMPJ_2022-09-21_09h19.13.047.csv
150,40,,1.0,20.0,2460547508-51571.jpg,2901941438-69835.jpg,3.0,,,,A1XIXGOB9KUMPJ_2022-09-21_09h19.13.047.csv
151,41,right,0.0,21.0,left.jpg,,,left,1.1959,,A1XIXGOB9KUMPJ_2022-09-21_09h19.13.047.csv
152,42,,1.0,22.0,2874302418-65978.jpg,2964224310-219528.jpg,1.0,,,,A1XIXGOB9KUMPJ_2022-09-21_09h19.13.047.csv
153,43,,1.0,23.0,2964223381-294447.jpg,2427874231-269884.jpg,1.0,,,,A1XIXGOB9KUMPJ_2022-09-21_09h19.13.047.csv
154,44,,1.0,24.0,2898635428-69104.jpg,2446759803-49250.jpg,1.0,,,,A1XIXGOB9KUMPJ_2022-09-21_09h19.13.047.csv
155,45,,1.0,25.0,2592380177-354626.jpg,2864901386-286797.jpg,2.0,,,,A1XIXGOB9KUMPJ_2022-09-21_09h19.13.047.csv
156,46,,1.0,26.0,2238481198-19822.jpg,2238480803-19737.jpg,3.0,,,,A1XIXGOB9KUMPJ_2022-09-21_09h19.13.047.csv
157,47,,1.0,27.0,2964213381-294060.jpg,2458348012-349114.jpg,2.0,,,,A1XIXGOB9KUMPJ_2022-09-21_09h19.13.047.csv
158,48,,1.0,28.0,2238580740-186218.jpg,2964220333-71258.jpg,3.0,,,,A1XIXGOB9KUMPJ_2022-09-21_09h19.13.047.csv
159,49,,1.0,29.0,2964218374-144967.jpg,2964218374-144968.jpg,1.0,,,,A1XIXGOB9KUMPJ_2022-09-21_09h19.13.047.csv
160,50,,1.0,30.0,2981231403-71642.jpg,2579432519-130698.jpg,1.0,,,,A1XIXGOB9KUMPJ_2022-09-21_09h19.13.047.csv
161,51,,1.0,31.0,2901939379-143480.jpg,2901942428-69919.jpg,1.0,,,,A1XIXGOB9KUMPJ_2022-09-21_09h19.13.047.csv
162,52,,0.0,32.0,right.jpg,,,right,,,A1XIXGOB9KUMPJ_2022-09-21_09h19.13.047.csv
163,53,,1.0,33.0,2449442529-124445.jpg,2452380171-273112.jpg,1.0,,,,A1XIXGOB9KUMPJ_2022-09-21_09h19.13.047.csv
164,54,,1.0,34.0,2460547467-349422.jpg,2864909447-362146.jpg,3.0,,,,A1XIXGOB9KUMPJ_2022-09-21_09h19.13.047.csv
165,55,,1.0,35.0,2901952513-70703.jpg,2238481198-19821.jpg,3.0,,,,A1XIXGOB9KUMPJ_2022-09-21_09h19.13.047.csv
166,56,,1.0,36.0,2446759803-49249.jpg,2901951392-368654.jpg,3.0,,,,A1XIXGOB9KUMPJ_2022-09-21_09h19.13.047.csv
167,57,,1.0,37.0,2864910426-287204.jpg,2883268412-365899.jpg,2.0,,,,A1XIXGOB9KUMPJ_2022-09-21_09h19.13.047.csv
168,58,,1.0,38.0,2901947423-70311.jpg,2238577590-185467.jpg,3.0,,,,A1XIXGOB9KUMPJ_2022-09-21_09h19.13.047.csv
169,59,,1.0,39.0,2883256307-365057.jpg,2611628310-206388.jpg,1.0,,,,A1XIXGOB9KUMPJ_2022-09-21_09h19.13.047.csv
170,60,,1.0,40.0,2238560245-182099.jpg,2874314526-289684.jpg,2.0,,,,A1XIXGOB9KUMPJ_2022-09-21_09h19.13.047.csv
171,61,,1.0,41.0,2592380177-354629.jpg,2579432534-130704.jpg,2.0,,,,A1XIXGOB9KUMPJ_2022-09-21_09h19.13.047.csv
172,62,,1.0,42.0,2898618444-142233.jpg,2238555262-330312.jpg,2.0,,,,A1XIXGOB9KUMPJ_2022-09-21_09h19.13.047.csv
173,63,,1.0,43.0,2238572663-35822.jpg,2864903351-286874.jpg,3.0,,,,A1XIXGOB9KUMPJ_2022-09-21_09h19.13.047.csv
174,64,,0.0,44.0,left.jpg,,,left,,,A1XIXGOB9KUMPJ_2022-09-21_09h19.13.047.csv
175,65,,1.0,45.0,2883268471-290842.jpg,2901947448-70314.jpg,3.0,,,,A1XIXGOB9KUMPJ_2022-09-21_09h19.13.047.csv
176,66,,1.0,46.0,2238480677-317399.jpg,2238573546-258454.jpg,2.0,,,,A1XIXGOB9KUMPJ_2022-09-21_09h19.13.047.csv
177,67,,1.0,47.0,2592379964-131054.jpg,2575963989-130576.jpg,1.0,,,,A1XIXGOB9KUMPJ_2022-09-21_09h19.13.047.csv
178,68,,0.0,48.0,left.jpg,,,left,,,A1XIXGOB9KUMPJ_2022-09-21_09h19.13.047.csv
179,69,,1.0,49.0,2898624426-291546.jpg,2981236443-71859.jpg,2.0,,,,A1XIXGOB9KUMPJ_2022-09-21_09h19.13.047.csv
180,70,,1.0,50.0,2986451363-73599.jpg,2898626385-216899.jpg,1.0,,,,A1XIXGOB9KUMPJ_2022-09-21_09h19.13.047.csv
181,71,,1.0,51.0,2452381505-199546.jpg,2898632385-217138.jpg,2.0,,,,A1XIXGOB9KUMPJ_2022-09-21_09h19.13.047.csv
182,72,,1.0,52.0,2460547467-349421.jpg,2898631394-142727.jpg,1.0,,,,A1XIXGOB9KUMPJ_2022-09-21_09h19.13.047.csv
183,73,,1.0,53.0,2898618390-216538.jpg,2901939327-367670.jpg,2.0,,,,A1XIXGOB9KUMPJ_2022-09-21_09h19.13.047.csv
184,74,,1.0,54.0,2449442529-124446.jpg,2446759803-49251.jpg,1.0,,,,A1XIXGOB9KUMPJ_2022-09-21_09h19.13.047.csv
185,75,,1.0,55.0,2864907432-362042.jpg,2989726338-74002.jpg,3.0,,,,A1XIXGOB9KUMPJ_2022-09-21_09h19.13.047.csv
186,76,,1.0,56.0,2901939379-143479.jpg,2446758985-197610.jpg,2.0,,,,A1XIXGOB9KUMPJ_2022-09-21_09h19.13.047.csv
187,77,,1.0,57.0,2898635427-367120.jpg,2868479517-363220.jpg,2.0,,,,A1XIXGOB9KUMPJ_2022-09-21_09h19.13.047.csv
188,78,,1.0,58.0,2458347385-199723.jpg,2238480434-93829.jpg,1.0,,,,A1XIXGOB9KUMPJ_2022-09-21_09h19.13.047.csv
189,79,,1.0,59.0,2883268412-365898.jpg,2238436252-314037.jpg,3.0,,,,A1XIXGOB9KUMPJ_2022-09-21_09h19.13.047.csv
190,80,,1.0,60.0,2874303365-214262.jpg,2274829821-263682.jpg,1.0,,,,A1XIXGOB9KUMPJ_2022-09-21_09h19.13.047.csv
191,81,,1.0,61.0,2898634397-367080.jpg,2237944827-301472.jpg,1.0,,,,A1XIXGOB9KUMPJ_2022-09-21_09h19.13.047.csv
192,82,,1.0,62.0,2874307433-66280.jpg,2981231422-369714.jpg,3.0,,,,A1XIXGOB9KUMPJ_2022-09-21_09h19.13.047.csv
193,83,,1.0,63.0,2874302418-65979.jpg,2238578544-111698.jpg,3.0,,,,A1XIXGOB9KUMPJ_2022-09-21_09h19.13.047.csv
194,84,,1.0,64.0,2238481928-19949.jpg,2864900357-361688.jpg,2.0,,,,A1XIXGOB9KUMPJ_2022-09-21_09h19.13.047.csv
195,20,,1.0,0.0,2874299429-139695.jpg,2901942443-69923.jpg,2.0,,,,A1STC10BXEP495_2022-09-21_08h03.48.970.csv
196,21,,1.0,1.0,2898618390-216538.jpg,2575120609-129862.jpg,3.0,,,,A1STC10BXEP495_2022-09-21_08h03.48.970.csv
197,22,,1.0,2.0,2883256307-365057.jpg,2964210336-293945.jpg,2.0,,,,A1STC10BXEP495_2022-09-21_08h03.48.970.csv
198,23,,1.0,3.0,2449442529-124446.jpg,2446759803-49251.jpg,1.0,,,,A1STC10BXEP495_2022-09-21_08h03.48.970.csv
199,24,,1.0,4.0,2238481928-19949.jpg,2981241419-145844.jpg,3.0,,,,A1STC10BXEP495_2022-09-21_08h03.48.970.csv
200,25,,1.0,5.0,2901939379-143479.jpg,2964216376-294181.jpg,3.0,,,,A1STC10BXEP495_2022-09-21_08h03.48.970.csv
201,26,,1.0,6.0,2238425482-313537.jpg,2238436322-314047.jpg,2.0,,,,A1STC10BXEP495_2022-09-21_08h03.48.970.csv
202,27,,1.0,7.0,2238572663-35822.jpg,2238571930-184143.jpg,2.0,,,,A1STC10BXEP495_2022-09-21_08h03.48.970.csv
203,28,,1.0,8.0,2238481198-19822.jpg,2862691449-137104.jpg,1.0,,,,A1STC10BXEP495_2022-09-21_08h03.48.970.csv
204,29,,0.0,9.0,right.jpg,,,right,,,A1STC10BXEP495_2022-09-21_08h03.48.970.csv
205,30,,1.0,10.0,2898634397-367080.jpg,2901934408-69289.jpg,2.0,,,,A1STC10BXEP495_2022-09-21_08h03.48.970.csv
206,31,,1.0,11.0,2964223381-294447.jpg,2901941438-69836.jpg,2.0,,,,A1STC10BXEP495_2022-09-21_08h03.48.970.csv
207,32,,1.0,12.0,2898635427-367120.jpg,2898621427-366486.jpg,3.0,,,,A1STC10BXEP495_2022-09-21_08h03.48.970.csv
208,33,,1.0,13.0,2458347385-199723.jpg,2458347252-348911.jpg,3.0,,,,A1STC10BXEP495_2022-09-21_08h03.48.970.csv
209,34,,1.0,14.0,2446758985-197609.jpg,2981240424-145795.jpg,1.0,,,,A1STC10BXEP495_2022-09-21_08h03.48.970.csv
210,35,,1.0,15.0,2238580740-186218.jpg,2238521193-26285.jpg,2.0,,,,A1STC10BXEP495_2022-09-21_08h03.48.970.csv
211,36,,0.0,16.0,left.jpg,,,left,,,A1STC10BXEP495_2022-09-21_08h03.48.970.csv
212,37,,1.0,17.0,2238428357-313623.jpg,2238499057-320266.jpg,1.0,,,,A1STC10BXEP495_2022-09-21_08h03.48.970.csv
213,38,,1.0,18.0,2592380177-354626.jpg,2238117096-228518.jpg,3.0,,,,A1STC10BXEP495_2022-09-21_08h03.48.970.csv
214,39,,1.0,19.0,2446759803-49249.jpg,2446760601-272099.jpg,1.0,,,,A1STC10BXEP495_2022-09-21_08h03.48.970.csv
215,40,,1.0,20.0,2449442529-124445.jpg,2898632385-217137.jpg,3.0,,,,A1STC10BXEP495_2022-09-21_08h03.48.970.csv
216,41,,1.0,21.0,2868474407-362883.jpg,2460547732-349518.jpg,1.0,,,,A1STC10BXEP495_2022-09-21_08h03.48.970.csv
217,42,,1.0,22.0,2964216465-219242.jpg,2238544191-252422.jpg,1.0,,,,A1STC10BXEP495_2022-09-21_08h03.48.970.csv
218,43,,1.0,23.0,2964222378-71332.jpg,2981240424-145794.jpg,1.0,,,,A1STC10BXEP495_2022-09-21_08h03.48.970.csv
219,44,,1.0,24.0,2512875899-126682.jpg,2986447332-371497.jpg,3.0,,,,A1STC10BXEP495_2022-09-21_08h03.48.970.csv
220,45,,1.0,25.0,2883273443-68193.jpg,2883254439-140940.jpg,1.0,,,,A1STC10BXEP495_2022-09-21_08h03.48.970.csv
221,46,,0.0,26.0,left.jpg,,,left,,,A1STC10BXEP495_2022-09-21_08h03.48.970.csv
222,47,,1.0,27.0,2868475410-213219.jpg,2238480803-19739.jpg,2.0,,,,A1STC10BXEP495_2022-09-21_08h03.48.970.csv
223,48,,1.0,28.0,2901952513-70703.jpg,2864907361-287062.jpg,1.0,,,,A1STC10BXEP495_2022-09-21_08h03.48.970.csv
224,49,,1.0,29.0,2964213381-294060.jpg,2981244394-145974.jpg,1.0,,,,A1STC10BXEP495_2022-09-21_08h03.48.970.csv
225,50,,1.0,30.0,2883268412-365898.jpg,2984615361-295510.jpg,2.0,,,,A1STC10BXEP495_2022-09-21_08h03.48.970.csv
226,51,,1.0,31.0,2901941401-292798.jpg,2898631468-68931.jpg,3.0,,,,A1STC10BXEP495_2022-09-21_08h03.48.970.csv
227,52,,1.0,32.0,2452380832-348593.jpg,2238328478-11678.jpg,1.0,,,,A1STC10BXEP495_2022-09-21_08h03.48.970.csv
228,53,,1.0,33.0,2883268471-290842.jpg,2883255450-215310.jpg,2.0,,,,A1STC10BXEP495_2022-09-21_08h03.48.970.csv
229,54,,1.0,34.0,2460547508-51571.jpg,2452380166-273109.jpg,1.0,,,,A1STC10BXEP495_2022-09-21_08h03.48.970.csv
230,55,,1.0,35.0,2864907432-362042.jpg,2864901420-212147.jpg,1.0,,,,A1STC10BXEP495_2022-09-21_08h03.48.970.csv
231,56,,1.0,36.0,2592380177-354629.jpg,2579432534-130704.jpg,2.0,,,,A1STC10BXEP495_2022-09-21_08h03.48.970.csv
232,57,,1.0,37.0,2981231403-71642.jpg,2579432519-130698.jpg,1.0,,,,A1STC10BXEP495_2022-09-21_08h03.48.970.csv
233,58,,0.0,38.0,left.jpg,,,left,,,A1STC10BXEP495_2022-09-21_08h03.48.970.csv
234,59,,1.0,39.0,2592379964-131054.jpg,2238479053-19457.jpg,2.0,,,,A1STC10BXEP495_2022-09-21_08h03.48.970.csv
235,60,,1.0,40.0,2452381505-199546.jpg,2898632385-217138.jpg,2.0,,,,A1STC10BXEP495_2022-09-21_08h03.48.970.csv
236,61,,1.0,41.0,2901939379-143480.jpg,2901942428-69919.jpg,1.0,,,,A1STC10BXEP495_2022-09-21_08h03.48.970.csv
237,62,,1.0,42.0,2874307433-66280.jpg,2981231422-369714.jpg,3.0,,,,A1STC10BXEP495_2022-09-21_08h03.48.970.csv
238,63,,1.0,43.0,2238560245-182099.jpg,2238480980-168129.jpg,3.0,,,,A1STC10BXEP495_2022-09-21_08h03.48.970.csv
239,64,,1.0,44.0,2460547467-349421.jpg,2981235446-294901.jpg,3.0,,,,A1STC10BXEP495_2022-09-21_08h03.48.970.csv
240,65,,1.0,45.0,2986451363-73598.jpg,2237857458-1324.jpg,1.0,,,,A1STC10BXEP495_2022-09-21_08h03.48.970.csv
241,66,,1.0,46.0,2898633421-291973.jpg,2238550049-105691.jpg,3.0,,,,A1STC10BXEP495_2022-09-21_08h03.48.970.csv
242,67,,1.0,47.0,2898618444-142233.jpg,2238555262-330312.jpg,2.0,,,,A1STC10BXEP495_2022-09-21_08h03.48.970.csv
243,68,,1.0,48.0,2238480677-317399.jpg,2238480278-19661.jpg,3.0,,,,A1STC10BXEP495_2022-09-21_08h03.48.970.csv
244,69,,0.0,49.0,left.jpg,,,left,,,A1STC10BXEP495_2022-09-21_08h03.48.970.csv
245,70,,1.0,50.0,2898635428-69104.jpg,2446759803-49250.jpg,1.0,,,,A1STC10BXEP495_2022-09-21_08h03.48.970.csv
246,71,,1.0,51.0,2981241414-145842.jpg,2874301404-139813.jpg,2.0,,,,A1STC10BXEP495_2022-09-21_08h03.48.970.csv
247,72,,1.0,52.0,2964218374-144967.jpg,2981231446-294732.jpg,3.0,,,,A1STC10BXEP495_2022-09-21_08h03.48.970.csv
248,73,,1.0,53.0,2874301407-363895.jpg,2986397322-371109.jpg,2.0,,,,A1STC10BXEP495_2022-09-21_08h03.48.970.csv
249,74,,1.0,54.0,2874299429-139694.jpg,2986447306-296584.jpg,1.0,,,,A1STC10BXEP495_2022-09-21_08h03.48.970.csv
250,75,,1.0,55.0,2874303365-214262.jpg,2274829821-263682.jpg,1.0,,,,A1STC10BXEP495_2022-09-21_08h03.48.970.csv
251,76,,1.0,56.0,2898624426-291546.jpg,2981235446-294900.jpg,3.0,,,,A1STC10BXEP495_2022-09-21_08h03.48.970.csv
252,77,,1.0,57.0,2986451363-73599.jpg,2238434559-90406.jpg,3.0,,,,A1STC10BXEP495_2022-09-21_08h03.48.970.csv
253,78,,1.0,58.0,2874302418-65978.jpg,2898633321-291943.jpg,3.0,,,,A1STC10BXEP495_2022-09-21_08h03.48.970.csv
254,79,,1.0,59.0,2575120738-55529.jpg,2575120738-55528.jpg,2.0,,,,A1STC10BXEP495_2022-09-21_08h03.48.970.csv
255,80,,1.0,60.0,2874302418-65979.jpg,2238480648-19714.jpg,2.0,,,,A1STC10BXEP495_2022-09-21_08h03.48.970.csv
256,81,,1.0,61.0,2901947423-70311.jpg,2238573447-333826.jpg,2.0,,,,A1STC10BXEP495_2022-09-21_08h03.48.970.csv
257,82,,1.0,62.0,2864910426-287204.jpg,2901939433-69672.jpg,3.0,,,,A1STC10BXEP495_2022-09-21_08h03.48.970.csv
258,83,,1.0,63.0,2898617468-68274.jpg,2964207374-144577.jpg,3.0,,,,A1STC10BXEP495_2022-09-21_08h03.48.970.csv
259,84,,1.0,64.0,2460547467-349422.jpg,2868487415-213924.jpg,2.0,,,,A1STC10BXEP495_2022-09-21_08h03.48.970.csv
260,20,,1.0,0.0,2446758985-197609.jpg,2864909447-362144.jpg,2.0,,,,AN7Z42U38BCQT_2022-09-21_09h14.53.949.csv
261,21,,1.0,1.0,2460547467-349422.jpg,2864909447-362146.jpg,3.0,,,,AN7Z42U38BCQT_2022-09-21_09h14.53.949.csv
262,22,,1.0,2.0,2874302418-65979.jpg,2237857458-1325.jpg,1.0,,,,AN7Z42U38BCQT_2022-09-21_09h14.53.949.csv
263,23,,1.0,3.0,2868475410-213219.jpg,2238480803-19739.jpg,2.0,,,,AN7Z42U38BCQT_2022-09-21_09h14.53.949.csv
264,24,,1.0,4.0,2964218374-144967.jpg,2446759306-271734.jpg,2.0,,,,AN7Z42U38BCQT_2022-09-21_09h14.53.949.csv
265,25,,1.0,5.0,2901939379-143480.jpg,2981229442-369621.jpg,2.0,,,,AN7Z42U38BCQT_2022-09-21_09h14.53.949.csv
266,26,,0.0,6.0,left.jpg,,,left,,,AN7Z42U38BCQT_2022-09-21_09h14.53.949.csv
267,27,,1.0,7.0,2883256307-365057.jpg,2864904453-63933.jpg,3.0,,,,AN7Z42U38BCQT_2022-09-21_09h14.53.949.csv
268,28,,1.0,8.0,2238560245-182099.jpg,2238480980-168129.jpg,3.0,,,,AN7Z42U38BCQT_2022-09-21_09h14.53.949.csv
269,29,,1.0,9.0,2874303365-214262.jpg,2274829821-263682.jpg,1.0,,,,AN7Z42U38BCQT_2022-09-21_09h14.53.949.csv
270,30,,1.0,10.0,2964216465-219242.jpg,2898619327-366362.jpg,3.0,,,,AN7Z42U38BCQT_2022-09-21_09h14.53.949.csv
271,31,,1.0,11.0,2238572663-35822.jpg,2864903351-286874.jpg,3.0,,,,AN7Z42U38BCQT_2022-09-21_09h14.53.949.csv
272,32,,1.0,12.0,2238425482-313537.jpg,2898633480-217190.jpg,3.0,,,,AN7Z42U38BCQT_2022-09-21_09h14.53.949.csv
273,33,,1.0,13.0,2898635427-367120.jpg,2868479517-363220.jpg,2.0,,,,AN7Z42U38BCQT_2022-09-21_09h14.53.949.csv
274,34,,1.0,14.0,2898635428-69104.jpg,2446759803-49250.jpg,1.0,,,,AN7Z42U38BCQT_2022-09-21_09h14.53.949.csv
275,35,,1.0,15.0,2883268471-290842.jpg,2883255450-215310.jpg,2.0,,,,AN7Z42U38BCQT_2022-09-21_09h14.53.949.csv
276,36,,0.0,16.0,right.jpg,,,right,,,AN7Z42U38BCQT_2022-09-21_09h14.53.949.csv
277,37,,1.0,17.0,2460547508-51571.jpg,2901941438-69835.jpg,3.0,,,,AN7Z42U38BCQT_2022-09-21_09h14.53.949.csv
278,38,,1.0,18.0,2874307433-66280.jpg,2984615358-72439.jpg,1.0,,,,AN7Z42U38BCQT_2022-09-21_09h14.53.949.csv
279,39,,1.0,19.0,2898624426-291546.jpg,2981235446-294900.jpg,3.0,,,,AN7Z42U38BCQT_2022-09-21_09h14.53.949.csv
280,40,,1.0,20.0,2874301407-363895.jpg,2986397322-371109.jpg,2.0,,,,AN7Z42U38BCQT_2022-09-21_09h14.53.949.csv
281,41,,1.0,21.0,2898634397-367080.jpg,2237944827-301472.jpg,1.0,,,,AN7Z42U38BCQT_2022-09-21_09h14.53.949.csv
282,42,,1.0,22.0,2898618444-142233.jpg,2898631359-142721.jpg,1.0,,,,AN7Z42U38BCQT_2022-09-21_09h14.53.949.csv
283,43,,1.0,23.0,2901939379-143479.jpg,2964216376-294181.jpg,3.0,,,,AN7Z42U38BCQT_2022-09-21_09h14.53.949.csv
284,44,,1.0,24.0,2986451363-73598.jpg,2237857458-1324.jpg,1.0,,,,AN7Z42U38BCQT_2022-09-21_09h14.53.949.csv
285,45,,1.0,25.0,2452380832-348593.jpg,2238481813-19930.jpg,2.0,,,,AN7Z42U38BCQT_2022-09-21_09h14.53.949.csv
286,46,,1.0,26.0,2238428357-313623.jpg,2238499057-320266.jpg,1.0,,,,AN7Z42U38BCQT_2022-09-21_09h14.53.949.csv
287,47,,0.0,27.0,left.jpg,,,left,,,AN7Z42U38BCQT_2022-09-21_09h14.53.949.csv
288,48,,1.0,28.0,2238481198-19822.jpg,2862691449-137104.jpg,1.0,,,,AN7Z42U38BCQT_2022-09-21_09h14.53.949.csv
289,49,,1.0,29.0,2981231403-71642.jpg,2427873763-47290.jpg,3.0,,,,AN7Z42U38BCQT_2022-09-21_09h14.53.949.csv
290,50,,1.0,30.0,2901941401-292798.jpg,2981243412-370222.jpg,2.0,,,,AN7Z42U38BCQT_2022-09-21_09h14.53.949.csv
291,51,,1.0,31.0,2238481928-19949.jpg,2883264367-365620.jpg,1.0,,,,AN7Z42U38BCQT_2022-09-21_09h14.53.949.csv
292,52,,1.0,32.0,2883268412-365898.jpg,2984626312-370849.jpg,1.0,,,,AN7Z42U38BCQT_2022-09-21_09h14.53.949.csv
293,53,,1.0,33.0,2238580740-186218.jpg,2238521193-26285.jpg,2.0,,,,AN7Z42U38BCQT_2022-09-21_09h14.53.949.csv
294,54,,1.0,34.0,2898617468-68274.jpg,2901946439-144040.jpg,1.0,,,,AN7Z42U38BCQT_2022-09-21_09h14.53.949.csv
295,55,,1.0,35.0,2592380177-354626.jpg,2238117096-228518.jpg,3.0,,,,AN7Z42U38BCQT_2022-09-21_09h14.53.949.csv
296,56,,1.0,36.0,2986451363-73599.jpg,2898626385-216899.jpg,1.0,,,,AN7Z42U38BCQT_2022-09-21_09h14.53.949.csv
297,57,,1.0,37.0,2874299429-139694.jpg,2981244403-72215.jpg,2.0,,,,AN7Z42U38BCQT_2022-09-21_09h14.53.949.csv
298,58,,1.0,38.0,2575120738-55529.jpg,2864906345-212360.jpg,1.0,,,,AN7Z42U38BCQT_2022-09-21_09h14.53.949.csv
299,59,,0.0,39.0,right.jpg,,,right,,,AN7Z42U38BCQT_2022-09-21_09h14.53.949.csv
300,60,,1.0,40.0,2449442529-124446.jpg,2460547536-274178.jpg,3.0,,,,AN7Z42U38BCQT_2022-09-21_09h14.53.949.csv
301,61,,1.0,41.0,2592379964-131054.jpg,2592380272-354673.jpg,3.0,,,,AN7Z42U38BCQT_2022-09-21_09h14.53.949.csv
302,62,,1.0,42.0,2238480677-317399.jpg,2238480278-19661.jpg,3.0,,,,AN7Z42U38BCQT_2022-09-21_09h14.53.949.csv
303,63,,1.0,43.0,2864910426-287204.jpg,2864902304-137862.jpg,1.0,,,,AN7Z42U38BCQT_2022-09-21_09h14.53.949.csv
304,64,,1.0,44.0,2901947423-70311.jpg,2238573447-333826.jpg,2.0,,,,AN7Z42U38BCQT_2022-09-21_09h14.53.949.csv
305,65,,1.0,45.0,2460547467-349421.jpg,2981235446-294901.jpg,3.0,,,,AN7Z42U38BCQT_2022-09-21_09h14.53.949.csv
306,66,,1.0,46.0,2446759803-49249.jpg,2898618440-216547.jpg,2.0,,,,AN7Z42U38BCQT_2022-09-21_09h14.53.949.csv
307,67,,1.0,47.0,2458347385-199723.jpg,2427874554-121863.jpg,2.0,,,,AN7Z42U38BCQT_2022-09-21_09h14.53.949.csv
308,68,,0.0,48.0,left.jpg,,,left,,,AN7Z42U38BCQT_2022-09-21_09h14.53.949.csv
309,69,,1.0,49.0,2964223381-294447.jpg,2898628438-68785.jpg,3.0,,,,AN7Z42U38BCQT_2022-09-21_09h14.53.949.csv
310,70,,1.0,50.0,2874302418-65978.jpg,2898633321-291943.jpg,3.0,,,,AN7Z42U38BCQT_2022-09-21_09h14.53.949.csv
311,71,,1.0,51.0,2874299429-139695.jpg,2901942443-69923.jpg,2.0,,,,AN7Z42U38BCQT_2022-09-21_09h14.53.949.csv
312,72,,1.0,52.0,2898633421-291973.jpg,2575118671-277663.jpg,2.0,,,,AN7Z42U38BCQT_2022-09-21_09h14.53.949.csv
313,73,,1.0,53.0,2964213381-294060.jpg,2458348012-349114.jpg,2.0,,,,AN7Z42U38BCQT_2022-09-21_09h14.53.949.csv
314,74,,1.0,54.0,2901952513-70703.jpg,2864907361-287062.jpg,1.0,,,,AN7Z42U38BCQT_2022-09-21_09h14.53.949.csv
315,75,,1.0,55.0,2864907432-362042.jpg,2901947423-70310.jpg,2.0,,,,AN7Z42U38BCQT_2022-09-21_09h14.53.949.csv
316,76,,1.0,56.0,2883273443-68193.jpg,2460547508-51572.jpg,2.0,,,,AN7Z42U38BCQT_2022-09-21_09h14.53.949.csv
317,77,,1.0,57.0,2898618390-216538.jpg,2237856148-989.jpg,1.0,,,,AN7Z42U38BCQT_2022-09-21_09h14.53.949.csv
318,78,,1.0,58.0,2964222378-71332.jpg,2981240427-370099.jpg,3.0,,,,AN7Z42U38BCQT_2022-09-21_09h14.53.949.csv
319,79,,1.0,59.0,2452381505-199546.jpg,2994401319-148290.jpg,3.0,,,,AN7Z42U38BCQT_2022-09-21_09h14.53.949.csv
320,80,,1.0,60.0,2868474407-362883.jpg,2901948383-70363.jpg,3.0,,,,AN7Z42U38BCQT_2022-09-21_09h14.53.949.csv
321,81,,1.0,61.0,2981241414-145842.jpg,2874301404-139813.jpg,2.0,,,,AN7Z42U38BCQT_2022-09-21_09h14.53.949.csv
322,82,,1.0,62.0,2449442529-124445.jpg,2452380171-273112.jpg,1.0,,,,AN7Z42U38BCQT_2022-09-21_09h14.53.949.csv
323,83,,1.0,63.0,2592380177-354629.jpg,2898633421-291974.jpg,1.0,,,,AN7Z42U38BCQT_2022-09-21_09h14.53.949.csv
324,84,,1.0,64.0,2512875899-126682.jpg,2460547536-274179.jpg,1.0,,,,AN7Z42U38BCQT_2022-09-21_09h14.53.949.csv
325,20,,1.0,0.0,2238481198-19822.jpg,2238480803-19737.jpg,3.0,,,,A8K19FZIUU2TE_2022-09-21_09h30.55.475.csv
326,21,,1.0,1.0,2238428357-313623.jpg,2986408339-146952.jpg,3.0,,,,A8K19FZIUU2TE_2022-09-21_09h30.55.475.csv
327,22,,1.0,2.0,2238560245-182099.jpg,2238480980-168129.jpg,3.0,,,,A8K19FZIUU2TE_2022-09-21_09h30.55.475.csv
328,23,,1.0,3.0,2901952513-70703.jpg,2864907361-287062.jpg,1.0,,,,A8K19FZIUU2TE_2022-09-21_09h30.55.475.csv
329,24,,1.0,4.0,2964216465-219242.jpg,2238544191-252422.jpg,1.0,,,,A8K19FZIUU2TE_2022-09-21_09h30.55.475.csv
330,25,,1.0,5.0,2901947423-70311.jpg,2238577590-185467.jpg,3.0,,,,A8K19FZIUU2TE_2022-09-21_09h30.55.475.csv
331,26,right,1.0,6.0,right.jpg,,,right,1.092,,A8K19FZIUU2TE_2022-09-21_09h30.55.475.csv
332,27,,1.0,7.0,2898617468-68274.jpg,2901946439-144040.jpg,1.0,,,,A8K19FZIUU2TE_2022-09-21_09h30.55.475.csv
333,28,,1.0,8.0,2986451363-73598.jpg,2901942443-69925.jpg,3.0,,,,A8K19FZIUU2TE_2022-09-21_09h30.55.475.csv
334,29,,1.0,9.0,2874302418-65978.jpg,2964224310-219528.jpg,1.0,,,,A8K19FZIUU2TE_2022-09-21_09h30.55.475.csv
335,30,,1.0,10.0,2452381505-199546.jpg,2901938432-367627.jpg,1.0,,,,A8K19FZIUU2TE_2022-09-21_09h30.55.475.csv
336,31,,1.0,11.0,2592380177-354629.jpg,2579432534-130704.jpg,2.0,,,,A8K19FZIUU2TE_2022-09-21_09h30.55.475.csv
337,32,,1.0,12.0,2238425482-313537.jpg,2238471391-240918.jpg,1.0,,,,A8K19FZIUU2TE_2022-09-21_09h30.55.475.csv
338,33,,1.0,13.0,2446758985-197609.jpg,2898624426-291544.jpg,3.0,,,,A8K19FZIUU2TE_2022-09-21_09h30.55.475.csv
339,34,,1.0,14.0,2449442529-124445.jpg,2898632385-217137.jpg,3.0,,,,A8K19FZIUU2TE_2022-09-21_09h30.55.475.csv
340,35,,1.0,15.0,2460547467-349422.jpg,2868487415-213924.jpg,2.0,,,,A8K19FZIUU2TE_2022-09-21_09h30.55.475.csv
341,36,,1.0,16.0,2592380177-354626.jpg,2864901386-286797.jpg,2.0,,,,A8K19FZIUU2TE_2022-09-21_09h30.55.475.csv
342,37,,1.0,17.0,2874299429-139695.jpg,2901942443-69923.jpg,2.0,,,,A8K19FZIUU2TE_2022-09-21_09h30.55.475.csv
343,38,,1.0,18.0,2901939379-143480.jpg,2901942428-69919.jpg,1.0,,,,A8K19FZIUU2TE_2022-09-21_09h30.55.475.csv
344,39,,1.0,19.0,2898618390-216538.jpg,2575120609-129862.jpg,3.0,,,,A8K19FZIUU2TE_2022-09-21_09h30.55.475.csv
345,40,,1.0,20.0,2898635427-367120.jpg,2898621427-366486.jpg,3.0,,,,A8K19FZIUU2TE_2022-09-21_09h30.55.475.csv
346,41,,1.0,21.0,2868474407-362883.jpg,2981246400-220363.jpg,2.0,,,,A8K19FZIUU2TE_2022-09-21_09h30.55.475.csv
347,42,,1.0,22.0,2883273443-68193.jpg,2898627427-366763.jpg,3.0,,,,A8K19FZIUU2TE_2022-09-21_09h30.55.475.csv
348,43,left,1.0,23.0,left.jpg,,,left,0.5976,,A8K19FZIUU2TE_2022-09-21_09h30.55.475.csv
349,44,,1.0,24.0,2446759803-49249.jpg,2901951392-368654.jpg,3.0,,,,A8K19FZIUU2TE_2022-09-21_09h30.55.475.csv
350,45,,1.0,25.0,2452380832-348593.jpg,2238328478-11678.jpg,1.0,,,,A8K19FZIUU2TE_2022-09-21_09h30.55.475.csv
351,46,,1.0,26.0,2868475410-213219.jpg,2868474407-362885.jpg,3.0,,,,A8K19FZIUU2TE_2022-09-21_09h30.55.475.csv
352,47,right,1.0,27.0,right.jpg,,,right,2.3052,,A8K19FZIUU2TE_2022-09-21_09h30.55.475.csv
353,48,,1.0,28.0,2874302418-65979.jpg,2237857458-1325.jpg,1.0,,,,A8K19FZIUU2TE_2022-09-21_09h30.55.475.csv
354,49,,1.0,29.0,2460547467-349421.jpg,2898631394-142727.jpg,1.0,,,,A8K19FZIUU2TE_2022-09-21_09h30.55.475.csv
355,50,,1.0,30.0,2238572663-35822.jpg,2238584894-113161.jpg,1.0,,,,A8K19FZIUU2TE_2022-09-21_09h30.55.475.csv
356,51,,1.0,31.0,2898635428-69104.jpg,2898625336-291572.jpg,3.0,,,,A8K19FZIUU2TE_2022-09-21_09h30.55.475.csv
357,52,,1.0,32.0,2864910426-287204.jpg,2883268412-365899.jpg,2.0,,,,A8K19FZIUU2TE_2022-09-21_09h30.55.475.csv
358,53,,1.0,33.0,2864907432-362042.jpg,2901947423-70310.jpg,2.0,,,,A8K19FZIUU2TE_2022-09-21_09h30.55.475.csv
359,54,,1.0,34.0,2238480677-317399.jpg,2238480278-19661.jpg,3.0,,,,A8K19FZIUU2TE_2022-09-21_09h30.55.475.csv
360,55,,1.0,35.0,2898634397-367080.jpg,2237944827-301472.jpg,1.0,,,,A8K19FZIUU2TE_2022-09-21_09h30.55.475.csv
361,56,right,1.0,36.0,right.jpg,,,right,0.6425,,A8K19FZIUU2TE_2022-09-21_09h30.55.475.csv
362,57,,1.0,37.0,2981231403-71642.jpg,2874305405-214397.jpg,2.0,,,,A8K19FZIUU2TE_2022-09-21_09h30.55.475.csv
363,58,,1.0,38.0,2898624426-291546.jpg,2981235446-294900.jpg,3.0,,,,A8K19FZIUU2TE_2022-09-21_09h30.55.475.csv
364,59,,1.0,39.0,2874299429-139694.jpg,2981244403-72215.jpg,2.0,,,,A8K19FZIUU2TE_2022-09-21_09h30.55.475.csv
365,60,,1.0,40.0,2964218374-144967.jpg,2981231446-294732.jpg,3.0,,,,A8K19FZIUU2TE_2022-09-21_09h30.55.475.csv
366,61,,1.0,41.0,2898618444-142233.jpg,2238555262-330312.jpg,2.0,,,,A8K19FZIUU2TE_2022-09-21_09h30.55.475.csv
367,62,,1.0,42.0,2898633421-291973.jpg,2512876023-52283.jpg,1.0,,,,A8K19FZIUU2TE_2022-09-21_09h30.55.475.csv
368,63,,1.0,43.0,2964222378-71332.jpg,2981240424-145794.jpg,1.0,,,,A8K19FZIUU2TE_2022-09-21_09h30.55.475.csv
369,64,,1.0,44.0,2238481928-19949.jpg,2883264367-365620.jpg,1.0,,,,A8K19FZIUU2TE_2022-09-21_09h30.55.475.csv
370,65,,1.0,45.0,2449442529-124446.jpg,2460547536-274181.jpg,2.0,,,,A8K19FZIUU2TE_2022-09-21_09h30.55.475.csv
371,66,left,1.0,46.0,left.jpg,,,left,0.668,,A8K19FZIUU2TE_2022-09-21_09h30.55.475.csv
372,67,,1.0,47.0,2874301407-363895.jpg,2986397322-371109.jpg,2.0,,,,A8K19FZIUU2TE_2022-09-21_09h30.55.475.csv
373,68,,1.0,48.0,2883268471-290842.jpg,2883268471-290843.jpg,1.0,,,,A8K19FZIUU2TE_2022-09-21_09h30.55.475.csv
374,69,,1.0,49.0,2964223381-294447.jpg,2898628438-68785.jpg,3.0,,,,A8K19FZIUU2TE_2022-09-21_09h30.55.475.csv
375,70,,1.0,50.0,2512875899-126682.jpg,2592380177-354628.jpg,2.0,,,,A8K19FZIUU2TE_2022-09-21_09h30.55.475.csv
376,71,,1.0,51.0,2458347385-199723.jpg,2427874554-121863.jpg,2.0,,,,A8K19FZIUU2TE_2022-09-21_09h30.55.475.csv
377,72,,1.0,52.0,2238580740-186218.jpg,2238550816-254000.jpg,1.0,,,,A8K19FZIUU2TE_2022-09-21_09h30.55.475.csv
378,73,,1.0,53.0,2883256307-365057.jpg,2964210336-293945.jpg,2.0,,,,A8K19FZIUU2TE_2022-09-21_09h30.55.475.csv
379,74,,1.0,54.0,2592379964-131054.jpg,2592380272-354673.jpg,3.0,,,,A8K19FZIUU2TE_2022-09-21_09h30.55.475.csv
380,75,,1.0,55.0,2986451363-73599.jpg,2898626385-216899.jpg,1.0,,,,A8K19FZIUU2TE_2022-09-21_09h30.55.475.csv
381,76,,1.0,56.0,2874307433-66280.jpg,2981246400-220365.jpg,2.0,,,,A8K19FZIUU2TE_2022-09-21_09h30.55.475.csv
382,77,,1.0,57.0,2964213381-294060.jpg,2981244394-145974.jpg,1.0,,,,A8K19FZIUU2TE_2022-09-21_09h30.55.475.csv
383,78,,1.0,58.0,2874303365-214262.jpg,2238563377-332054.jpg,2.0,,,,A8K19FZIUU2TE_2022-09-21_09h30.55.475.csv
384,79,,1.0,59.0,2901939379-143479.jpg,2964216376-294181.jpg,3.0,,,,A8K19FZIUU2TE_2022-09-21_09h30.55.475.csv
385,80,,1.0,60.0,2901941401-292798.jpg,2981243412-370222.jpg,2.0,,,,A8K19FZIUU2TE_2022-09-21_09h30.55.475.csv
386,81,,1.0,61.0,2883268412-365898.jpg,2984615361-295510.jpg,2.0,,,,A8K19FZIUU2TE_2022-09-21_09h30.55.475.csv
387,82,,1.0,62.0,2575120738-55529.jpg,2238531493-28260.jpg,3.0,,,,A8K19FZIUU2TE_2022-09-21_09h30.55.475.csv
388,83,,1.0,63.0,2460547508-51571.jpg,2452380166-273109.jpg,1.0,,,,A8K19FZIUU2TE_2022-09-21_09h30.55.475.csv
389,84,,1.0,64.0,2981241414-145842.jpg,2874301404-139813.jpg,2.0,,,,A8K19FZIUU2TE_2022-09-21_09h30.55.475.csv
390,20,,1.0,0.0,2460547467-349421.jpg,2452380166-273110.jpg,2.0,,,,A19FW6H7BGKRVT_2022-09-21_09h04.36.524.csv
391,21,,1.0,1.0,2449442529-124445.jpg,2986408373-73286.jpg,2.0,,,,A19FW6H7BGKRVT_2022-09-21_09h04.36.524.csv
392,22,,1.0,2.0,2238560245-182099.jpg,2592380255-205553.jpg,1.0,,,,A19FW6H7BGKRVT_2022-09-21_09h04.36.524.csv
393,23,,1.0,3.0,2874303365-214262.jpg,2864911457-362260.jpg,3.0,,,,A19FW6H7BGKRVT_2022-09-21_09h04.36.524.csv
394,24,,1.0,4.0,2874302418-65979.jpg,2237857458-1325.jpg,1.0,,,,A19FW6H7BGKRVT_2022-09-21_09h04.36.524.csv
395,25,,1.0,5.0,2238428357-313623.jpg,2986408339-146952.jpg,3.0,,,,A19FW6H7BGKRVT_2022-09-21_09h04.36.524.csv
396,26,,1.0,6.0,2238425482-313537.jpg,2238436322-314047.jpg,2.0,,,,A19FW6H7BGKRVT_2022-09-21_09h04.36.524.csv
397,27,,1.0,7.0,2575120738-55529.jpg,2864906345-212360.jpg,1.0,,,,A19FW6H7BGKRVT_2022-09-21_09h04.36.524.csv
398,28,,1.0,8.0,2981231403-71642.jpg,2579432519-130698.jpg,1.0,,,,A19FW6H7BGKRVT_2022-09-21_09h04.36.524.csv
399,29,,1.0,9.0,2964222378-71332.jpg,2901933382-367209.jpg,2.0,,,,A19FW6H7BGKRVT_2022-09-21_09h04.36.524.csv
400,30,left,0.0,10.0,right.jpg,,,right,0.0079,,A19FW6H7BGKRVT_2022-09-21_09h04.36.524.csv
401,31,,1.0,11.0,2864907432-362042.jpg,2901947423-70310.jpg,2.0,,,,A19FW6H7BGKRVT_2022-09-21_09h04.36.524.csv
402,32,,1.0,12.0,2898635428-69104.jpg,2901943411-292945.jpg,2.0,,,,A19FW6H7BGKRVT_2022-09-21_09h04.36.524.csv
403,33,,1.0,13.0,2898624426-291546.jpg,2981235446-294900.jpg,3.0,,,,A19FW6H7BGKRVT_2022-09-21_09h04.36.524.csv
404,34,,1.0,14.0,2986451363-73599.jpg,2238434559-90406.jpg,3.0,,,,A19FW6H7BGKRVT_2022-09-21_09h04.36.524.csv
405,35,,1.0,15.0,2898633421-291973.jpg,2238550049-105691.jpg,3.0,,,,A19FW6H7BGKRVT_2022-09-21_09h04.36.524.csv
406,36,,1.0,16.0,2874299429-139695.jpg,2901942443-69923.jpg,2.0,,,,A19FW6H7BGKRVT_2022-09-21_09h04.36.524.csv
407,37,,1.0,17.0,2592380177-354626.jpg,2864901386-286797.jpg,2.0,,,,A19FW6H7BGKRVT_2022-09-21_09h04.36.524.csv
408,38,,1.0,18.0,2883256307-365057.jpg,2611628310-206388.jpg,1.0,,,,A19FW6H7BGKRVT_2022-09-21_09h04.36.524.csv
409,39,,1.0,19.0,2452381505-199546.jpg,2898632385-217138.jpg,2.0,,,,A19FW6H7BGKRVT_2022-09-21_09h04.36.524.csv
410,40,,1.0,20.0,2898617468-68274.jpg,2964207374-144577.jpg,3.0,,,,A19FW6H7BGKRVT_2022-09-21_09h04.36.524.csv
411,41,,1.0,21.0,2874302418-65978.jpg,2238481198-19823.jpg,2.0,,,,A19FW6H7BGKRVT_2022-09-21_09h04.36.524.csv
412,42,,1.0,22.0,2238480677-317399.jpg,2238573546-258454.jpg,2.0,,,,A19FW6H7BGKRVT_2022-09-21_09h04.36.524.csv
413,43,left,1.0,23.0,left.jpg,,,left,1.804299999,,A19FW6H7BGKRVT_2022-09-21_09h04.36.524.csv
414,44,,1.0,24.0,2901947423-70311.jpg,2860312398-62572.jpg,1.0,,,,A19FW6H7BGKRVT_2022-09-21_09h04.36.524.csv
415,45,,1.0,25.0,2592380177-354629.jpg,2579432534-130704.jpg,2.0,,,,A19FW6H7BGKRVT_2022-09-21_09h04.36.524.csv
416,46,,1.0,26.0,2446759803-49249.jpg,2898618440-216547.jpg,2.0,,,,A19FW6H7BGKRVT_2022-09-21_09h04.36.524.csv
417,47,,1.0,27.0,2592379964-131054.jpg,2575963989-130576.jpg,1.0,,,,A19FW6H7BGKRVT_2022-09-21_09h04.36.524.csv
418,48,,1.0,28.0,2446758985-197609.jpg,2981240424-145795.jpg,1.0,,,,A19FW6H7BGKRVT_2022-09-21_09h04.36.524.csv
419,49,,1.0,29.0,2868475410-213219.jpg,2868474407-362885.jpg,3.0,,,,A19FW6H7BGKRVT_2022-09-21_09h04.36.524.csv
420,50,left,1.0,30.0,left.jpg,,,left,1.4675,,A19FW6H7BGKRVT_2022-09-21_09h04.36.524.csv
421,51,,1.0,31.0,2512875899-126682.jpg,2986447332-371497.jpg,3.0,,,,A19FW6H7BGKRVT_2022-09-21_09h04.36.524.csv
422,52,,1.0,32.0,2458347385-199723.jpg,2238480434-93829.jpg,1.0,,,,A19FW6H7BGKRVT_2022-09-21_09h04.36.524.csv
423,53,,1.0,33.0,2460547508-51571.jpg,2452380166-273109.jpg,1.0,,,,A19FW6H7BGKRVT_2022-09-21_09h04.36.524.csv
424,54,,1.0,34.0,2964223381-294447.jpg,2901941438-69836.jpg,2.0,,,,A19FW6H7BGKRVT_2022-09-21_09h04.36.524.csv
425,55,,1.0,35.0,2901939379-143480.jpg,2898632385-217139.jpg,3.0,,,,A19FW6H7BGKRVT_2022-09-21_09h04.36.524.csv
426,56,,1.0,36.0,2452380832-348593.jpg,2238328478-11678.jpg,1.0,,,,A19FW6H7BGKRVT_2022-09-21_09h04.36.524.csv
427,57,,1.0,37.0,2874301407-363895.jpg,2446761374-124213.jpg,1.0,,,,A19FW6H7BGKRVT_2022-09-21_09h04.36.524.csv
428,58,,1.0,38.0,2238572663-35822.jpg,2238571930-184143.jpg,2.0,,,,A19FW6H7BGKRVT_2022-09-21_09h04.36.524.csv
429,59,,1.0,39.0,2898618390-216538.jpg,2575120609-129862.jpg,3.0,,,,A19FW6H7BGKRVT_2022-09-21_09h04.36.524.csv
430,60,,1.0,40.0,2449442529-124446.jpg,2446759803-49251.jpg,1.0,,,,A19FW6H7BGKRVT_2022-09-21_09h04.36.524.csv
431,61,,1.0,41.0,2460547467-349422.jpg,2898618440-216545.jpg,1.0,,,,A19FW6H7BGKRVT_2022-09-21_09h04.36.524.csv
432,62,,1.0,42.0,2964216465-219242.jpg,2898619327-366362.jpg,3.0,,,,A19FW6H7BGKRVT_2022-09-21_09h04.36.524.csv
433,63,,1.0,43.0,2883268412-365898.jpg,2984615361-295510.jpg,2.0,,,,A19FW6H7BGKRVT_2022-09-21_09h04.36.524.csv
434,64,,0.0,44.0,right.jpg,,,right,,,A19FW6H7BGKRVT_2022-09-21_09h04.36.524.csv
435,65,,1.0,45.0,2238580740-186218.jpg,2964220333-71258.jpg,3.0,,,,A19FW6H7BGKRVT_2022-09-21_09h04.36.524.csv
436,66,,1.0,46.0,2238481198-19822.jpg,2901946436-293242.jpg,2.0,,,,A19FW6H7BGKRVT_2022-09-21_09h04.36.524.csv
437,67,,1.0,47.0,2874307433-66280.jpg,2984615358-72439.jpg,1.0,,,,A19FW6H7BGKRVT_2022-09-21_09h04.36.524.csv
438,68,,1.0,48.0,2883273443-68193.jpg,2898627427-366763.jpg,3.0,,,,A19FW6H7BGKRVT_2022-09-21_09h04.36.524.csv
439,69,,1.0,49.0,2864910426-287204.jpg,2901939433-69672.jpg,3.0,,,,A19FW6H7BGKRVT_2022-09-21_09h04.36.524.csv
440,70,,1.0,50.0,2868474407-362883.jpg,2981246400-220363.jpg,2.0,,,,A19FW6H7BGKRVT_2022-09-21_09h04.36.524.csv
441,71,,1.0,51.0,2981241414-145842.jpg,2427873848-47312.jpg,3.0,,,,A19FW6H7BGKRVT_2022-09-21_09h04.36.524.csv
442,72,,1.0,52.0,2901939379-143479.jpg,2460547467-349423.jpg,1.0,,,,A19FW6H7BGKRVT_2022-09-21_09h04.36.524.csv
443,73,,1.0,53.0,2964213381-294060.jpg,2964213381-294061.jpg,3.0,,,,A19FW6H7BGKRVT_2022-09-21_09h04.36.524.csv
444,74,right,0.0,54.0,left.jpg,,,left,0.328599999,,A19FW6H7BGKRVT_2022-09-21_09h04.36.524.csv
445,75,,1.0,55.0,2898635427-367120.jpg,2868479517-363220.jpg,2.0,,,,A19FW6H7BGKRVT_2022-09-21_09h04.36.524.csv
446,76,,1.0,56.0,2901941401-292798.jpg,2898631468-68931.jpg,3.0,,,,A19FW6H7BGKRVT_2022-09-21_09h04.36.524.csv
447,77,,1.0,57.0,2874299429-139694.jpg,2986447306-296584.jpg,1.0,,,,A19FW6H7BGKRVT_2022-09-21_09h04.36.524.csv
448,78,,1.0,58.0,2238481928-19949.jpg,2883264367-365620.jpg,1.0,,,,A19FW6H7BGKRVT_2022-09-21_09h04.36.524.csv
449,79,,1.0,59.0,2898634397-367080.jpg,2964217461-294238.jpg,3.0,,,,A19FW6H7BGKRVT_2022-09-21_09h04.36.524.csv
450,80,,1.0,60.0,2964218374-144967.jpg,2981231446-294732.jpg,3.0,,,,A19FW6H7BGKRVT_2022-09-21_09h04.36.524.csv
451,81,,1.0,61.0,2901952513-70703.jpg,2868469411-287540.jpg,2.0,,,,A19FW6H7BGKRVT_2022-09-21_09h04.36.524.csv
452,82,,1.0,62.0,2898618444-142233.jpg,2898631359-142721.jpg,1.0,,,,A19FW6H7BGKRVT_2022-09-21_09h04.36.524.csv
453,83,,1.0,63.0,2883268471-290842.jpg,2883268471-290843.jpg,1.0,,,,A19FW6H7BGKRVT_2022-09-21_09h04.36.524.csv
454,84,,1.0,64.0,2986451363-73598.jpg,2901942443-69925.jpg,3.0,,,,A19FW6H7BGKRVT_2022-09-21_09h04.36.524.csv
455,20,,1.0,0.0,2898618444-142233.jpg,2898631359-142721.jpg,1.0,,,,ACR6012D868PP_2022-09-21_09h10.03.692.csv
456,21,,1.0,1.0,2868475410-213219.jpg,2238480803-19739.jpg,2.0,,,,ACR6012D868PP_2022-09-21_09h10.03.692.csv
457,22,,1.0,2.0,2898618390-216538.jpg,2901939327-367670.jpg,2.0,,,,ACR6012D868PP_2022-09-21_09h10.03.692.csv
458,23,,1.0,3.0,2592379964-131054.jpg,2592380272-354673.jpg,3.0,,,,ACR6012D868PP_2022-09-21_09h10.03.692.csv
459,24,,1.0,4.0,2981231403-71642.jpg,2427873763-47290.jpg,3.0,,,,ACR6012D868PP_2022-09-21_09h10.03.692.csv
460,25,,1.0,5.0,2901941401-292798.jpg,2981243412-370222.jpg,2.0,,,,ACR6012D868PP_2022-09-21_09h10.03.692.csv
461,26,,1.0,6.0,2449442529-124446.jpg,2446759803-49251.jpg,1.0,,,,ACR6012D868PP_2022-09-21_09h10.03.692.csv
462,27,,1.0,7.0,2964213381-294060.jpg,2981244394-145974.jpg,1.0,,,,ACR6012D868PP_2022-09-21_09h10.03.692.csv
463,28,,0.0,8.0,right.jpg,,,right,,,ACR6012D868PP_2022-09-21_09h10.03.692.csv
464,29,,1.0,9.0,2874301407-363895.jpg,2446761374-124213.jpg,1.0,,,,ACR6012D868PP_2022-09-21_09h10.03.692.csv
465,30,,1.0,10.0,2874303365-214262.jpg,2238563377-332054.jpg,2.0,,,,ACR6012D868PP_2022-09-21_09h10.03.692.csv
466,31,,1.0,11.0,2964216465-219242.jpg,2238544191-252422.jpg,1.0,,,,ACR6012D868PP_2022-09-21_09h10.03.692.csv
467,32,,1.0,12.0,2964223381-294447.jpg,2901941438-69836.jpg,2.0,,,,ACR6012D868PP_2022-09-21_09h10.03.692.csv
468,33,,1.0,13.0,2238572663-35822.jpg,2238571930-184143.jpg,2.0,,,,ACR6012D868PP_2022-09-21_09h10.03.692.csv
469,34,,1.0,14.0,2964222378-71332.jpg,2981240427-370099.jpg,3.0,,,,ACR6012D868PP_2022-09-21_09h10.03.692.csv
470,35,,1.0,15.0,2883256307-365057.jpg,2864904453-63933.jpg,3.0,,,,ACR6012D868PP_2022-09-21_09h10.03.692.csv
471,36,,1.0,16.0,2238580740-186218.jpg,2238521193-26285.jpg,2.0,,,,ACR6012D868PP_2022-09-21_09h10.03.692.csv
472,37,,1.0,17.0,2874302418-65978.jpg,2964224310-219528.jpg,1.0,,,,ACR6012D868PP_2022-09-21_09h10.03.692.csv
473,38,,1.0,18.0,2460547467-349421.jpg,2452380166-273110.jpg,2.0,,,,ACR6012D868PP_2022-09-21_09h10.03.692.csv
474,39,,1.0,19.0,2883268471-290842.jpg,2901947448-70314.jpg,3.0,,,,ACR6012D868PP_2022-09-21_09h10.03.692.csv
475,40,,1.0,20.0,2898635428-69104.jpg,2898625336-291572.jpg,3.0,,,,ACR6012D868PP_2022-09-21_09h10.03.692.csv
476,41,,1.0,21.0,2874299429-139695.jpg,2446760917-347439.jpg,3.0,,,,ACR6012D868PP_2022-09-21_09h10.03.692.csv
477,42,,0.0,22.0,right.jpg,,,right,,,ACR6012D868PP_2022-09-21_09h10.03.692.csv
478,43,,1.0,23.0,2238425482-313537.jpg,2238436322-314047.jpg,2.0,,,,ACR6012D868PP_2022-09-21_09h10.03.692.csv
479,44,,1.0,24.0,2575120738-55529.jpg,2864906345-212360.jpg,1.0,,,,ACR6012D868PP_2022-09-21_09h10.03.692.csv
480,45,,1.0,25.0,2592380177-354626.jpg,2238576792-334659.jpg,1.0,,,,ACR6012D868PP_2022-09-21_09h10.03.692.csv
481,46,,1.0,26.0,2460547467-349422.jpg,2868487415-213924.jpg,2.0,,,,ACR6012D868PP_2022-09-21_09h10.03.692.csv
482,47,,1.0,27.0,2964218374-144967.jpg,2964218374-144968.jpg,1.0,,,,ACR6012D868PP_2022-09-21_09h10.03.692.csv
483,48,,1.0,28.0,2864907432-362042.jpg,2989726338-74002.jpg,3.0,,,,ACR6012D868PP_2022-09-21_09h10.03.692.csv
484,49,,1.0,29.0,2874299429-139694.jpg,2883266367-365742.jpg,3.0,,,,ACR6012D868PP_2022-09-21_09h10.03.692.csv
485,50,,0.0,30.0,right.jpg,,,right,,,ACR6012D868PP_2022-09-21_09h10.03.692.csv
486,51,,1.0,31.0,2458347385-199723.jpg,2458347252-348911.jpg,3.0,,,,ACR6012D868PP_2022-09-21_09h10.03.692.csv
487,52,,1.0,32.0,2981241414-145842.jpg,2238516618-25604.jpg,1.0,,,,ACR6012D868PP_2022-09-21_09h10.03.692.csv
488,53,,1.0,33.0,2512875899-126682.jpg,2592380177-354628.jpg,2.0,,,,ACR6012D868PP_2022-09-21_09h10.03.692.csv
489,54,,1.0,34.0,2901939379-143479.jpg,2964216376-294181.jpg,3.0,,,,ACR6012D868PP_2022-09-21_09h10.03.692.csv
490,55,,1.0,35.0,2883268412-365898.jpg,2984615361-295510.jpg,2.0,,,,ACR6012D868PP_2022-09-21_09h10.03.692.csv
491,56,,1.0,36.0,2901947423-70311.jpg,2860312398-62572.jpg,1.0,,,,ACR6012D868PP_2022-09-21_09h10.03.692.csv
492,57,,1.0,37.0,2986451363-73598.jpg,2901942443-69925.jpg,3.0,,,,ACR6012D868PP_2022-09-21_09h10.03.692.csv
493,58,,1.0,38.0,2901952513-70703.jpg,2238481198-19821.jpg,3.0,,,,ACR6012D868PP_2022-09-21_09h10.03.692.csv
494,59,,1.0,39.0,2449442529-124445.jpg,2452380171-273112.jpg,1.0,,,,ACR6012D868PP_2022-09-21_09h10.03.692.csv
495,60,,1.0,40.0,2898633421-291973.jpg,2575118671-277663.jpg,2.0,,,,ACR6012D868PP_2022-09-21_09h10.03.692.csv
496,61,,1.0,41.0,2898635427-367120.jpg,2964221435-219434.jpg,1.0,,,,ACR6012D868PP_2022-09-21_09h10.03.692.csv
497,62,,1.0,42.0,2238481928-19949.jpg,2864900357-361688.jpg,2.0,,,,ACR6012D868PP_2022-09-21_09h10.03.692.csv
498,63,,0.0,43.0,right.jpg,,,right,,,ACR6012D868PP_2022-09-21_09h10.03.692.csv
499,64,,1.0,44.0,2452380832-348593.jpg,2238328478-11678.jpg,1.0,,,,ACR6012D868PP_2022-09-21_09h10.03.692.csv
500,65,,1.0,45.0,2898624426-291546.jpg,2981235446-294900.jpg,3.0,,,,ACR6012D868PP_2022-09-21_09h10.03.692.csv
501,66,,0.0,46.0,left.jpg,,,left,,,ACR6012D868PP_2022-09-21_09h10.03.692.csv
502,67,,1.0,47.0,2592380177-354629.jpg,2579432534-130704.jpg,2.0,,,,ACR6012D868PP_2022-09-21_09h10.03.692.csv
503,68,,1.0,48.0,2238560245-182099.jpg,2592380255-205553.jpg,1.0,,,,ACR6012D868PP_2022-09-21_09h10.03.692.csv
504,69,,1.0,49.0,2460547508-51571.jpg,2901941438-69835.jpg,3.0,,,,ACR6012D868PP_2022-09-21_09h10.03.692.csv
505,70,,1.0,50.0,2898617468-68274.jpg,2964207374-144577.jpg,3.0,,,,ACR6012D868PP_2022-09-21_09h10.03.692.csv
506,71,,1.0,51.0,2986451363-73599.jpg,2898626385-216899.jpg,1.0,,,,ACR6012D868PP_2022-09-21_09h10.03.692.csv
507,72,,1.0,52.0,2874302418-65979.jpg,2237857458-1325.jpg,1.0,,,,ACR6012D868PP_2022-09-21_09h10.03.692.csv
508,73,,1.0,53.0,2874307433-66280.jpg,2981246400-220365.jpg,2.0,,,,ACR6012D868PP_2022-09-21_09h10.03.692.csv
509,74,,1.0,54.0,2446758985-197609.jpg,2864909447-362144.jpg,2.0,,,,ACR6012D868PP_2022-09-21_09h10.03.692.csv
510,75,,1.0,55.0,2238480677-317399.jpg,2238480278-19661.jpg,3.0,,,,ACR6012D868PP_2022-09-21_09h10.03.692.csv
511,76,,1.0,56.0,2452381505-199546.jpg,2901938432-367627.jpg,1.0,,,,ACR6012D868PP_2022-09-21_09h10.03.692.csv
512,77,,1.0,57.0,2898634397-367080.jpg,2964217461-294238.jpg,3.0,,,,ACR6012D868PP_2022-09-21_09h10.03.692.csv
513,78,,1.0,58.0,2864910426-287204.jpg,2901939433-69672.jpg,3.0,,,,ACR6012D868PP_2022-09-21_09h10.03.692.csv
514,79,,1.0,59.0,2868474407-362883.jpg,2981246400-220363.jpg,2.0,,,,ACR6012D868PP_2022-09-21_09h10.03.692.csv
515,80,,1.0,60.0,2883273443-68193.jpg,2883254439-140940.jpg,1.0,,,,ACR6012D868PP_2022-09-21_09h10.03.692.csv
516,81,,1.0,61.0,2238481198-19822.jpg,2901946436-293242.jpg,2.0,,,,ACR6012D868PP_2022-09-21_09h10.03.692.csv
517,82,,1.0,62.0,2446759803-49249.jpg,2901951392-368654.jpg,3.0,,,,ACR6012D868PP_2022-09-21_09h10.03.692.csv
518,83,,1.0,63.0,2901939379-143480.jpg,2901942428-69919.jpg,1.0,,,,ACR6012D868PP_2022-09-21_09h10.03.692.csv
519,84,,1.0,64.0,2238428357-313623.jpg,2984615361-295509.jpg,2.0,,,,ACR6012D868PP_2022-09-21_09h10.03.692.csv
520,20,,1.0,0.0,2874302418-65979.jpg,2238480648-19714.jpg,2.0,,,,A2U5OFMW8H30PC_2022-09-21_09h03.15.065.csv
521,21,,1.0,1.0,2446758985-197609.jpg,2981240424-145795.jpg,1.0,,,,A2U5OFMW8H30PC_2022-09-21_09h03.15.065.csv
522,22,,1.0,2.0,2898624426-291546.jpg,2964218432-369263.jpg,1.0,,,,A2U5OFMW8H30PC_2022-09-21_09h03.15.065.csv
523,23,,1.0,3.0,2901941401-292798.jpg,2898618327-366317.jpg,1.0,,,,A2U5OFMW8H30PC_2022-09-21_09h03.15.065.csv
524,24,,1.0,4.0,2901939379-143480.jpg,2898632385-217139.jpg,3.0,,,,A2U5OFMW8H30PC_2022-09-21_09h03.15.065.csv
525,25,,1.0,5.0,2868475410-213219.jpg,2901946465-218350.jpg,1.0,,,,A2U5OFMW8H30PC_2022-09-21_09h03.15.065.csv
526,26,,1.0,6.0,2460547467-349422.jpg,2868487415-213924.jpg,2.0,,,,A2U5OFMW8H30PC_2022-09-21_09h03.15.065.csv
527,27,,1.0,7.0,2458347385-199723.jpg,2427874554-121863.jpg,2.0,,,,A2U5OFMW8H30PC_2022-09-21_09h03.15.065.csv
528,28,,1.0,8.0,2874302418-65978.jpg,2898633321-291943.jpg,3.0,,,,A2U5OFMW8H30PC_2022-09-21_09h03.15.065.csv
529,29,,1.0,9.0,2898618444-142233.jpg,2898631359-142721.jpg,1.0,,,,A2U5OFMW8H30PC_2022-09-21_09h03.15.065.csv
530,30,,1.0,10.0,2901939379-143479.jpg,2460547467-349423.jpg,1.0,,,,A2U5OFMW8H30PC_2022-09-21_09h03.15.065.csv
531,31,,1.0,11.0,2898634397-367080.jpg,2901934408-69289.jpg,2.0,,,,A2U5OFMW8H30PC_2022-09-21_09h03.15.065.csv
532,32,,1.0,12.0,2238572663-35822.jpg,2238584894-113161.jpg,1.0,,,,A2U5OFMW8H30PC_2022-09-21_09h03.15.065.csv
533,33,,1.0,13.0,2238428357-313623.jpg,2238499057-320266.jpg,1.0,,,,A2U5OFMW8H30PC_2022-09-21_09h03.15.065.csv
534,34,right,1.0,14.0,right.jpg,,,right,1.1457,,A2U5OFMW8H30PC_2022-09-21_09h03.15.065.csv
535,35,,1.0,15.0,2446759803-49249.jpg,2446760601-272099.jpg,1.0,,,,A2U5OFMW8H30PC_2022-09-21_09h03.15.065.csv
536,36,,1.0,16.0,2864907432-362042.jpg,2864901420-212147.jpg,1.0,,,,A2U5OFMW8H30PC_2022-09-21_09h03.15.065.csv
537,37,,1.0,17.0,2449442529-124445.jpg,2986408373-73286.jpg,2.0,,,,A2U5OFMW8H30PC_2022-09-21_09h03.15.065.csv
538,38,,1.0,18.0,2592379964-131054.jpg,2575963989-130576.jpg,1.0,,,,A2U5OFMW8H30PC_2022-09-21_09h03.15.065.csv
539,39,,1.0,19.0,2460547467-349421.jpg,2452380166-273110.jpg,2.0,,,,A2U5OFMW8H30PC_2022-09-21_09h03.15.065.csv
540,40,,1.0,20.0,2592380177-354626.jpg,2238576792-334659.jpg,1.0,,,,A2U5OFMW8H30PC_2022-09-21_09h03.15.065.csv
541,41,,1.0,21.0,2981241414-145842.jpg,2427873848-47312.jpg,3.0,,,,A2U5OFMW8H30PC_2022-09-21_09h03.15.065.csv
542,42,right,1.0,22.0,right.jpg,,,right,1.0636,,A2U5OFMW8H30PC_2022-09-21_09h03.15.065.csv
543,43,,1.0,23.0,2452381505-199546.jpg,2994401319-148290.jpg,3.0,,,,A2U5OFMW8H30PC_2022-09-21_09h03.15.065.csv
544,44,,1.0,24.0,2238480677-317399.jpg,2238481630-168218.jpg,1.0,,,,A2U5OFMW8H30PC_2022-09-21_09h03.15.065.csv
545,45,,1.0,25.0,2874307433-66280.jpg,2981246400-220365.jpg,2.0,,,,A2U5OFMW8H30PC_2022-09-21_09h03.15.065.csv
546,46,,1.0,26.0,2964218374-144967.jpg,2446759306-271734.jpg,2.0,,,,A2U5OFMW8H30PC_2022-09-21_09h03.15.065.csv
547,47,,1.0,27.0,2898635428-69104.jpg,2446759803-49250.jpg,1.0,,,,A2U5OFMW8H30PC_2022-09-21_09h03.15.065.csv
548,48,left,1.0,28.0,left.jpg,,,left,1.0276,,A2U5OFMW8H30PC_2022-09-21_09h03.15.065.csv
549,49,,1.0,29.0,2883268471-290842.jpg,2883268471-290843.jpg,1.0,,,,A2U5OFMW8H30PC_2022-09-21_09h03.15.065.csv
550,50,,1.0,30.0,2883256307-365057.jpg,2864904453-63933.jpg,3.0,,,,A2U5OFMW8H30PC_2022-09-21_09h03.15.065.csv
551,51,,1.0,31.0,2964216465-219242.jpg,2864900319-137787.jpg,2.0,,,,A2U5OFMW8H30PC_2022-09-21_09h03.15.065.csv
552,52,,1.0,32.0,2964223381-294447.jpg,2901941438-69836.jpg,2.0,,,,A2U5OFMW8H30PC_2022-09-21_09h03.15.065.csv
553,53,,1.0,33.0,2874299429-139694.jpg,2981244403-72215.jpg,2.0,,,,A2U5OFMW8H30PC_2022-09-21_09h03.15.065.csv
554,54,,1.0,34.0,2898633421-291973.jpg,2575118671-277663.jpg,2.0,,,,A2U5OFMW8H30PC_2022-09-21_09h03.15.065.csv
555,55,,1.0,35.0,2981231403-71642.jpg,2874305405-214397.jpg,2.0,,,,A2U5OFMW8H30PC_2022-09-21_09h03.15.065.csv
556,56,,1.0,36.0,2986451363-73598.jpg,2984628361-295995.jpg,2.0,,,,A2U5OFMW8H30PC_2022-09-21_09h03.15.065.csv
557,57,,1.0,37.0,2238481198-19822.jpg,2862691449-137104.jpg,1.0,,,,A2U5OFMW8H30PC_2022-09-21_09h03.15.065.csv
558,58,,1.0,38.0,2898618390-216538.jpg,2237856148-989.jpg,1.0,,,,A2U5OFMW8H30PC_2022-09-21_09h03.15.065.csv
559,59,,1.0,39.0,2868474407-362883.jpg,2901948383-70363.jpg,3.0,,,,A2U5OFMW8H30PC_2022-09-21_09h03.15.065.csv
560,60,,1.0,40.0,2874299429-139695.jpg,2901942443-69923.jpg,2.0,,,,A2U5OFMW8H30PC_2022-09-21_09h03.15.065.csv
561,61,,1.0,41.0,2986451363-73599.jpg,2898626385-216899.jpg,1.0,,,,A2U5OFMW8H30PC_2022-09-21_09h03.15.065.csv
562,62,,1.0,42.0,2512875899-126682.jpg,2460547536-274179.jpg,1.0,,,,A2U5OFMW8H30PC_2022-09-21_09h03.15.065.csv
563,63,right,1.0,43.0,right.jpg,,,right,1.1313,,A2U5OFMW8H30PC_2022-09-21_09h03.15.065.csv
564,64,,1.0,44.0,2238425482-313537.jpg,2238436322-314047.jpg,2.0,,,,A2U5OFMW8H30PC_2022-09-21_09h03.15.065.csv
565,65,,1.0,45.0,2238580740-186218.jpg,2238521193-26285.jpg,2.0,,,,A2U5OFMW8H30PC_2022-09-21_09h03.15.065.csv
566,66,,1.0,46.0,2592380177-354629.jpg,2512875587-350044.jpg,3.0,,,,A2U5OFMW8H30PC_2022-09-21_09h03.15.065.csv
567,67,,1.0,47.0,2874301407-363895.jpg,2446761374-124213.jpg,1.0,,,,A2U5OFMW8H30PC_2022-09-21_09h03.15.065.csv
568,68,,1.0,48.0,2901947423-70311.jpg,2238573447-333826.jpg,2.0,,,,A2U5OFMW8H30PC_2022-09-21_09h03.15.065.csv
569,69,,1.0,49.0,2460547508-51571.jpg,2901941438-69835.jpg,3.0,,,,A2U5OFMW8H30PC_2022-09-21_09h03.15.065.csv
570,70,,1.0,50.0,2452380832-348593.jpg,2237858942-299356.jpg,3.0,,,,A2U5OFMW8H30PC_2022-09-21_09h03.15.065.csv
571,71,,1.0,51.0,2898635427-367120.jpg,2898621427-366486.jpg,3.0,,,,A2U5OFMW8H30PC_2022-09-21_09h03.15.065.csv
572,72,,1.0,52.0,2238560245-182099.jpg,2238480980-168129.jpg,3.0,,,,A2U5OFMW8H30PC_2022-09-21_09h03.15.065.csv
573,73,,1.0,53.0,2883268412-365898.jpg,2238436252-314037.jpg,3.0,,,,A2U5OFMW8H30PC_2022-09-21_09h03.15.065.csv
574,74,right,1.0,54.0,right.jpg,,,right,1.2125,,A2U5OFMW8H30PC_2022-09-21_09h03.15.065.csv
575,75,,1.0,55.0,2898617468-68274.jpg,2964207374-144577.jpg,3.0,,,,A2U5OFMW8H30PC_2022-09-21_09h03.15.065.csv
576,76,,1.0,56.0,2964213381-294060.jpg,2964213381-294061.jpg,3.0,,,,A2U5OFMW8H30PC_2022-09-21_09h03.15.065.csv
577,77,,1.0,57.0,2864910426-287204.jpg,2901939433-69672.jpg,3.0,,,,A2U5OFMW8H30PC_2022-09-21_09h03.15.065.csv
578,78,,1.0,58.0,2901952513-70703.jpg,2868469411-287540.jpg,2.0,,,,A2U5OFMW8H30PC_2022-09-21_09h03.15.065.csv
579,79,,1.0,59.0,2964222378-71332.jpg,2901933382-367209.jpg,2.0,,,,A2U5OFMW8H30PC_2022-09-21_09h03.15.065.csv
580,80,,1.0,60.0,2883273443-68193.jpg,2898627427-366763.jpg,3.0,,,,A2U5OFMW8H30PC_2022-09-21_09h03.15.065.csv
581,81,,1.0,61.0,2449442529-124446.jpg,2460547536-274178.jpg,3.0,,,,A2U5OFMW8H30PC_2022-09-21_09h03.15.065.csv
582,82,,1.0,62.0,2238481928-19949.jpg,2981241419-145844.jpg,3.0,,,,A2U5OFMW8H30PC_2022-09-21_09h03.15.065.csv
583,83,,1.0,63.0,2874303365-214262.jpg,2864911457-362260.jpg,3.0,,,,A2U5OFMW8H30PC_2022-09-21_09h03.15.065.csv
584,84,,1.0,64.0,2575120738-55529.jpg,2238531493-28260.jpg,3.0,,,,A2U5OFMW8H30PC_2022-09-21_09h03.15.065.csv
585,20,,1.0,0.0,2868474407-362883.jpg,2901948383-70363.jpg,3.0,,,,A2TZVJFRJ5I61B_2022-09-21_09h06.25.253.csv
586,21,,1.0,1.0,2238428357-313623.jpg,2986408339-146952.jpg,3.0,,,,A2TZVJFRJ5I61B_2022-09-21_09h06.25.253.csv
587,22,,1.0,2.0,2986451363-73599.jpg,2898626385-216899.jpg,1.0,,,,A2TZVJFRJ5I61B_2022-09-21_09h06.25.253.csv
588,23,,1.0,3.0,2898635428-69104.jpg,2901943411-292945.jpg,2.0,,,,A2TZVJFRJ5I61B_2022-09-21_09h06.25.253.csv
589,24,,1.0,4.0,2901952513-70703.jpg,2868469411-287540.jpg,2.0,,,,A2TZVJFRJ5I61B_2022-09-21_09h06.25.253.csv
590,25,,1.0,5.0,2512875899-126682.jpg,2460547536-274179.jpg,1.0,,,,A2TZVJFRJ5I61B_2022-09-21_09h06.25.253.csv
591,26,,1.0,6.0,2449442529-124445.jpg,2986408373-73286.jpg,2.0,,,,A2TZVJFRJ5I61B_2022-09-21_09h06.25.253.csv
592,27,,1.0,7.0,2874302418-65978.jpg,2898633321-291943.jpg,3.0,,,,A2TZVJFRJ5I61B_2022-09-21_09h06.25.253.csv
593,28,,1.0,8.0,2458347385-199723.jpg,2238480434-93829.jpg,1.0,,,,A2TZVJFRJ5I61B_2022-09-21_09h06.25.253.csv
594,29,,1.0,9.0,2238572663-35822.jpg,2864903351-286874.jpg,3.0,,,,A2TZVJFRJ5I61B_2022-09-21_09h06.25.253.csv
595,30,,1.0,10.0,2460547508-51571.jpg,2452380166-273109.jpg,1.0,,,,A2TZVJFRJ5I61B_2022-09-21_09h06.25.253.csv
596,31,,1.0,11.0,2460547467-349422.jpg,2868487415-213924.jpg,2.0,,,,A2TZVJFRJ5I61B_2022-09-21_09h06.25.253.csv
597,32,,1.0,12.0,2868475410-213219.jpg,2868474407-362885.jpg,3.0,,,,A2TZVJFRJ5I61B_2022-09-21_09h06.25.253.csv
598,33,,1.0,13.0,2883268471-290842.jpg,2883255450-215310.jpg,2.0,,,,A2TZVJFRJ5I61B_2022-09-21_09h06.25.253.csv
599,34,,0.0,14.0,right.jpg,,,right,,,A2TZVJFRJ5I61B_2022-09-21_09h06.25.253.csv
600,35,,1.0,15.0,2883268412-365898.jpg,2984615361-295510.jpg,2.0,,,,A2TZVJFRJ5I61B_2022-09-21_09h06.25.253.csv
601,36,,1.0,16.0,2874303365-214262.jpg,2274829821-263682.jpg,1.0,,,,A2TZVJFRJ5I61B_2022-09-21_09h06.25.253.csv
602,37,,0.0,17.0,left.jpg,,,left,,,A2TZVJFRJ5I61B_2022-09-21_09h06.25.253.csv
603,38,,1.0,18.0,2238560245-182099.jpg,2874314526-289684.jpg,2.0,,,,A2TZVJFRJ5I61B_2022-09-21_09h06.25.253.csv
604,39,,1.0,19.0,2901941401-292798.jpg,2898618327-366317.jpg,1.0,,,,A2TZVJFRJ5I61B_2022-09-21_09h06.25.253.csv
605,40,,1.0,20.0,2986451363-73598.jpg,2901942443-69925.jpg,3.0,,,,A2TZVJFRJ5I61B_2022-09-21_09h06.25.253.csv
606,41,,1.0,21.0,2981231403-71642.jpg,2579432519-130698.jpg,1.0,,,,A2TZVJFRJ5I61B_2022-09-21_09h06.25.253.csv
607,42,,1.0,22.0,2452381505-199546.jpg,2898632385-217138.jpg,2.0,,,,A2TZVJFRJ5I61B_2022-09-21_09h06.25.253.csv
608,43,,1.0,23.0,2964218374-144967.jpg,2981231446-294732.jpg,3.0,,,,A2TZVJFRJ5I61B_2022-09-21_09h06.25.253.csv
609,44,,1.0,24.0,2883256307-365057.jpg,2864904453-63933.jpg,3.0,,,,A2TZVJFRJ5I61B_2022-09-21_09h06.25.253.csv
610,45,,1.0,25.0,2874299429-139695.jpg,2901942443-69923.jpg,2.0,,,,A2TZVJFRJ5I61B_2022-09-21_09h06.25.253.csv
611,46,,1.0,26.0,2901939379-143479.jpg,2460547467-349423.jpg,1.0,,,,A2TZVJFRJ5I61B_2022-09-21_09h06.25.253.csv
612,47,,1.0,27.0,2238580740-186218.jpg,2238550816-254000.jpg,1.0,,,,A2TZVJFRJ5I61B_2022-09-21_09h06.25.253.csv
613,48,,1.0,28.0,2964223381-294447.jpg,2898628438-68785.jpg,3.0,,,,A2TZVJFRJ5I61B_2022-09-21_09h06.25.253.csv
614,49,,1.0,29.0,2874299429-139694.jpg,2981244403-72215.jpg,2.0,,,,A2TZVJFRJ5I61B_2022-09-21_09h06.25.253.csv
615,50,,0.0,30.0,left.jpg,,,left,,,A2TZVJFRJ5I61B_2022-09-21_09h06.25.253.csv
616,51,,1.0,31.0,2898618390-216538.jpg,2901939327-367670.jpg,2.0,,,,A2TZVJFRJ5I61B_2022-09-21_09h06.25.253.csv
617,52,,1.0,32.0,2592379964-131054.jpg,2238479053-19457.jpg,2.0,,,,A2TZVJFRJ5I61B_2022-09-21_09h06.25.253.csv
618,53,,1.0,33.0,2592380177-354629.jpg,2512875587-350044.jpg,3.0,,,,A2TZVJFRJ5I61B_2022-09-21_09h06.25.253.csv
619,54,,1.0,34.0,2898618444-142233.jpg,2898618444-142232.jpg,3.0,,,,A2TZVJFRJ5I61B_2022-09-21_09h06.25.253.csv
620,55,,1.0,35.0,2446759803-49249.jpg,2446760601-272099.jpg,1.0,,,,A2TZVJFRJ5I61B_2022-09-21_09h06.25.253.csv
621,56,,1.0,36.0,2898624426-291546.jpg,2981236443-71859.jpg,2.0,,,,A2TZVJFRJ5I61B_2022-09-21_09h06.25.253.csv
622,57,,0.0,37.0,right.jpg,,,right,,,A2TZVJFRJ5I61B_2022-09-21_09h06.25.253.csv
623,58,,1.0,38.0,2238481198-19822.jpg,2901946436-293242.jpg,2.0,,,,A2TZVJFRJ5I61B_2022-09-21_09h06.25.253.csv
624,59,,1.0,39.0,2883273443-68193.jpg,2460547508-51572.jpg,2.0,,,,A2TZVJFRJ5I61B_2022-09-21_09h06.25.253.csv
625,60,,1.0,40.0,2460547467-349421.jpg,2898631394-142727.jpg,1.0,,,,A2TZVJFRJ5I61B_2022-09-21_09h06.25.253.csv
626,61,,1.0,41.0,2864910426-287204.jpg,2864902304-137862.jpg,1.0,,,,A2TZVJFRJ5I61B_2022-09-21_09h06.25.253.csv
627,62,,1.0,42.0,2575120738-55529.jpg,2575120738-55528.jpg,2.0,,,,A2TZVJFRJ5I61B_2022-09-21_09h06.25.253.csv
628,63,,1.0,43.0,2964216465-219242.jpg,2238544191-252422.jpg,1.0,,,,A2TZVJFRJ5I61B_2022-09-21_09h06.25.253.csv
629,64,,1.0,44.0,2964213381-294060.jpg,2981244394-145974.jpg,1.0,,,,A2TZVJFRJ5I61B_2022-09-21_09h06.25.253.csv
630,65,,1.0,45.0,2864907432-362042.jpg,2864901420-212147.jpg,1.0,,,,A2TZVJFRJ5I61B_2022-09-21_09h06.25.253.csv
631,66,,1.0,46.0,2981241414-145842.jpg,2427873848-47312.jpg,3.0,,,,A2TZVJFRJ5I61B_2022-09-21_09h06.25.253.csv
632,67,,1.0,47.0,2898617468-68274.jpg,2901943387-368037.jpg,2.0,,,,A2TZVJFRJ5I61B_2022-09-21_09h06.25.253.csv
633,68,,1.0,48.0,2238480677-317399.jpg,2238480278-19661.jpg,3.0,,,,A2TZVJFRJ5I61B_2022-09-21_09h06.25.253.csv
634,69,,1.0,49.0,2898633421-291973.jpg,2512876023-52283.jpg,1.0,,,,A2TZVJFRJ5I61B_2022-09-21_09h06.25.253.csv
635,70,,1.0,50.0,2238481928-19949.jpg,2864900357-361688.jpg,2.0,,,,A2TZVJFRJ5I61B_2022-09-21_09h06.25.253.csv
636,71,right,1.0,51.0,right.jpg,,,right,2.7677,,A2TZVJFRJ5I61B_2022-09-21_09h06.25.253.csv
637,72,,1.0,52.0,2964222378-71332.jpg,2981240427-370099.jpg,3.0,,,,A2TZVJFRJ5I61B_2022-09-21_09h06.25.253.csv
638,73,,1.0,53.0,2898634397-367080.jpg,2964217461-294238.jpg,3.0,,,,A2TZVJFRJ5I61B_2022-09-21_09h06.25.253.csv
639,74,,1.0,54.0,2874301407-363895.jpg,2901947323-70275.jpg,3.0,,,,A2TZVJFRJ5I61B_2022-09-21_09h06.25.253.csv
640,75,,1.0,55.0,2898635427-367120.jpg,2868479517-363220.jpg,2.0,,,,A2TZVJFRJ5I61B_2022-09-21_09h06.25.253.csv
641,76,,1.0,56.0,2452380832-348593.jpg,2237858942-299356.jpg,3.0,,,,A2TZVJFRJ5I61B_2022-09-21_09h06.25.253.csv
642,77,,1.0,57.0,2592380177-354626.jpg,2238576792-334659.jpg,1.0,,,,A2TZVJFRJ5I61B_2022-09-21_09h06.25.253.csv
643,78,,1.0,58.0,2901939379-143480.jpg,2898632385-217139.jpg,3.0,,,,A2TZVJFRJ5I61B_2022-09-21_09h06.25.253.csv
644,79,,1.0,59.0,2874307433-66280.jpg,2984615358-72439.jpg,1.0,,,,A2TZVJFRJ5I61B_2022-09-21_09h06.25.253.csv
645,80,,1.0,60.0,2874302418-65979.jpg,2237857458-1325.jpg,1.0,,,,A2TZVJFRJ5I61B_2022-09-21_09h06.25.253.csv
646,81,,1.0,61.0,2449442529-124446.jpg,2460547536-274181.jpg,2.0,,,,A2TZVJFRJ5I61B_2022-09-21_09h06.25.253.csv
647,82,,1.0,62.0,2446758985-197609.jpg,2898624426-291544.jpg,3.0,,,,A2TZVJFRJ5I61B_2022-09-21_09h06.25.253.csv
648,83,,1.0,63.0,2901947423-70311.jpg,2238577590-185467.jpg,3.0,,,,A2TZVJFRJ5I61B_2022-09-21_09h06.25.253.csv
649,84,,1.0,64.0,2238425482-313537.jpg,2238471391-240918.jpg,1.0,,,,A2TZVJFRJ5I61B_2022-09-21_09h06.25.253.csv
650,20,,1.0,0.0,2460547467-349422.jpg,2898618440-216545.jpg,1.0,,,,A1R5JNC2LO6X1S_2022-09-21_09h10.40.559.csv
651,21,,1.0,1.0,2864907432-362042.jpg,2864901420-212147.jpg,1.0,,,,A1R5JNC2LO6X1S_2022-09-21_09h10.40.559.csv
652,22,,1.0,2.0,2592380177-354629.jpg,2898633421-291974.jpg,1.0,,,,A1R5JNC2LO6X1S_2022-09-21_09h10.40.559.csv
653,23,,1.0,3.0,2874302418-65978.jpg,2898633321-291943.jpg,3.0,,,,A1R5JNC2LO6X1S_2022-09-21_09h10.40.559.csv
654,24,,1.0,4.0,2898635428-69104.jpg,2901943411-292945.jpg,2.0,,,,A1R5JNC2LO6X1S_2022-09-21_09h10.40.559.csv
655,25,,1.0,5.0,2874299429-139695.jpg,2901942443-69923.jpg,2.0,,,,A1R5JNC2LO6X1S_2022-09-21_09h10.40.559.csv
656,26,,1.0,6.0,2901952513-70703.jpg,2238481198-19821.jpg,3.0,,,,A1R5JNC2LO6X1S_2022-09-21_09h10.40.559.csv
657,27,,1.0,7.0,2986451363-73599.jpg,2860302315-210704.jpg,2.0,,,,A1R5JNC2LO6X1S_2022-09-21_09h10.40.559.csv
658,28,,1.0,8.0,2868475410-213219.jpg,2901946465-218350.jpg,1.0,,,,A1R5JNC2LO6X1S_2022-09-21_09h10.40.559.csv
659,29,right,1.0,9.0,right.jpg,,,right,2.421,,A1R5JNC2LO6X1S_2022-09-21_09h10.40.559.csv
660,30,,1.0,10.0,2449442529-124446.jpg,2446759803-49251.jpg,1.0,,,,A1R5JNC2LO6X1S_2022-09-21_09h10.40.559.csv
661,31,,1.0,11.0,2874299429-139694.jpg,2883266367-365742.jpg,3.0,,,,A1R5JNC2LO6X1S_2022-09-21_09h10.40.559.csv
662,32,,1.0,12.0,2901941401-292798.jpg,2898618327-366317.jpg,1.0,,,,A1R5JNC2LO6X1S_2022-09-21_09h10.40.559.csv
663,33,,1.0,13.0,2901939379-143480.jpg,2898632385-217139.jpg,3.0,,,,A1R5JNC2LO6X1S_2022-09-21_09h10.40.559.csv
664,34,,1.0,14.0,2874303365-214262.jpg,2238563377-332054.jpg,2.0,,,,A1R5JNC2LO6X1S_2022-09-21_09h10.40.559.csv
665,35,,1.0,15.0,2898617468-68274.jpg,2901946439-144040.jpg,1.0,,,,A1R5JNC2LO6X1S_2022-09-21_09h10.40.559.csv
666,36,,1.0,16.0,2575120738-55529.jpg,2575120738-55528.jpg,2.0,,,,A1R5JNC2LO6X1S_2022-09-21_09h10.40.559.csv
667,37,,1.0,17.0,2981241414-145842.jpg,2427873848-47312.jpg,3.0,,,,A1R5JNC2LO6X1S_2022-09-21_09h10.40.559.csv
668,38,,1.0,18.0,2238572663-35822.jpg,2864903351-286874.jpg,3.0,,,,A1R5JNC2LO6X1S_2022-09-21_09h10.40.559.csv
669,39,,1.0,19.0,2458347385-199723.jpg,2238480434-93829.jpg,1.0,,,,A1R5JNC2LO6X1S_2022-09-21_09h10.40.559.csv
670,40,,1.0,20.0,2901947423-70311.jpg,2238577590-185467.jpg,3.0,,,,A1R5JNC2LO6X1S_2022-09-21_09h10.40.559.csv
671,41,left,1.0,21.0,left.jpg,,,left,0.965,,A1R5JNC2LO6X1S_2022-09-21_09h10.40.559.csv
672,42,,1.0,22.0,2460547467-349421.jpg,2981235446-294901.jpg,3.0,,,,A1R5JNC2LO6X1S_2022-09-21_09h10.40.559.csv
673,43,,1.0,23.0,2898634397-367080.jpg,2237944827-301472.jpg,1.0,,,,A1R5JNC2LO6X1S_2022-09-21_09h10.40.559.csv
674,44,,1.0,24.0,2238480677-317399.jpg,2238573546-258454.jpg,2.0,,,,A1R5JNC2LO6X1S_2022-09-21_09h10.40.559.csv
675,45,,1.0,25.0,2238481198-19822.jpg,2862691449-137104.jpg,1.0,,,,A1R5JNC2LO6X1S_2022-09-21_09h10.40.559.csv
676,46,,1.0,26.0,2883268412-365898.jpg,2238436252-314037.jpg,3.0,,,,A1R5JNC2LO6X1S_2022-09-21_09h10.40.559.csv
677,47,,1.0,27.0,2898618444-142233.jpg,2898631359-142721.jpg,1.0,,,,A1R5JNC2LO6X1S_2022-09-21_09h10.40.559.csv
678,48,,1.0,28.0,2883256307-365057.jpg,2864904453-63933.jpg,3.0,,,,A1R5JNC2LO6X1S_2022-09-21_09h10.40.559.csv
679,49,,1.0,29.0,2592380177-354626.jpg,2864901386-286797.jpg,2.0,,,,A1R5JNC2LO6X1S_2022-09-21_09h10.40.559.csv
680,50,left,1.0,30.0,left.jpg,,,left,1.513,,A1R5JNC2LO6X1S_2022-09-21_09h10.40.559.csv
681,51,,1.0,31.0,2874302418-65979.jpg,2238578544-111698.jpg,3.0,,,,A1R5JNC2LO6X1S_2022-09-21_09h10.40.559.csv
682,52,,1.0,32.0,2898633421-291973.jpg,2238550049-105691.jpg,3.0,,,,A1R5JNC2LO6X1S_2022-09-21_09h10.40.559.csv
683,53,,1.0,33.0,2446759803-49249.jpg,2446760601-272099.jpg,1.0,,,,A1R5JNC2LO6X1S_2022-09-21_09h10.40.559.csv
684,54,,1.0,34.0,2868474407-362883.jpg,2981246400-220363.jpg,2.0,,,,A1R5JNC2LO6X1S_2022-09-21_09h10.40.559.csv
685,55,,1.0,35.0,2874301407-363895.jpg,2446761374-124213.jpg,1.0,,,,A1R5JNC2LO6X1S_2022-09-21_09h10.40.559.csv
686,56,,1.0,36.0,2898635427-367120.jpg,2964221435-219434.jpg,1.0,,,,A1R5JNC2LO6X1S_2022-09-21_09h10.40.559.csv
687,57,,1.0,37.0,2874307433-66280.jpg,2984615358-72439.jpg,1.0,,,,A1R5JNC2LO6X1S_2022-09-21_09h10.40.559.csv
688,58,,1.0,38.0,2238428357-313623.jpg,2984615361-295509.jpg,2.0,,,,A1R5JNC2LO6X1S_2022-09-21_09h10.40.559.csv
689,59,,1.0,39.0,2452381505-199546.jpg,2994401319-148290.jpg,3.0,,,,A1R5JNC2LO6X1S_2022-09-21_09h10.40.559.csv
690,60,,1.0,40.0,2986451363-73598.jpg,2984628361-295995.jpg,2.0,,,,A1R5JNC2LO6X1S_2022-09-21_09h10.40.559.csv
691,61,,1.0,41.0,2446758985-197609.jpg,2864909447-362144.jpg,2.0,,,,A1R5JNC2LO6X1S_2022-09-21_09h10.40.559.csv
692,62,,1.0,42.0,2901939379-143479.jpg,2446758985-197610.jpg,2.0,,,,A1R5JNC2LO6X1S_2022-09-21_09h10.40.559.csv
693,63,,1.0,43.0,2864910426-287204.jpg,2864902304-137862.jpg,1.0,,,,A1R5JNC2LO6X1S_2022-09-21_09h10.40.559.csv
694,64,left,1.0,44.0,left.jpg,,,left,0.933,,A1R5JNC2LO6X1S_2022-09-21_09h10.40.559.csv
695,65,,1.0,45.0,2452380832-348593.jpg,2237858942-299356.jpg,3.0,,,,A1R5JNC2LO6X1S_2022-09-21_09h10.40.559.csv
696,66,,1.0,46.0,2964216465-219242.jpg,2898619327-366362.jpg,3.0,,,,A1R5JNC2LO6X1S_2022-09-21_09h10.40.559.csv
697,67,,1.0,47.0,2238481928-19949.jpg,2981241419-145844.jpg,3.0,,,,A1R5JNC2LO6X1S_2022-09-21_09h10.40.559.csv
698,68,,1.0,48.0,2898624426-291546.jpg,2981236443-71859.jpg,2.0,,,,A1R5JNC2LO6X1S_2022-09-21_09h10.40.559.csv
699,69,,1.0,49.0,2964213381-294060.jpg,2458348012-349114.jpg,2.0,,,,A1R5JNC2LO6X1S_2022-09-21_09h10.40.559.csv
700,70,,1.0,50.0,2238580740-186218.jpg,2238521193-26285.jpg,2.0,,,,A1R5JNC2LO6X1S_2022-09-21_09h10.40.559.csv
701,71,,1.0,51.0,2964218374-144967.jpg,2964218374-144968.jpg,1.0,,,,A1R5JNC2LO6X1S_2022-09-21_09h10.40.559.csv
702,72,right,1.0,52.0,right.jpg,,,right,1.016,,A1R5JNC2LO6X1S_2022-09-21_09h10.40.559.csv
703,73,,1.0,53.0,2964222378-71332.jpg,2901933382-367209.jpg,2.0,,,,A1R5JNC2LO6X1S_2022-09-21_09h10.40.559.csv
704,74,,1.0,54.0,2592379964-131054.jpg,2592380272-354673.jpg,3.0,,,,A1R5JNC2LO6X1S_2022-09-21_09h10.40.559.csv
705,75,,1.0,55.0,2883273443-68193.jpg,2460547508-51572.jpg,2.0,,,,A1R5JNC2LO6X1S_2022-09-21_09h10.40.559.csv
706,76,,1.0,56.0,2883268471-290842.jpg,2883255450-215310.jpg,2.0,,,,A1R5JNC2LO6X1S_2022-09-21_09h10.40.559.csv
707,77,,1.0,57.0,2512875899-126682.jpg,2460547536-274179.jpg,1.0,,,,A1R5JNC2LO6X1S_2022-09-21_09h10.40.559.csv
708,78,,1.0,58.0,2981231403-71642.jpg,2579432519-130698.jpg,1.0,,,,A1R5JNC2LO6X1S_2022-09-21_09h10.40.559.csv
709,79,,1.0,59.0,2964223381-294447.jpg,2898628438-68785.jpg,3.0,,,,A1R5JNC2LO6X1S_2022-09-21_09h10.40.559.csv
710,80,,1.0,60.0,2238560245-182099.jpg,2874314526-289684.jpg,2.0,,,,A1R5JNC2LO6X1S_2022-09-21_09h10.40.559.csv
711,81,,1.0,61.0,2460547508-51571.jpg,2981232437-369759.jpg,2.0,,,,A1R5JNC2LO6X1S_2022-09-21_09h10.40.559.csv
712,82,,1.0,62.0,2238425482-313537.jpg,2238471391-240918.jpg,1.0,,,,A1R5JNC2LO6X1S_2022-09-21_09h10.40.559.csv
713,83,,1.0,63.0,2449442529-124445.jpg,2898632385-217137.jpg,3.0,,,,A1R5JNC2LO6X1S_2022-09-21_09h10.40.559.csv
714,84,,1.0,64.0,2898618390-216538.jpg,2575120609-129862.jpg,3.0,,,,A1R5JNC2LO6X1S_2022-09-21_09h10.40.559.csv
715,20,,1.0,0.0,2874299429-139694.jpg,2883266367-365742.jpg,3.0,,,,A3L9EN8YL1HZWF_2022-09-21_09h42.50.613.csv
716,21,,1.0,1.0,2964213381-294060.jpg,2964213381-294061.jpg,3.0,,,,A3L9EN8YL1HZWF_2022-09-21_09h42.50.613.csv
717,22,,1.0,2.0,2864907432-362042.jpg,2989726338-74002.jpg,3.0,,,,A3L9EN8YL1HZWF_2022-09-21_09h42.50.613.csv
718,23,,1.0,3.0,2592380177-354626.jpg,2238576792-334659.jpg,1.0,,,,A3L9EN8YL1HZWF_2022-09-21_09h42.50.613.csv
719,24,,1.0,4.0,2883273443-68193.jpg,2883254439-140940.jpg,1.0,,,,A3L9EN8YL1HZWF_2022-09-21_09h42.50.613.csv
720,25,,1.0,5.0,2460547467-349422.jpg,2898618440-216545.jpg,1.0,,,,A3L9EN8YL1HZWF_2022-09-21_09h42.50.613.csv
721,26,,1.0,6.0,2238425482-313537.jpg,2898633480-217190.jpg,3.0,,,,A3L9EN8YL1HZWF_2022-09-21_09h42.50.613.csv
722,27,,1.0,7.0,2446759803-49249.jpg,2901951392-368654.jpg,3.0,,,,A3L9EN8YL1HZWF_2022-09-21_09h42.50.613.csv
723,28,,1.0,8.0,2868474407-362883.jpg,2901948383-70363.jpg,3.0,,,,A3L9EN8YL1HZWF_2022-09-21_09h42.50.613.csv
724,29,right,1.0,9.0,right.jpg,,,right,1.046,,A3L9EN8YL1HZWF_2022-09-21_09h42.50.613.csv
725,30,,1.0,10.0,2898635428-69104.jpg,2446759803-49250.jpg,1.0,,,,A3L9EN8YL1HZWF_2022-09-21_09h42.50.613.csv
726,31,,1.0,11.0,2898635427-367120.jpg,2898621427-366486.jpg,3.0,,,,A3L9EN8YL1HZWF_2022-09-21_09h42.50.613.csv
727,32,,1.0,12.0,2898618444-142233.jpg,2238555262-330312.jpg,2.0,,,,A3L9EN8YL1HZWF_2022-09-21_09h42.50.613.csv
728,33,,1.0,13.0,2898624426-291546.jpg,2964218432-369263.jpg,1.0,,,,A3L9EN8YL1HZWF_2022-09-21_09h42.50.613.csv
729,34,,1.0,14.0,2446758985-197609.jpg,2864909447-362144.jpg,2.0,,,,A3L9EN8YL1HZWF_2022-09-21_09h42.50.613.csv
730,35,,1.0,15.0,2964218374-144967.jpg,2446759306-271734.jpg,2.0,,,,A3L9EN8YL1HZWF_2022-09-21_09h42.50.613.csv
731,36,,1.0,16.0,2238481928-19949.jpg,2883264367-365620.jpg,1.0,,,,A3L9EN8YL1HZWF_2022-09-21_09h42.50.613.csv
732,37,left,1.0,17.0,left.jpg,,,left,0.782,,A3L9EN8YL1HZWF_2022-09-21_09h42.50.613.csv
733,38,,1.0,18.0,2864910426-287204.jpg,2901939433-69672.jpg,3.0,,,,A3L9EN8YL1HZWF_2022-09-21_09h42.50.613.csv
734,39,,1.0,19.0,2986451363-73598.jpg,2901942443-69925.jpg,3.0,,,,A3L9EN8YL1HZWF_2022-09-21_09h42.50.613.csv
735,40,,1.0,20.0,2901947423-70311.jpg,2860312398-62572.jpg,1.0,,,,A3L9EN8YL1HZWF_2022-09-21_09h42.50.613.csv
736,41,,1.0,21.0,2452380832-348593.jpg,2238481813-19930.jpg,2.0,,,,A3L9EN8YL1HZWF_2022-09-21_09h42.50.613.csv
737,42,,1.0,22.0,2592380177-354629.jpg,2512875587-350044.jpg,3.0,,,,A3L9EN8YL1HZWF_2022-09-21_09h42.50.613.csv
738,43,,1.0,23.0,2898618390-216538.jpg,2901939327-367670.jpg,2.0,,,,A3L9EN8YL1HZWF_2022-09-21_09h42.50.613.csv
739,44,,1.0,24.0,2460547508-51571.jpg,2901941438-69835.jpg,3.0,,,,A3L9EN8YL1HZWF_2022-09-21_09h42.50.613.csv
740,45,,1.0,25.0,2238480677-317399.jpg,2238480278-19661.jpg,3.0,,,,A3L9EN8YL1HZWF_2022-09-21_09h42.50.613.csv
741,46,,1.0,26.0,2874302418-65978.jpg,2898633321-291943.jpg,3.0,,,,A3L9EN8YL1HZWF_2022-09-21_09h42.50.613.csv
742,47,,1.0,27.0,2964222378-71332.jpg,2901933382-367209.jpg,2.0,,,,A3L9EN8YL1HZWF_2022-09-21_09h42.50.613.csv
743,48,,1.0,28.0,2449442529-124446.jpg,2460547536-274181.jpg,2.0,,,,A3L9EN8YL1HZWF_2022-09-21_09h42.50.613.csv
744,49,,1.0,29.0,2986451363-73599.jpg,2898626385-216899.jpg,1.0,,,,A3L9EN8YL1HZWF_2022-09-21_09h42.50.613.csv
745,50,,1.0,30.0,2981231403-71642.jpg,2579432519-130698.jpg,1.0,,,,A3L9EN8YL1HZWF_2022-09-21_09h42.50.613.csv
746,51,right,1.0,31.0,right.jpg,,,right,1.046,,A3L9EN8YL1HZWF_2022-09-21_09h42.50.613.csv
747,52,,1.0,32.0,2901939379-143480.jpg,2981229442-369621.jpg,2.0,,,,A3L9EN8YL1HZWF_2022-09-21_09h42.50.613.csv
748,53,,1.0,33.0,2883256307-365057.jpg,2611628310-206388.jpg,1.0,,,,A3L9EN8YL1HZWF_2022-09-21_09h42.50.613.csv
749,54,,1.0,34.0,2575120738-55529.jpg,2575120738-55528.jpg,2.0,,,,A3L9EN8YL1HZWF_2022-09-21_09h42.50.613.csv
750,55,,1.0,35.0,2458347385-199723.jpg,2238480434-93829.jpg,1.0,,,,A3L9EN8YL1HZWF_2022-09-21_09h42.50.613.csv
751,56,,1.0,36.0,2901939379-143479.jpg,2460547467-349423.jpg,1.0,,,,A3L9EN8YL1HZWF_2022-09-21_09h42.50.613.csv
752,57,right,1.0,37.0,right.jpg,,,right,0.986,,A3L9EN8YL1HZWF_2022-09-21_09h42.50.613.csv
753,58,,1.0,38.0,2592379964-131054.jpg,2592380272-354673.jpg,3.0,,,,A3L9EN8YL1HZWF_2022-09-21_09h42.50.613.csv
754,59,,1.0,39.0,2874302418-65979.jpg,2237857458-1325.jpg,1.0,,,,A3L9EN8YL1HZWF_2022-09-21_09h42.50.613.csv
755,60,,1.0,40.0,2901952513-70703.jpg,2868469411-287540.jpg,2.0,,,,A3L9EN8YL1HZWF_2022-09-21_09h42.50.613.csv
756,61,,1.0,41.0,2964216465-219242.jpg,2238544191-252422.jpg,1.0,,,,A3L9EN8YL1HZWF_2022-09-21_09h42.50.613.csv
757,62,,1.0,42.0,2238560245-182099.jpg,2592380255-205553.jpg,1.0,,,,A3L9EN8YL1HZWF_2022-09-21_09h42.50.613.csv
758,63,,1.0,43.0,2964223381-294447.jpg,2898628438-68785.jpg,3.0,,,,A3L9EN8YL1HZWF_2022-09-21_09h42.50.613.csv
759,64,,1.0,44.0,2238572663-35822.jpg,2864903351-286874.jpg,3.0,,,,A3L9EN8YL1HZWF_2022-09-21_09h42.50.613.csv
760,65,,1.0,45.0,2449442529-124445.jpg,2986408373-73286.jpg,2.0,,,,A3L9EN8YL1HZWF_2022-09-21_09h42.50.613.csv
761,66,,1.0,46.0,2898633421-291973.jpg,2238550049-105691.jpg,3.0,,,,A3L9EN8YL1HZWF_2022-09-21_09h42.50.613.csv
762,67,,1.0,47.0,2874307433-66280.jpg,2984615358-72439.jpg,1.0,,,,A3L9EN8YL1HZWF_2022-09-21_09h42.50.613.csv
763,68,,1.0,48.0,2452381505-199546.jpg,2901938432-367627.jpg,1.0,,,,A3L9EN8YL1HZWF_2022-09-21_09h42.50.613.csv
764,69,,1.0,49.0,2874301407-363895.jpg,2446761374-124213.jpg,1.0,,,,A3L9EN8YL1HZWF_2022-09-21_09h42.50.613.csv
765,70,,1.0,50.0,2883268471-290842.jpg,2883255450-215310.jpg,2.0,,,,A3L9EN8YL1HZWF_2022-09-21_09h42.50.613.csv
766,71,,1.0,51.0,2898634397-367080.jpg,2237944827-301472.jpg,1.0,,,,A3L9EN8YL1HZWF_2022-09-21_09h42.50.613.csv
767,72,,1.0,52.0,2460547467-349421.jpg,2452380166-273110.jpg,2.0,,,,A3L9EN8YL1HZWF_2022-09-21_09h42.50.613.csv
768,73,left,1.0,53.0,left.jpg,,,left,0.864,,A3L9EN8YL1HZWF_2022-09-21_09h42.50.613.csv
769,74,,1.0,54.0,2874303365-214262.jpg,2238563377-332054.jpg,2.0,,,,A3L9EN8YL1HZWF_2022-09-21_09h42.50.613.csv
770,75,,1.0,55.0,2901941401-292798.jpg,2981243412-370222.jpg,2.0,,,,A3L9EN8YL1HZWF_2022-09-21_09h42.50.613.csv
771,76,,1.0,56.0,2874299429-139695.jpg,2901942443-69923.jpg,2.0,,,,A3L9EN8YL1HZWF_2022-09-21_09h42.50.613.csv
772,77,,1.0,57.0,2868475410-213219.jpg,2901946465-218350.jpg,1.0,,,,A3L9EN8YL1HZWF_2022-09-21_09h42.50.613.csv
773,78,,1.0,58.0,2981241414-145842.jpg,2427873848-47312.jpg,3.0,,,,A3L9EN8YL1HZWF_2022-09-21_09h42.50.613.csv
774,79,,1.0,59.0,2898617468-68274.jpg,2901943387-368037.jpg,2.0,,,,A3L9EN8YL1HZWF_2022-09-21_09h42.50.613.csv
775,80,,1.0,60.0,2883268412-365898.jpg,2238436252-314037.jpg,3.0,,,,A3L9EN8YL1HZWF_2022-09-21_09h42.50.613.csv
776,81,,1.0,61.0,2238428357-313623.jpg,2986408339-146952.jpg,3.0,,,,A3L9EN8YL1HZWF_2022-09-21_09h42.50.613.csv
777,82,,1.0,62.0,2238580740-186218.jpg,2238521193-26285.jpg,2.0,,,,A3L9EN8YL1HZWF_2022-09-21_09h42.50.613.csv
778,83,,1.0,63.0,2238481198-19822.jpg,2901946436-293242.jpg,2.0,,,,A3L9EN8YL1HZWF_2022-09-21_09h42.50.613.csv
779,84,,1.0,64.0,2512875899-126682.jpg,2592380177-354628.jpg,2.0,,,,A3L9EN8YL1HZWF_2022-09-21_09h42.50.613.csv
780,20,,1.0,0.0,2874302418-65979.jpg,2238480648-19714.jpg,2.0,,,,A1AT1U9SZ2T4NN_2022-09-21_10h01.27.159.csv
781,21,,1.0,1.0,2883268412-365898.jpg,2238436252-314037.jpg,3.0,,,,A1AT1U9SZ2T4NN_2022-09-21_10h01.27.159.csv
782,22,,1.0,2.0,2898635428-69104.jpg,2446759803-49250.jpg,1.0,,,,A1AT1U9SZ2T4NN_2022-09-21_10h01.27.159.csv
783,23,,1.0,3.0,2238481928-19949.jpg,2981241419-145844.jpg,3.0,,,,A1AT1U9SZ2T4NN_2022-09-21_10h01.27.159.csv
784,24,,1.0,4.0,2238572663-35822.jpg,2238584894-113161.jpg,1.0,,,,A1AT1U9SZ2T4NN_2022-09-21_10h01.27.159.csv
785,25,,1.0,5.0,2874303365-214262.jpg,2864911457-362260.jpg,3.0,,,,A1AT1U9SZ2T4NN_2022-09-21_10h01.27.159.csv
786,26,,1.0,6.0,2964218374-144967.jpg,2964218374-144968.jpg,1.0,,,,A1AT1U9SZ2T4NN_2022-09-21_10h01.27.159.csv
787,27,,0.0,7.0,left.jpg,,,left,,,A1AT1U9SZ2T4NN_2022-09-21_10h01.27.159.csv
788,28,,1.0,8.0,2898618444-142233.jpg,2238555262-330312.jpg,2.0,,,,A1AT1U9SZ2T4NN_2022-09-21_10h01.27.159.csv
789,29,,1.0,9.0,2898633421-291973.jpg,2512876023-52283.jpg,1.0,,,,A1AT1U9SZ2T4NN_2022-09-21_10h01.27.159.csv
790,30,,1.0,10.0,2874302418-65978.jpg,2238481198-19823.jpg,2.0,,,,A1AT1U9SZ2T4NN_2022-09-21_10h01.27.159.csv
791,31,,1.0,11.0,2452381505-199546.jpg,2994401319-148290.jpg,3.0,,,,A1AT1U9SZ2T4NN_2022-09-21_10h01.27.159.csv
792,32,,1.0,12.0,2452380832-348593.jpg,2238481813-19930.jpg,2.0,,,,A1AT1U9SZ2T4NN_2022-09-21_10h01.27.159.csv
793,33,,1.0,13.0,2981231403-71642.jpg,2579432519-130698.jpg,1.0,,,,A1AT1U9SZ2T4NN_2022-09-21_10h01.27.159.csv
794,34,,1.0,14.0,2460547467-349421.jpg,2898631394-142727.jpg,1.0,,,,A1AT1U9SZ2T4NN_2022-09-21_10h01.27.159.csv
795,35,,1.0,15.0,2874299429-139695.jpg,2883266388-67750.jpg,1.0,,,,A1AT1U9SZ2T4NN_2022-09-21_10h01.27.159.csv
796,36,,1.0,16.0,2901939379-143480.jpg,2898632385-217139.jpg,3.0,,,,A1AT1U9SZ2T4NN_2022-09-21_10h01.27.159.csv
797,37,,0.0,17.0,right.jpg,,,right,,,A1AT1U9SZ2T4NN_2022-09-21_10h01.27.159.csv
798,38,,1.0,18.0,2460547467-349422.jpg,2898618440-216545.jpg,1.0,,,,A1AT1U9SZ2T4NN_2022-09-21_10h01.27.159.csv
799,39,,1.0,19.0,2986451363-73598.jpg,2237857458-1324.jpg,1.0,,,,A1AT1U9SZ2T4NN_2022-09-21_10h01.27.159.csv
800,40,,1.0,20.0,2981241414-145842.jpg,2238516618-25604.jpg,1.0,,,,A1AT1U9SZ2T4NN_2022-09-21_10h01.27.159.csv
801,41,,1.0,21.0,2512875899-126682.jpg,2460547536-274179.jpg,1.0,,,,A1AT1U9SZ2T4NN_2022-09-21_10h01.27.159.csv
802,42,,1.0,22.0,2868474407-362883.jpg,2981246400-220363.jpg,2.0,,,,A1AT1U9SZ2T4NN_2022-09-21_10h01.27.159.csv
803,43,,1.0,23.0,2458347385-199723.jpg,2427874554-121863.jpg,2.0,,,,A1AT1U9SZ2T4NN_2022-09-21_10h01.27.159.csv
804,44,,1.0,24.0,2864910426-287204.jpg,2883268412-365899.jpg,2.0,,,,A1AT1U9SZ2T4NN_2022-09-21_10h01.27.159.csv
805,45,,1.0,25.0,2901952513-70703.jpg,2238481198-19821.jpg,3.0,,,,A1AT1U9SZ2T4NN_2022-09-21_10h01.27.159.csv
806,46,,0.0,26.0,right.jpg,,,right,,,A1AT1U9SZ2T4NN_2022-09-21_10h01.27.159.csv
807,47,,1.0,27.0,2883256307-365057.jpg,2864904453-63933.jpg,3.0,,,,A1AT1U9SZ2T4NN_2022-09-21_10h01.27.159.csv
808,48,,1.0,28.0,2898634397-367080.jpg,2237944827-301472.jpg,1.0,,,,A1AT1U9SZ2T4NN_2022-09-21_10h01.27.159.csv
809,49,,1.0,29.0,2883268471-290842.jpg,2883255450-215310.jpg,2.0,,,,A1AT1U9SZ2T4NN_2022-09-21_10h01.27.159.csv
810,50,,1.0,30.0,2446759803-49249.jpg,2901951392-368654.jpg,3.0,,,,A1AT1U9SZ2T4NN_2022-09-21_10h01.27.159.csv
811,51,,1.0,31.0,2964223381-294447.jpg,2901941438-69836.jpg,2.0,,,,A1AT1U9SZ2T4NN_2022-09-21_10h01.27.159.csv
812,52,,1.0,32.0,2238425482-313537.jpg,2898633480-217190.jpg,3.0,,,,A1AT1U9SZ2T4NN_2022-09-21_10h01.27.159.csv
813,53,,1.0,33.0,2460547508-51571.jpg,2901941438-69835.jpg,3.0,,,,A1AT1U9SZ2T4NN_2022-09-21_10h01.27.159.csv
814,54,,1.0,34.0,2449442529-124445.jpg,2452380171-273112.jpg,1.0,,,,A1AT1U9SZ2T4NN_2022-09-21_10h01.27.159.csv
815,55,,1.0,35.0,2883273443-68193.jpg,2460547508-51572.jpg,2.0,,,,A1AT1U9SZ2T4NN_2022-09-21_10h01.27.159.csv
816,56,,1.0,36.0,2238481198-19822.jpg,2862691449-137104.jpg,1.0,,,,A1AT1U9SZ2T4NN_2022-09-21_10h01.27.159.csv
817,57,,1.0,37.0,2238560245-182099.jpg,2874314526-289684.jpg,2.0,,,,A1AT1U9SZ2T4NN_2022-09-21_10h01.27.159.csv
818,58,,1.0,38.0,2238480677-317399.jpg,2238481630-168218.jpg,1.0,,,,A1AT1U9SZ2T4NN_2022-09-21_10h01.27.159.csv
819,59,,1.0,39.0,2964222378-71332.jpg,2981240424-145794.jpg,1.0,,,,A1AT1U9SZ2T4NN_2022-09-21_10h01.27.159.csv
820,60,,1.0,40.0,2986451363-73599.jpg,2860302315-210704.jpg,2.0,,,,A1AT1U9SZ2T4NN_2022-09-21_10h01.27.159.csv
821,61,,1.0,41.0,2874301407-363895.jpg,2901947323-70275.jpg,3.0,,,,A1AT1U9SZ2T4NN_2022-09-21_10h01.27.159.csv
822,62,,1.0,42.0,2575120738-55529.jpg,2238531493-28260.jpg,3.0,,,,A1AT1U9SZ2T4NN_2022-09-21_10h01.27.159.csv
823,63,,0.0,43.0,right.jpg,,,right,,,A1AT1U9SZ2T4NN_2022-09-21_10h01.27.159.csv
824,64,,1.0,44.0,2898624426-291546.jpg,2981236443-71859.jpg,2.0,,,,A1AT1U9SZ2T4NN_2022-09-21_10h01.27.159.csv
825,65,,1.0,45.0,2592380177-354626.jpg,2864901386-286797.jpg,2.0,,,,A1AT1U9SZ2T4NN_2022-09-21_10h01.27.159.csv
826,66,,1.0,46.0,2901947423-70311.jpg,2238573447-333826.jpg,2.0,,,,A1AT1U9SZ2T4NN_2022-09-21_10h01.27.159.csv
827,67,,0.0,47.0,right.jpg,,,right,,,A1AT1U9SZ2T4NN_2022-09-21_10h01.27.159.csv
828,68,,1.0,48.0,2901939379-143479.jpg,2446758985-197610.jpg,2.0,,,,A1AT1U9SZ2T4NN_2022-09-21_10h01.27.159.csv
829,69,,1.0,49.0,2964213381-294060.jpg,2964213381-294061.jpg,3.0,,,,A1AT1U9SZ2T4NN_2022-09-21_10h01.27.159.csv
830,70,,1.0,50.0,2592379964-131054.jpg,2592380272-354673.jpg,3.0,,,,A1AT1U9SZ2T4NN_2022-09-21_10h01.27.159.csv
831,71,,1.0,51.0,2592380177-354629.jpg,2512875587-350044.jpg,3.0,,,,A1AT1U9SZ2T4NN_2022-09-21_10h01.27.159.csv
832,72,,1.0,52.0,2874299429-139694.jpg,2986447306-296584.jpg,1.0,,,,A1AT1U9SZ2T4NN_2022-09-21_10h01.27.159.csv
833,73,,1.0,53.0,2898618390-216538.jpg,2237856148-989.jpg,1.0,,,,A1AT1U9SZ2T4NN_2022-09-21_10h01.27.159.csv
834,74,,1.0,54.0,2868475410-213219.jpg,2238480803-19739.jpg,2.0,,,,A1AT1U9SZ2T4NN_2022-09-21_10h01.27.159.csv
835,75,,1.0,55.0,2864907432-362042.jpg,2864901420-212147.jpg,1.0,,,,A1AT1U9SZ2T4NN_2022-09-21_10h01.27.159.csv
836,76,,1.0,56.0,2449442529-124446.jpg,2460547536-274178.jpg,3.0,,,,A1AT1U9SZ2T4NN_2022-09-21_10h01.27.159.csv
837,77,,1.0,57.0,2238580740-186218.jpg,2964220333-71258.jpg,3.0,,,,A1AT1U9SZ2T4NN_2022-09-21_10h01.27.159.csv
838,78,,1.0,58.0,2898635427-367120.jpg,2898621427-366486.jpg,3.0,,,,A1AT1U9SZ2T4NN_2022-09-21_10h01.27.159.csv
839,79,,1.0,59.0,2874307433-66280.jpg,2981246400-220365.jpg,2.0,,,,A1AT1U9SZ2T4NN_2022-09-21_10h01.27.159.csv
840,80,,1.0,60.0,2898617468-68274.jpg,2901943387-368037.jpg,2.0,,,,A1AT1U9SZ2T4NN_2022-09-21_10h01.27.159.csv
841,81,,1.0,61.0,2446758985-197609.jpg,2898624426-291544.jpg,3.0,,,,A1AT1U9SZ2T4NN_2022-09-21_10h01.27.159.csv
842,82,,1.0,62.0,2901941401-292798.jpg,2898631468-68931.jpg,3.0,,,,A1AT1U9SZ2T4NN_2022-09-21_10h01.27.159.csv
843,83,,1.0,63.0,2964216465-219242.jpg,2864900319-137787.jpg,2.0,,,,A1AT1U9SZ2T4NN_2022-09-21_10h01.27.159.csv
844,84,,1.0,64.0,2238428357-313623.jpg,2238499057-320266.jpg,1.0,,,,A1AT1U9SZ2T4NN_2022-09-21_10h01.27.159.csv
845,20,,1.0,0.0,2512875899-126682.jpg,2460547536-274179.jpg,1.0,,,,A3TF2L36Z80Y6N_2022-09-21_06h04.41.022.csv
846,21,,1.0,1.0,2964213381-294060.jpg,2458348012-349114.jpg,2.0,,,,A3TF2L36Z80Y6N_2022-09-21_06h04.41.022.csv
847,22,,1.0,2.0,2452381505-199546.jpg,2898632385-217138.jpg,2.0,,,,A3TF2L36Z80Y6N_2022-09-21_06h04.41.022.csv
848,23,,1.0,3.0,2874299429-139694.jpg,2883266367-365742.jpg,3.0,,,,A3TF2L36Z80Y6N_2022-09-21_06h04.41.022.csv
849,24,,1.0,4.0,2460547467-349422.jpg,2868487415-213924.jpg,2.0,,,,A3TF2L36Z80Y6N_2022-09-21_06h04.41.022.csv
850,25,,1.0,5.0,2986451363-73599.jpg,2898626385-216899.jpg,1.0,,,,A3TF2L36Z80Y6N_2022-09-21_06h04.41.022.csv
851,26,,1.0,6.0,2449442529-124445.jpg,2986408373-73286.jpg,2.0,,,,A3TF2L36Z80Y6N_2022-09-21_06h04.41.022.csv
852,27,,1.0,7.0,2874303365-214262.jpg,2238563377-332054.jpg,2.0,,,,A3TF2L36Z80Y6N_2022-09-21_06h04.41.022.csv
853,28,left,1.0,8.0,left.jpg,,,left,1.1579,,A3TF2L36Z80Y6N_2022-09-21_06h04.41.022.csv
854,29,,1.0,9.0,2238481198-19822.jpg,2901946436-293242.jpg,2.0,,,,A3TF2L36Z80Y6N_2022-09-21_06h04.41.022.csv
855,30,,1.0,10.0,2449442529-124446.jpg,2460547536-274181.jpg,2.0,,,,A3TF2L36Z80Y6N_2022-09-21_06h04.41.022.csv
856,31,,1.0,11.0,2874299429-139695.jpg,2901942443-69923.jpg,2.0,,,,A3TF2L36Z80Y6N_2022-09-21_06h04.41.022.csv
857,32,,1.0,12.0,2238580740-186218.jpg,2964220333-71258.jpg,3.0,,,,A3TF2L36Z80Y6N_2022-09-21_06h04.41.022.csv
858,33,,1.0,13.0,2238425482-313537.jpg,2238471391-240918.jpg,1.0,,,,A3TF2L36Z80Y6N_2022-09-21_06h04.41.022.csv
859,34,,1.0,14.0,2901947423-70311.jpg,2860312398-62572.jpg,1.0,,,,A3TF2L36Z80Y6N_2022-09-21_06h04.41.022.csv
860,35,,1.0,15.0,2898618444-142233.jpg,2898631359-142721.jpg,1.0,,,,A3TF2L36Z80Y6N_2022-09-21_06h04.41.022.csv
861,36,left,1.0,16.0,left.jpg,,,left,1.174,,A3TF2L36Z80Y6N_2022-09-21_06h04.41.022.csv
862,37,,1.0,17.0,2446759803-49249.jpg,2901951392-368654.jpg,3.0,,,,A3TF2L36Z80Y6N_2022-09-21_06h04.41.022.csv
863,38,,1.0,18.0,2964223381-294447.jpg,2427874231-269884.jpg,1.0,,,,A3TF2L36Z80Y6N_2022-09-21_06h04.41.022.csv
864,39,,1.0,19.0,2592379964-131054.jpg,2238479053-19457.jpg,2.0,,,,A3TF2L36Z80Y6N_2022-09-21_06h04.41.022.csv
865,40,,1.0,20.0,2592380177-354629.jpg,2579432534-130704.jpg,2.0,,,,A3TF2L36Z80Y6N_2022-09-21_06h04.41.022.csv
866,41,,1.0,21.0,2868474407-362883.jpg,2460547732-349518.jpg,1.0,,,,A3TF2L36Z80Y6N_2022-09-21_06h04.41.022.csv
867,42,,1.0,22.0,2864910426-287204.jpg,2864902304-137862.jpg,1.0,,,,A3TF2L36Z80Y6N_2022-09-21_06h04.41.022.csv
868,43,,1.0,23.0,2901939379-143480.jpg,2981229442-369621.jpg,2.0,,,,A3TF2L36Z80Y6N_2022-09-21_06h04.41.022.csv
869,44,,1.0,24.0,2883268471-290842.jpg,2883268471-290843.jpg,1.0,,,,A3TF2L36Z80Y6N_2022-09-21_06h04.41.022.csv
870,45,,1.0,25.0,2238560245-182099.jpg,2592380255-205553.jpg,1.0,,,,A3TF2L36Z80Y6N_2022-09-21_06h04.41.022.csv
871,46,,1.0,26.0,2458347385-199723.jpg,2238480434-93829.jpg,1.0,,,,A3TF2L36Z80Y6N_2022-09-21_06h04.41.022.csv
872,47,,1.0,27.0,2981241414-145842.jpg,2427873848-47312.jpg,3.0,,,,A3TF2L36Z80Y6N_2022-09-21_06h04.41.022.csv
873,48,,1.0,28.0,2874301407-363895.jpg,2901947323-70275.jpg,3.0,,,,A3TF2L36Z80Y6N_2022-09-21_06h04.41.022.csv
874,49,,1.0,29.0,2901939379-143479.jpg,2446758985-197610.jpg,2.0,,,,A3TF2L36Z80Y6N_2022-09-21_06h04.41.022.csv
875,50,,1.0,30.0,2964216465-219242.jpg,2898619327-366362.jpg,3.0,,,,A3TF2L36Z80Y6N_2022-09-21_06h04.41.022.csv
876,51,left,1.0,31.0,left.jpg,,,left,1.2106,,A3TF2L36Z80Y6N_2022-09-21_06h04.41.022.csv
877,52,,1.0,32.0,2460547508-51571.jpg,2452380166-273109.jpg,1.0,,,,A3TF2L36Z80Y6N_2022-09-21_06h04.41.022.csv
878,53,,1.0,33.0,2874307433-66280.jpg,2981231422-369714.jpg,3.0,,,,A3TF2L36Z80Y6N_2022-09-21_06h04.41.022.csv
879,54,,1.0,34.0,2238481928-19949.jpg,2981241419-145844.jpg,3.0,,,,A3TF2L36Z80Y6N_2022-09-21_06h04.41.022.csv
880,55,,1.0,35.0,2238572663-35822.jpg,2238584894-113161.jpg,1.0,,,,A3TF2L36Z80Y6N_2022-09-21_06h04.41.022.csv
881,56,,1.0,36.0,2964218374-144967.jpg,2981231446-294732.jpg,3.0,,,,A3TF2L36Z80Y6N_2022-09-21_06h04.41.022.csv
882,57,,1.0,37.0,2901941401-292798.jpg,2898631468-68931.jpg,3.0,,,,A3TF2L36Z80Y6N_2022-09-21_06h04.41.022.csv
883,58,,1.0,38.0,2452380832-348593.jpg,2238328478-11678.jpg,1.0,,,,A3TF2L36Z80Y6N_2022-09-21_06h04.41.022.csv
884,59,,1.0,39.0,2898635427-367120.jpg,2964221435-219434.jpg,1.0,,,,A3TF2L36Z80Y6N_2022-09-21_06h04.41.022.csv
885,60,,1.0,40.0,2964222378-71332.jpg,2981240427-370099.jpg,3.0,,,,A3TF2L36Z80Y6N_2022-09-21_06h04.41.022.csv
886,61,,1.0,41.0,2446758985-197609.jpg,2898624426-291544.jpg,3.0,,,,A3TF2L36Z80Y6N_2022-09-21_06h04.41.022.csv
887,62,right,1.0,42.0,right.jpg,,,right,1.1708,,A3TF2L36Z80Y6N_2022-09-21_06h04.41.022.csv
888,63,,1.0,43.0,2864907432-362042.jpg,2989726338-74002.jpg,3.0,,,,A3TF2L36Z80Y6N_2022-09-21_06h04.41.022.csv
889,64,,1.0,44.0,2981231403-71642.jpg,2579432519-130698.jpg,1.0,,,,A3TF2L36Z80Y6N_2022-09-21_06h04.41.022.csv
890,65,,1.0,45.0,2874302418-65979.jpg,2237857458-1325.jpg,1.0,,,,A3TF2L36Z80Y6N_2022-09-21_06h04.41.022.csv
891,66,,1.0,46.0,2898617468-68274.jpg,2901943387-368037.jpg,2.0,,,,A3TF2L36Z80Y6N_2022-09-21_06h04.41.022.csv
892,67,,1.0,47.0,2898618390-216538.jpg,2901939327-367670.jpg,2.0,,,,A3TF2L36Z80Y6N_2022-09-21_06h04.41.022.csv
893,68,,1.0,48.0,2901952513-70703.jpg,2238481198-19821.jpg,3.0,,,,A3TF2L36Z80Y6N_2022-09-21_06h04.41.022.csv
894,69,right,1.0,49.0,right.jpg,,,right,1.0399,,A3TF2L36Z80Y6N_2022-09-21_06h04.41.022.csv
895,70,,1.0,50.0,2460547467-349421.jpg,2452380166-273110.jpg,2.0,,,,A3TF2L36Z80Y6N_2022-09-21_06h04.41.022.csv
896,71,,1.0,51.0,2868475410-213219.jpg,2868474407-362885.jpg,3.0,,,,A3TF2L36Z80Y6N_2022-09-21_06h04.41.022.csv
897,72,,1.0,52.0,2238428357-313623.jpg,2238499057-320266.jpg,1.0,,,,A3TF2L36Z80Y6N_2022-09-21_06h04.41.022.csv
898,73,,1.0,53.0,2883268412-365898.jpg,2238436252-314037.jpg,3.0,,,,A3TF2L36Z80Y6N_2022-09-21_06h04.41.022.csv
899,74,,1.0,54.0,2592380177-354626.jpg,2238117096-228518.jpg,3.0,,,,A3TF2L36Z80Y6N_2022-09-21_06h04.41.022.csv
900,75,,1.0,55.0,2883273443-68193.jpg,2460547508-51572.jpg,2.0,,,,A3TF2L36Z80Y6N_2022-09-21_06h04.41.022.csv
901,76,,1.0,56.0,2986451363-73598.jpg,2984628361-295995.jpg,2.0,,,,A3TF2L36Z80Y6N_2022-09-21_06h04.41.022.csv
902,77,,1.0,57.0,2874302418-65978.jpg,2238481198-19823.jpg,2.0,,,,A3TF2L36Z80Y6N_2022-09-21_06h04.41.022.csv
903,78,,1.0,58.0,2575120738-55529.jpg,2238531493-28260.jpg,3.0,,,,A3TF2L36Z80Y6N_2022-09-21_06h04.41.022.csv
904,79,,1.0,59.0,2898624426-291546.jpg,2964218432-369263.jpg,1.0,,,,A3TF2L36Z80Y6N_2022-09-21_06h04.41.022.csv
905,80,,1.0,60.0,2898633421-291973.jpg,2575118671-277663.jpg,2.0,,,,A3TF2L36Z80Y6N_2022-09-21_06h04.41.022.csv
906,81,,1.0,61.0,2898635428-69104.jpg,2898625336-291572.jpg,3.0,,,,A3TF2L36Z80Y6N_2022-09-21_06h04.41.022.csv
907,82,,1.0,62.0,2883256307-365057.jpg,2864904453-63933.jpg,3.0,,,,A3TF2L36Z80Y6N_2022-09-21_06h04.41.022.csv
908,83,,1.0,63.0,2898634397-367080.jpg,2901934408-69289.jpg,2.0,,,,A3TF2L36Z80Y6N_2022-09-21_06h04.41.022.csv
909,84,,1.0,64.0,2238480677-317399.jpg,2238481630-168218.jpg,1.0,,,,A3TF2L36Z80Y6N_2022-09-21_06h04.41.022.csv
910,20,,1.0,0.0,2901941401-292798.jpg,2898618327-366317.jpg,1.0,,,,A28JWKICT1X73Z_2022-09-21_09h03.23.661.csv
911,21,,1.0,1.0,2964222378-71332.jpg,2981240427-370099.jpg,3.0,,,,A28JWKICT1X73Z_2022-09-21_09h03.23.661.csv
912,22,,1.0,2.0,2981241414-145842.jpg,2427873848-47312.jpg,3.0,,,,A28JWKICT1X73Z_2022-09-21_09h03.23.661.csv
913,23,,1.0,3.0,2901947423-70311.jpg,2860312398-62572.jpg,1.0,,,,A28JWKICT1X73Z_2022-09-21_09h03.23.661.csv
914,24,,1.0,4.0,2874299429-139694.jpg,2986447306-296584.jpg,1.0,,,,A28JWKICT1X73Z_2022-09-21_09h03.23.661.csv
915,25,,1.0,5.0,2981231403-71642.jpg,2427873763-47290.jpg,3.0,,,,A28JWKICT1X73Z_2022-09-21_09h03.23.661.csv
916,26,,1.0,6.0,2446759803-49249.jpg,2898618440-216547.jpg,2.0,,,,A28JWKICT1X73Z_2022-09-21_09h03.23.661.csv
917,27,,1.0,7.0,2874299429-139695.jpg,2446760917-347439.jpg,3.0,,,,A28JWKICT1X73Z_2022-09-21_09h03.23.661.csv
918,28,,1.0,8.0,2864910426-287204.jpg,2901939433-69672.jpg,3.0,,,,A28JWKICT1X73Z_2022-09-21_09h03.23.661.csv
919,29,left,1.0,9.0,left.jpg,,,left,1.1673,,A28JWKICT1X73Z_2022-09-21_09h03.23.661.csv
920,30,,1.0,10.0,2238560245-182099.jpg,2592380255-205553.jpg,1.0,,,,A28JWKICT1X73Z_2022-09-21_09h03.23.661.csv
921,31,,1.0,11.0,2449442529-124445.jpg,2986408373-73286.jpg,2.0,,,,A28JWKICT1X73Z_2022-09-21_09h03.23.661.csv
922,32,,1.0,12.0,2898624426-291546.jpg,2981236443-71859.jpg,2.0,,,,A28JWKICT1X73Z_2022-09-21_09h03.23.661.csv
923,33,,1.0,13.0,2964223381-294447.jpg,2427874231-269884.jpg,1.0,,,,A28JWKICT1X73Z_2022-09-21_09h03.23.661.csv
924,34,,1.0,14.0,2452381505-199546.jpg,2898632385-217138.jpg,2.0,,,,A28JWKICT1X73Z_2022-09-21_09h03.23.661.csv
