button.numClicks,button.timesOn,button.timesOff,workID,Age,Gender,Hours slept (last night),date,expName,psychopyVersion,OS,frameRate,space_key_responce.keys,space_key_responce.rt,demo_encoding_response.keys,demo_encoding_response.corr,demo_encoding_loop.thisRepN,demo_encoding_loop.thisTrialN,demo_encoding_loop.thisN,demo_encoding_loop.thisIndex,demo_encoding_loop.ran,DemoImage,DemoCorrect,demo_test_response.keys,demo_test_response.corr,demo_test_response.rt,demo_test_loop.thisRepN,demo_test_loop.thisTrialN,demo_test_loop.thisN,demo_test_loop.thisIndex,demo_test_loop.ran,DemoImage1,DemoImage2,DemoCorrectTest,test_encoding_response.keys,test_encoding_response.corr,trials.thisRepN,trials.thisTrialN,trials.thisN,trials.thisIndex,trials.ran,target_image,pair,layer,correct,test_encoding_response.rt,key_resp_end.keys,key_resp_end.rt,test_test_response.keys,test_test_response.corr,test_test_response.rt,trials_2.thisRepN,trials_2.thisTrialN,trials_2.thisN,trials_2.thisIndex,trials_2.ran,image1,image2,key_resp_end_2.keys,key_resp_end_2.rt
1,[4.328899999618528],[4.329000000000008],A2TI9ZTXN1GNTV,30,ale,8,2022-09-25_06h13.01.777,memory_pilot_most_recent,2022.2.4,Win32,16.00435318,,,,,,,,,,,,,,,,,,,,,,,,,,,,,,,,,,,,,,,,,,,,,,,,
,,,A2TI9ZTXN1GNTV,30,ale,8,2022-09-25_06h13.01.777,memory_pilot_most_recent,2022.2.4,Win32,16.00435318,,,,,,,,,,,,,,,,,,,,,,,,,,,,,,,,,,,,,,,,,,,,,,,,
,,,A2TI9ZTXN1GNTV,30,ale,8,2022-09-25_06h13.01.777,memory_pilot_most_recent,2022.2.4,Win32,16.00435318,space,2.5785,,,,,,,,,,,,,,,,,,,,,,,,,,,,,,,,,,,,,,,,,,,,,,
,,,A2TI9ZTXN1GNTV,30,ale,8,2022-09-25_06h13.01.777,memory_pilot_most_recent,2022.2.4,Win32,16.00435318,,,,,,,,,,,,,,,,,,,,,,,,,,,,,,,,,,,,,,,,,,,,,,,,
,,,A2TI9ZTXN1GNTV,30,ale,8,2022-09-25_06h13.01.777,memory_pilot_most_recent,2022.2.4,Win32,16.00435318,,,,1,0,0,0,0,1,flower1.jpg,,,,,,,,,,,,,,,,,,,,,,,,,,,,,,,,,,,,,,
,,,A2TI9ZTXN1GNTV,30,ale,8,2022-09-25_06h13.01.777,memory_pilot_most_recent,2022.2.4,Win32,16.00435318,,,,1,0,1,1,1,1,flower2.jpg,,,,,,,,,,,,,,,,,,,,,,,,,,,,,,,,,,,,,,
,,,A2TI9ZTXN1GNTV,30,ale,8,2022-09-25_06h13.01.777,memory_pilot_most_recent,2022.2.4,Win32,16.00435318,,,,0,0,2,2,2,1,left.jpg,left,,,,,,,,,,,,,,,,,,,,,,,,,,,,,,,,,,,,,
,,,A2TI9ZTXN1GNTV,30,ale,8,2022-09-25_06h13.01.777,memory_pilot_most_recent,2022.2.4,Win32,16.00435318,,,,1,0,3,3,3,1,flower3.jpg,,,,,,,,,,,,,,,,,,,,,,,,,,,,,,,,,,,,,,
,,,A2TI9ZTXN1GNTV,30,ale,8,2022-09-25_06h13.01.777,memory_pilot_most_recent,2022.2.4,Win32,16.00435318,,,,1,0,4,4,4,1,flower4.jpg,,,,,,,,,,,,,,,,,,,,,,,,,,,,,,,,,,,,,,
,,,A2TI9ZTXN1GNTV,30,ale,8,2022-09-25_06h13.01.777,memory_pilot_most_recent,2022.2.4,Win32,16.00435318,,,,1,0,5,5,5,1,flower5.jpg,,,,,,,,,,,,,,,,,,,,,,,,,,,,,,,,,,,,,,
,,,A2TI9ZTXN1GNTV,30,ale,8,2022-09-25_06h13.01.777,memory_pilot_most_recent,2022.2.4,Win32,16.00435318,,,,1,0,6,6,6,1,flower6.jpg,,,,,,,,,,,,,,,,,,,,,,,,,,,,,,,,,,,,,,
,,,A2TI9ZTXN1GNTV,30,ale,8,2022-09-25_06h13.01.777,memory_pilot_most_recent,2022.2.4,Win32,16.00435318,,,,,,,,,,,,,,,,,,,,,,,,,,,,,,,,,,,,,,,,,,,,,,,,
,,,A2TI9ZTXN1GNTV,30,ale,8,2022-09-25_06h13.01.777,memory_pilot_most_recent,2022.2.4,Win32,16.00435318,,,,,,,,,,,,left,1,175.0845,0,0,0,0,1,flower1.jpg,flower1_pair.jpg,left,,,,,,,,,,,,,,,,,,,,,,,,,,
,,,A2TI9ZTXN1GNTV,30,ale,8,2022-09-25_06h13.01.777,memory_pilot_most_recent,2022.2.4,Win32,16.00435318,,,,,,,,,,,,right,1,0.1624,0,1,1,1,1,flower2_pair.jpg,flower2.jpg,right,,,,,,,,,,,,,,,,,,,,,,,,,,
,,,A2TI9ZTXN1GNTV,30,ale,8,2022-09-25_06h13.01.777,memory_pilot_most_recent,2022.2.4,Win32,16.00435318,,,,,,,,,,,,right,0,1.014,0,2,2,2,1,flower3.jpg,flower3_pair.jpg,left,,,,,,,,,,,,,,,,,,,,,,,,,,
,,,A2TI9ZTXN1GNTV,30,ale,8,2022-09-25_06h13.01.777,memory_pilot_most_recent,2022.2.4,Win32,16.00435318,,,,,,,,,,,,right,0,1.488,0,3,3,3,1,flower4.jpg,flower4_pair.jpg,left,,,,,,,,,,,,,,,,,,,,,,,,,,
,,,A2TI9ZTXN1GNTV,30,ale,8,2022-09-25_06h13.01.777,memory_pilot_most_recent,2022.2.4,Win32,16.00435318,,,,,,,,,,,,left,0,0.3189,0,4,4,4,1,flower5_pair.jpg,flower5.jpg,right,,,,,,,,,,,,,,,,,,,,,,,,,,
,,,A2TI9ZTXN1GNTV,30,ale,8,2022-09-25_06h13.01.777,memory_pilot_most_recent,2022.2.4,Win32,16.00435318,,,,,,,,,,,,right,0,0.1603,0,5,5,5,1,flower6.jpg,flower6_pair.jpg,left,,,,,,,,,,,,,,,,,,,,,,,,,,
,,,A2TI9ZTXN1GNTV,30,ale,8,2022-09-25_06h13.01.777,memory_pilot_most_recent,2022.2.4,Win32,16.00435318,,,,,,,,,,,,,,,,,,,,,,,,,,,,,,,,,,,,,,,,,,,,,,,,
,,,A2TI9ZTXN1GNTV,30,ale,8,2022-09-25_06h13.01.777,memory_pilot_most_recent,2022.2.4,Win32,16.00435318,space,4.8509,,,,,,,,,,,,,,,,,,,,,,,,,,,,,,,,,,,,,,,,,,,,,,
,,,A2TI9ZTXN1GNTV,30,ale,8,2022-09-25_06h13.01.777,memory_pilot_most_recent,2022.2.4,Win32,16.00435318,,,,,,,,,,,,,,,,,,,,,,,,1,0,0,0,0,1,2898635427-367120.jpg,2898621427-366486.jpg,3,,,,,,,,,,,,,,,,
,,,A2TI9ZTXN1GNTV,30,ale,8,2022-09-25_06h13.01.777,memory_pilot_most_recent,2022.2.4,Win32,16.00435318,,,,,,,,,,,,,,,,,,,,,,,,1,0,1,1,1,1,2874299429-139695.jpg,2446760917-347439.jpg,3,,,,,,,,,,,,,,,,
,,,A2TI9ZTXN1GNTV,30,ale,8,2022-09-25_06h13.01.777,memory_pilot_most_recent,2022.2.4,Win32,16.00435318,,,,,,,,,,,,,,,,,,,,,,,,1,0,2,2,2,1,2238572663-35822.jpg,2864903351-286874.jpg,3,,,,,,,,,,,,,,,,
,,,A2TI9ZTXN1GNTV,30,ale,8,2022-09-25_06h13.01.777,memory_pilot_most_recent,2022.2.4,Win32,16.00435318,,,,,,,,,,,,,,,,,,,,,,,,1,0,3,3,3,1,2986451363-73599.jpg,2860302315-210704.jpg,2,,,,,,,,,,,,,,,,
,,,A2TI9ZTXN1GNTV,30,ale,8,2022-09-25_06h13.01.777,memory_pilot_most_recent,2022.2.4,Win32,16.00435318,,,,,,,,,,,,,,,,,,,,,,,,1,0,4,4,4,1,2446759803-49249.jpg,2901951392-368654.jpg,3,,,,,,,,,,,,,,,,
,,,A2TI9ZTXN1GNTV,30,ale,8,2022-09-25_06h13.01.777,memory_pilot_most_recent,2022.2.4,Win32,16.00435318,,,,,,,,,,,,,,,,,,,,,,,,1,0,5,5,5,1,2898617468-68274.jpg,2901946439-144040.jpg,1,,,,,,,,,,,,,,,,
,,,A2TI9ZTXN1GNTV,30,ale,8,2022-09-25_06h13.01.777,memory_pilot_most_recent,2022.2.4,Win32,16.00435318,,,,,,,,,,,,,,,,,,,,,,,,1,0,6,6,6,1,2446758985-197609.jpg,2981240424-145795.jpg,1,,,,,,,,,,,,,,,,
,,,A2TI9ZTXN1GNTV,30,ale,8,2022-09-25_06h13.01.777,memory_pilot_most_recent,2022.2.4,Win32,16.00435318,,,,,,,,,,,,,,,,,,,,,,,,1,0,7,7,7,1,2458347385-199723.jpg,2427874554-121863.jpg,2,,,,,,,,,,,,,,,,
,,,A2TI9ZTXN1GNTV,30,ale,8,2022-09-25_06h13.01.777,memory_pilot_most_recent,2022.2.4,Win32,16.00435318,,,,,,,,,,,,,,,,,,,,,,,,1,0,8,8,8,1,2898624426-291546.jpg,2964218432-369263.jpg,1,,,,,,,,,,,,,,,,
,,,A2TI9ZTXN1GNTV,30,ale,8,2022-09-25_06h13.01.777,memory_pilot_most_recent,2022.2.4,Win32,16.00435318,,,,,,,,,,,,,,,,,,,,,,,,1,0,9,9,9,1,2898618390-216538.jpg,2575120609-129862.jpg,3,,,,,,,,,,,,,,,,
,,,A2TI9ZTXN1GNTV,30,ale,8,2022-09-25_06h13.01.777,memory_pilot_most_recent,2022.2.4,Win32,16.00435318,,,,,,,,,,,,,,,,,,,,,,,,1,0,10,10,10,1,2460547467-349421.jpg,2898631394-142727.jpg,1,,,,,,,,,,,,,,,,
,,,A2TI9ZTXN1GNTV,30,ale,8,2022-09-25_06h13.01.777,memory_pilot_most_recent,2022.2.4,Win32,16.00435318,,,,,,,,,,,,,,,,,,,,,,,,1,0,11,11,11,1,2460547467-349422.jpg,2864909447-362146.jpg,3,,,,,,,,,,,,,,,,
,,,A2TI9ZTXN1GNTV,30,ale,8,2022-09-25_06h13.01.777,memory_pilot_most_recent,2022.2.4,Win32,16.00435318,,,,,,,,,,,,,,,,,,,,,,,right,1,0,12,12,12,1,right.jpg,,,right,1.8203,,,,,,,,,,,,,,
,,,A2TI9ZTXN1GNTV,30,ale,8,2022-09-25_06h13.01.777,memory_pilot_most_recent,2022.2.4,Win32,16.00435318,,,,,,,,,,,,,,,,,,,,,,,,1,0,13,13,13,1,2868475410-213219.jpg,2868474407-362885.jpg,3,,,,,,,,,,,,,,,,
,,,A2TI9ZTXN1GNTV,30,ale,8,2022-09-25_06h13.01.777,memory_pilot_most_recent,2022.2.4,Win32,16.00435318,,,,,,,,,,,,,,,,,,,,,,,,1,0,14,14,14,1,2901939379-143480.jpg,2981229442-369621.jpg,2,,,,,,,,,,,,,,,,
,,,A2TI9ZTXN1GNTV,30,ale,8,2022-09-25_06h13.01.777,memory_pilot_most_recent,2022.2.4,Win32,16.00435318,,,,,,,,,,,,,,,,,,,,,,,,1,0,15,15,15,1,2986451363-73598.jpg,2984628361-295995.jpg,2,,,,,,,,,,,,,,,,
,,,A2TI9ZTXN1GNTV,30,ale,8,2022-09-25_06h13.01.777,memory_pilot_most_recent,2022.2.4,Win32,16.00435318,,,,,,,,,,,,,,,,,,,,,,,,1,0,16,16,16,1,2874301407-363895.jpg,2901947323-70275.jpg,3,,,,,,,,,,,,,,,,
,,,A2TI9ZTXN1GNTV,30,ale,8,2022-09-25_06h13.01.777,memory_pilot_most_recent,2022.2.4,Win32,16.00435318,,,,,,,,,,,,,,,,,,,,,,,,0,0,17,17,17,1,left.jpg,,,left,,,,,,,,,,,,,,,
,,,A2TI9ZTXN1GNTV,30,ale,8,2022-09-25_06h13.01.777,memory_pilot_most_recent,2022.2.4,Win32,16.00435318,,,,,,,,,,,,,,,,,,,,,,,,1,0,18,18,18,1,2901947423-70311.jpg,2238573447-333826.jpg,2,,,,,,,,,,,,,,,,
,,,A2TI9ZTXN1GNTV,30,ale,8,2022-09-25_06h13.01.777,memory_pilot_most_recent,2022.2.4,Win32,16.00435318,,,,,,,,,,,,,,,,,,,,,,,,1,0,19,19,19,1,2460547508-51571.jpg,2452380166-273109.jpg,1,,,,,,,,,,,,,,,,
,,,A2TI9ZTXN1GNTV,30,ale,8,2022-09-25_06h13.01.777,memory_pilot_most_recent,2022.2.4,Win32,16.00435318,,,,,,,,,,,,,,,,,,,,,,,,1,0,20,20,20,1,2883268412-365898.jpg,2984626312-370849.jpg,1,,,,,,,,,,,,,,,,
,,,A2TI9ZTXN1GNTV,30,ale,8,2022-09-25_06h13.01.777,memory_pilot_most_recent,2022.2.4,Win32,16.00435318,,,,,,,,,,,,,,,,,,,,,,,,1,0,21,21,21,1,2452381505-199546.jpg,2898632385-217138.jpg,2,,,,,,,,,,,,,,,,
,,,A2TI9ZTXN1GNTV,30,ale,8,2022-09-25_06h13.01.777,memory_pilot_most_recent,2022.2.4,Win32,16.00435318,,,,,,,,,,,,,,,,,,,,,,,,1,0,22,22,22,1,2238481928-19949.jpg,2883264367-365620.jpg,1,,,,,,,,,,,,,,,,
,,,A2TI9ZTXN1GNTV,30,ale,8,2022-09-25_06h13.01.777,memory_pilot_most_recent,2022.2.4,Win32,16.00435318,,,,,,,,,,,,,,,,,,,,,,,,1,0,23,23,23,1,2901941401-292798.jpg,2898618327-366317.jpg,1,,,,,,,,,,,,,,,,
,,,A2TI9ZTXN1GNTV,30,ale,8,2022-09-25_06h13.01.777,memory_pilot_most_recent,2022.2.4,Win32,16.00435318,,,,,,,,,,,,,,,,,,,,,,,,1,0,24,24,24,1,2868474407-362883.jpg,2460547732-349518.jpg,1,,,,,,,,,,,,,,,,
,,,A2TI9ZTXN1GNTV,30,ale,8,2022-09-25_06h13.01.777,memory_pilot_most_recent,2022.2.4,Win32,16.00435318,,,,,,,,,,,,,,,,,,,,,,,,1,0,25,25,25,1,2449442529-124446.jpg,2446759803-49251.jpg,1,,,,,,,,,,,,,,,,
,,,A2TI9ZTXN1GNTV,30,ale,8,2022-09-25_06h13.01.777,memory_pilot_most_recent,2022.2.4,Win32,16.00435318,,,,,,,,,,,,,,,,,,,,,,,,1,0,26,26,26,1,2898633421-291973.jpg,2512876023-52283.jpg,1,,,,,,,,,,,,,,,,
,,,A2TI9ZTXN1GNTV,30,ale,8,2022-09-25_06h13.01.777,memory_pilot_most_recent,2022.2.4,Win32,16.00435318,,,,,,,,,,,,,,,,,,,,,,,,1,0,27,27,27,1,2592380177-354629.jpg,2512875587-350044.jpg,3,,,,,,,,,,,,,,,,
,,,A2TI9ZTXN1GNTV,30,ale,8,2022-09-25_06h13.01.777,memory_pilot_most_recent,2022.2.4,Win32,16.00435318,,,,,,,,,,,,,,,,,,,,,,,,1,0,28,28,28,1,2592379964-131054.jpg,2592380272-354673.jpg,3,,,,,,,,,,,,,,,,
,,,A2TI9ZTXN1GNTV,30,ale,8,2022-09-25_06h13.01.777,memory_pilot_most_recent,2022.2.4,Win32,16.00435318,,,,,,,,,,,,,,,,,,,,,,,,1,0,29,29,29,1,2864910426-287204.jpg,2901939433-69672.jpg,3,,,,,,,,,,,,,,,,
,,,A2TI9ZTXN1GNTV,30,ale,8,2022-09-25_06h13.01.777,memory_pilot_most_recent,2022.2.4,Win32,16.00435318,,,,,,,,,,,,,,,,,,,,,,,,1,0,30,30,30,1,2238428357-313623.jpg,2238499057-320266.jpg,1,,,,,,,,,,,,,,,,
,,,A2TI9ZTXN1GNTV,30,ale,8,2022-09-25_06h13.01.777,memory_pilot_most_recent,2022.2.4,Win32,16.00435318,,,,,,,,,,,,,,,,,,,,,,,,1,0,31,31,31,1,2964223381-294447.jpg,2901941438-69836.jpg,2,,,,,,,,,,,,,,,,
,,,A2TI9ZTXN1GNTV,30,ale,8,2022-09-25_06h13.01.777,memory_pilot_most_recent,2022.2.4,Win32,16.00435318,,,,,,,,,,,,,,,,,,,,,,,,1,0,32,32,32,1,2452380832-348593.jpg,2238481813-19930.jpg,2,,,,,,,,,,,,,,,,
,,,A2TI9ZTXN1GNTV,30,ale,8,2022-09-25_06h13.01.777,memory_pilot_most_recent,2022.2.4,Win32,16.00435318,,,,,,,,,,,,,,,,,,,,,,,right,1,0,33,33,33,1,right.jpg,,,right,1.7567,,,,,,,,,,,,,,
,,,A2TI9ZTXN1GNTV,30,ale,8,2022-09-25_06h13.01.777,memory_pilot_most_recent,2022.2.4,Win32,16.00435318,,,,,,,,,,,,,,,,,,,,,,,,1,0,34,34,34,1,2964222378-71332.jpg,2901933382-367209.jpg,2,,,,,,,,,,,,,,,,
,,,A2TI9ZTXN1GNTV,30,ale,8,2022-09-25_06h13.01.777,memory_pilot_most_recent,2022.2.4,Win32,16.00435318,,,,,,,,,,,,,,,,,,,,,,,,1,0,35,35,35,1,2901939379-143479.jpg,2446758985-197610.jpg,2,,,,,,,,,,,,,,,,
,,,A2TI9ZTXN1GNTV,30,ale,8,2022-09-25_06h13.01.777,memory_pilot_most_recent,2022.2.4,Win32,16.00435318,,,,,,,,,,,,,,,,,,,,,,,,1,0,36,36,36,1,2575120738-55529.jpg,2238531493-28260.jpg,3,,,,,,,,,,,,,,,,
,,,A2TI9ZTXN1GNTV,30,ale,8,2022-09-25_06h13.01.777,memory_pilot_most_recent,2022.2.4,Win32,16.00435318,,,,,,,,,,,,,,,,,,,,,,,,1,0,37,37,37,1,2874302418-65978.jpg,2964224310-219528.jpg,1,,,,,,,,,,,,,,,,
,,,A2TI9ZTXN1GNTV,30,ale,8,2022-09-25_06h13.01.777,memory_pilot_most_recent,2022.2.4,Win32,16.00435318,,,,,,,,,,,,,,,,,,,,,,,,1,0,38,38,38,1,2874307433-66280.jpg,2981231422-369714.jpg,3,,,,,,,,,,,,,,,,
,,,A2TI9ZTXN1GNTV,30,ale,8,2022-09-25_06h13.01.777,memory_pilot_most_recent,2022.2.4,Win32,16.00435318,,,,,,,,,,,,,,,,,,,,,,,,1,0,39,39,39,1,2964218374-144967.jpg,2981231446-294732.jpg,3,,,,,,,,,,,,,,,,
,,,A2TI9ZTXN1GNTV,30,ale,8,2022-09-25_06h13.01.777,memory_pilot_most_recent,2022.2.4,Win32,16.00435318,,,,,,,,,,,,,,,,,,,,,,,,1,0,40,40,40,1,2874299429-139694.jpg,2981244403-72215.jpg,2,,,,,,,,,,,,,,,,
,,,A2TI9ZTXN1GNTV,30,ale,8,2022-09-25_06h13.01.777,memory_pilot_most_recent,2022.2.4,Win32,16.00435318,,,,,,,,,,,,,,,,,,,,,,,,1,0,41,41,41,1,2964216465-219242.jpg,2898619327-366362.jpg,3,,,,,,,,,,,,,,,,
,,,A2TI9ZTXN1GNTV,30,ale,8,2022-09-25_06h13.01.777,memory_pilot_most_recent,2022.2.4,Win32,16.00435318,,,,,,,,,,,,,,,,,,,,,,,,1,0,42,42,42,1,2238480677-317399.jpg,2238481630-168218.jpg,1,,,,,,,,,,,,,,,,
,,,A2TI9ZTXN1GNTV,30,ale,8,2022-09-25_06h13.01.777,memory_pilot_most_recent,2022.2.4,Win32,16.00435318,,,,,,,,,,,,,,,,,,,,,,,,1,0,43,43,43,1,2964213381-294060.jpg,2964213381-294061.jpg,3,,,,,,,,,,,,,,,,
,,,A2TI9ZTXN1GNTV,30,ale,8,2022-09-25_06h13.01.777,memory_pilot_most_recent,2022.2.4,Win32,16.00435318,,,,,,,,,,,,,,,,,,,,,,,right,1,0,44,44,44,1,right.jpg,,,right,2.5172,,,,,,,,,,,,,,
,,,A2TI9ZTXN1GNTV,30,ale,8,2022-09-25_06h13.01.777,memory_pilot_most_recent,2022.2.4,Win32,16.00435318,,,,,,,,,,,,,,,,,,,,,,,,1,0,45,45,45,1,2898618444-142233.jpg,2898631359-142721.jpg,1,,,,,,,,,,,,,,,,
,,,A2TI9ZTXN1GNTV,30,ale,8,2022-09-25_06h13.01.777,memory_pilot_most_recent,2022.2.4,Win32,16.00435318,,,,,,,,,,,,,,,,,,,,,,,,1,0,46,46,46,1,2238481198-19822.jpg,2238480803-19737.jpg,3,,,,,,,,,,,,,,,,
,,,A2TI9ZTXN1GNTV,30,ale,8,2022-09-25_06h13.01.777,memory_pilot_most_recent,2022.2.4,Win32,16.00435318,,,,,,,,,,,,,,,,,,,,,,,,1,0,47,47,47,1,2883268471-290842.jpg,2901947448-70314.jpg,3,,,,,,,,,,,,,,,,
,,,A2TI9ZTXN1GNTV,30,ale,8,2022-09-25_06h13.01.777,memory_pilot_most_recent,2022.2.4,Win32,16.00435318,,,,,,,,,,,,,,,,,,,,,,,right,1,0,48,48,48,1,right.jpg,,,right,1.8152,,,,,,,,,,,,,,
,,,A2TI9ZTXN1GNTV,30,ale,8,2022-09-25_06h13.01.777,memory_pilot_most_recent,2022.2.4,Win32,16.00435318,,,,,,,,,,,,,,,,,,,,,,,,1,0,49,49,49,1,2238425482-313537.jpg,2238436322-314047.jpg,2,,,,,,,,,,,,,,,,
,,,A2TI9ZTXN1GNTV,30,ale,8,2022-09-25_06h13.01.777,memory_pilot_most_recent,2022.2.4,Win32,16.00435318,,,,,,,,,,,,,,,,,,,,,,,,1,0,50,50,50,1,2901952513-70703.jpg,2868469411-287540.jpg,2,,,,,,,,,,,,,,,,
,,,A2TI9ZTXN1GNTV,30,ale,8,2022-09-25_06h13.01.777,memory_pilot_most_recent,2022.2.4,Win32,16.00435318,,,,,,,,,,,,,,,,,,,,,,,,1,0,51,51,51,1,2874303365-214262.jpg,2238563377-332054.jpg,2,,,,,,,,,,,,,,,,
,,,A2TI9ZTXN1GNTV,30,ale,8,2022-09-25_06h13.01.777,memory_pilot_most_recent,2022.2.4,Win32,16.00435318,,,,,,,,,,,,,,,,,,,,,,,,1,0,52,52,52,1,2512875899-126682.jpg,2592380177-354628.jpg,2,,,,,,,,,,,,,,,,
,,,A2TI9ZTXN1GNTV,30,ale,8,2022-09-25_06h13.01.777,memory_pilot_most_recent,2022.2.4,Win32,16.00435318,,,,,,,,,,,,,,,,,,,,,,,,1,0,53,53,53,1,2981231403-71642.jpg,2579432519-130698.jpg,1,,,,,,,,,,,,,,,,
,,,A2TI9ZTXN1GNTV,30,ale,8,2022-09-25_06h13.01.777,memory_pilot_most_recent,2022.2.4,Win32,16.00435318,,,,,,,,,,,,,,,,,,,,,,,,1,0,54,54,54,1,2898634397-367080.jpg,2901934408-69289.jpg,2,,,,,,,,,,,,,,,,
,,,A2TI9ZTXN1GNTV,30,ale,8,2022-09-25_06h13.01.777,memory_pilot_most_recent,2022.2.4,Win32,16.00435318,,,,,,,,,,,,,,,,,,,,,,,,1,0,55,55,55,1,2874302418-65979.jpg,2238578544-111698.jpg,3,,,,,,,,,,,,,,,,
,,,A2TI9ZTXN1GNTV,30,ale,8,2022-09-25_06h13.01.777,memory_pilot_most_recent,2022.2.4,Win32,16.00435318,,,,,,,,,,,,,,,,,,,,,,,,1,0,56,56,56,1,2238560245-182099.jpg,2592380255-205553.jpg,1,,,,,,,,,,,,,,,,
,,,A2TI9ZTXN1GNTV,30,ale,8,2022-09-25_06h13.01.777,memory_pilot_most_recent,2022.2.4,Win32,16.00435318,,,,,,,,,,,,,,,,,,,,,,,,1,0,57,57,57,1,2883273443-68193.jpg,2883254439-140940.jpg,1,,,,,,,,,,,,,,,,
,,,A2TI9ZTXN1GNTV,30,ale,8,2022-09-25_06h13.01.777,memory_pilot_most_recent,2022.2.4,Win32,16.00435318,,,,,,,,,,,,,,,,,,,,,,,,1,0,58,58,58,1,2883256307-365057.jpg,2964210336-293945.jpg,2,,,,,,,,,,,,,,,,
,,,A2TI9ZTXN1GNTV,30,ale,8,2022-09-25_06h13.01.777,memory_pilot_most_recent,2022.2.4,Win32,16.00435318,,,,,,,,,,,,,,,,,,,,,,,,1,0,59,59,59,1,2864907432-362042.jpg,2901947423-70310.jpg,2,,,,,,,,,,,,,,,,
,,,A2TI9ZTXN1GNTV,30,ale,8,2022-09-25_06h13.01.777,memory_pilot_most_recent,2022.2.4,Win32,16.00435318,,,,,,,,,,,,,,,,,,,,,,,,1,0,60,60,60,1,2592380177-354626.jpg,2238576792-334659.jpg,1,,,,,,,,,,,,,,,,
,,,A2TI9ZTXN1GNTV,30,ale,8,2022-09-25_06h13.01.777,memory_pilot_most_recent,2022.2.4,Win32,16.00435318,,,,,,,,,,,,,,,,,,,,,,,,1,0,61,61,61,1,2238580740-186218.jpg,2238521193-26285.jpg,2,,,,,,,,,,,,,,,,
,,,A2TI9ZTXN1GNTV,30,ale,8,2022-09-25_06h13.01.777,memory_pilot_most_recent,2022.2.4,Win32,16.00435318,,,,,,,,,,,,,,,,,,,,,,,,1,0,62,62,62,1,2898635428-69104.jpg,2446759803-49250.jpg,1,,,,,,,,,,,,,,,,
,,,A2TI9ZTXN1GNTV,30,ale,8,2022-09-25_06h13.01.777,memory_pilot_most_recent,2022.2.4,Win32,16.00435318,,,,,,,,,,,,,,,,,,,,,,,,1,0,63,63,63,1,2449442529-124445.jpg,2898632385-217137.jpg,3,,,,,,,,,,,,,,,,
,,,A2TI9ZTXN1GNTV,30,ale,8,2022-09-25_06h13.01.777,memory_pilot_most_recent,2022.2.4,Win32,16.00435318,,,,,,,,,,,,,,,,,,,,,,,,1,0,64,64,64,1,2981241414-145842.jpg,2874301404-139813.jpg,2,,,,,,,,,,,,,,,,
,,,A2TI9ZTXN1GNTV,30,ale,8,2022-09-25_06h13.01.777,memory_pilot_most_recent,2022.2.4,Win32,16.00435318,,,,,,,,,,,,,,,,,,,,,,,,,,,,,,,,,,,space,15.4881,,,,,,,,,,,,
,,,A2TI9ZTXN1GNTV,30,ale,8,2022-09-25_06h13.01.777,memory_pilot_most_recent,2022.2.4,Win32,16.00435318,,,,,,,,,,,,,,,,,,,,,,,,,,,,,,,,,,,,,,,,,,,,,,,,
,,,A2TI9ZTXN1GNTV,30,ale,8,2022-09-25_06h13.01.777,memory_pilot_most_recent,2022.2.4,Win32,16.00435318,,,,,,,,,,,,,,,,,,,,,,,,,,,,,,,,3,left,,,,right,0,2.8793,0,0,0,0,1,2874307433-66280.jpg,2981231422-369714.jpg,,
,,,A2TI9ZTXN1GNTV,30,ale,8,2022-09-25_06h13.01.777,memory_pilot_most_recent,2022.2.4,Win32,16.00435318,,,,,,,,,,,,,,,,,,,,,,,,,,,,,,,,2,left,,,,right,0,0.6944,0,1,1,1,1,2986451363-73598.jpg,2984628361-295995.jpg,,
,,,A2TI9ZTXN1GNTV,30,ale,8,2022-09-25_06h13.01.777,memory_pilot_most_recent,2022.2.4,Win32,16.00435318,,,,,,,,,,,,,,,,,,,,,,,,,,,,,,,,2,left,,,,right,0,0.6068,0,2,2,2,1,2883256307-365057.jpg,2964210336-293945.jpg,,
,,,A2TI9ZTXN1GNTV,30,ale,8,2022-09-25_06h13.01.777,memory_pilot_most_recent,2022.2.4,Win32,16.00435318,,,,,,,,,,,,,,,,,,,,,,,,,,,,,,,,2,left,,,,right,0,0.3928,0,3,3,3,1,2864907432-362042.jpg,2901947423-70310.jpg,,
,,,A2TI9ZTXN1GNTV,30,ale,8,2022-09-25_06h13.01.777,memory_pilot_most_recent,2022.2.4,Win32,16.00435318,,,,,,,,,,,,,,,,,,,,,,,,,,,,,,,,3,right,,,,right,1,0.2355,0,4,4,4,1,2898619327-366362.jpg,2964216465-219242.jpg,,
,,,A2TI9ZTXN1GNTV,30,ale,8,2022-09-25_06h13.01.777,memory_pilot_most_recent,2022.2.4,Win32,16.00435318,,,,,,,,,,,,,,,,,,,,,,,,,,,,,,,,3,left,,,,right,0,0.163,0,5,5,5,1,2460547467-349422.jpg,2864909447-362146.jpg,,
,,,A2TI9ZTXN1GNTV,30,ale,8,2022-09-25_06h13.01.777,memory_pilot_most_recent,2022.2.4,Win32,16.00435318,,,,,,,,,,,,,,,,,,,,,,,,,,,,,,,,2,right,,,,right,1,0.2353,0,6,6,6,1,2901941438-69836.jpg,2964223381-294447.jpg,,
,,,A2TI9ZTXN1GNTV,30,ale,8,2022-09-25_06h13.01.777,memory_pilot_most_recent,2022.2.4,Win32,16.00435318,,,,,,,,,,,,,,,,,,,,,,,,,,,,,,,,2,right,,,,right,1,0.1649,0,7,7,7,1,2238436322-314047.jpg,2238425482-313537.jpg,,
,,,A2TI9ZTXN1GNTV,30,ale,8,2022-09-25_06h13.01.777,memory_pilot_most_recent,2022.2.4,Win32,16.00435318,,,,,,,,,,,,,,,,,,,,,,,,,,,,,,,,2,right,,,,right,1,0.2364,0,8,8,8,1,2238481813-19930.jpg,2452380832-348593.jpg,,
,,,A2TI9ZTXN1GNTV,30,ale,8,2022-09-25_06h13.01.777,memory_pilot_most_recent,2022.2.4,Win32,16.00435318,,,,,,,,,,,,,,,,,,,,,,,,,,,,,,,,3,right,,,,right,1,0.5244,0,9,9,9,1,2512875587-350044.jpg,2592380177-354629.jpg,,
,,,A2TI9ZTXN1GNTV,30,ale,8,2022-09-25_06h13.01.777,memory_pilot_most_recent,2022.2.4,Win32,16.00435318,,,,,,,,,,,,,,,,,,,,,,,,,,,,,,,,2,left,,,,right,0,0.237,0,10,10,10,1,2512875899-126682.jpg,2592380177-354628.jpg,,
,,,A2TI9ZTXN1GNTV,30,ale,8,2022-09-25_06h13.01.777,memory_pilot_most_recent,2022.2.4,Win32,16.00435318,,,,,,,,,,,,,,,,,,,,,,,,,,,,,,,,2,left,,,,right,0,0.1638,0,11,11,11,1,2901952513-70703.jpg,2868469411-287540.jpg,,
,,,A2TI9ZTXN1GNTV,30,ale,8,2022-09-25_06h13.01.777,memory_pilot_most_recent,2022.2.4,Win32,16.00435318,,,,,,,,,,,,,,,,,,,,,,,,,,,,,,,,1,left,,,,right,0,0.1651,0,12,12,12,1,2238428357-313623.jpg,2238499057-320266.jpg,,
,,,A2TI9ZTXN1GNTV,30,ale,8,2022-09-25_06h13.01.777,memory_pilot_most_recent,2022.2.4,Win32,16.00435318,,,,,,,,,,,,,,,,,,,,,,,,,,,,,,,,1,right,,,,right,1,0.1611,0,13,13,13,1,2898631359-142721.jpg,2898618444-142233.jpg,,
,,,A2TI9ZTXN1GNTV,30,ale,8,2022-09-25_06h13.01.777,memory_pilot_most_recent,2022.2.4,Win32,16.00435318,,,,,,,,,,,,,,,,,,,,,,,,,,,,,,,,3,left,,,,right,0,0.2358,0,14,14,14,1,2874299429-139695.jpg,2446760917-347439.jpg,,
,,,A2TI9ZTXN1GNTV,30,ale,8,2022-09-25_06h13.01.777,memory_pilot_most_recent,2022.2.4,Win32,16.00435318,,,,,,,,,,,,,,,,,,,,,,,,,,,,,,,,2,right,,,,right,1,0.1574,0,15,15,15,1,2981229442-369621.jpg,2901939379-143480.jpg,,
,,,A2TI9ZTXN1GNTV,30,ale,8,2022-09-25_06h13.01.777,memory_pilot_most_recent,2022.2.4,Win32,16.00435318,,,,,,,,,,,,,,,,,,,,,,,,,,,,,,,,1,right,,,,right,1,0.2375,0,16,16,16,1,2964218432-369263.jpg,2898624426-291546.jpg,,
,,,A2TI9ZTXN1GNTV,30,ale,8,2022-09-25_06h13.01.777,memory_pilot_most_recent,2022.2.4,Win32,16.00435318,,,,,,,,,,,,,,,,,,,,,,,,,,,,,,,,3,right,,,,right,1,0.1564,0,17,17,17,1,2575120609-129862.jpg,2898618390-216538.jpg,,
,,,A2TI9ZTXN1GNTV,30,ale,8,2022-09-25_06h13.01.777,memory_pilot_most_recent,2022.2.4,Win32,16.00435318,,,,,,,,,,,,,,,,,,,,,,,,,,,,,,,,1,right,,,,right,1,0.1633,0,18,18,18,1,2901946439-144040.jpg,2898617468-68274.jpg,,
,,,A2TI9ZTXN1GNTV,30,ale,8,2022-09-25_06h13.01.777,memory_pilot_most_recent,2022.2.4,Win32,16.00435318,,,,,,,,,,,,,,,,,,,,,,,,,,,,,,,,3,left,,,,right,0,0.1605,0,19,19,19,1,2238481198-19822.jpg,2238480803-19737.jpg,,
,,,A2TI9ZTXN1GNTV,30,ale,8,2022-09-25_06h13.01.777,memory_pilot_most_recent,2022.2.4,Win32,16.00435318,,,,,,,,,,,,,,,,,,,,,,,,,,,,,,,,2,left,,,,right,0,0.1612,0,20,20,20,1,2901939379-143479.jpg,2446758985-197610.jpg,,
,,,A2TI9ZTXN1GNTV,30,ale,8,2022-09-25_06h13.01.777,memory_pilot_most_recent,2022.2.4,Win32,16.00435318,,,,,,,,,,,,,,,,,,,,,,,,,,,,,,,,2,left,,,,right,0,0.1592,0,21,21,21,1,2901947423-70311.jpg,2238573447-333826.jpg,,
,,,A2TI9ZTXN1GNTV,30,ale,8,2022-09-25_06h13.01.777,memory_pilot_most_recent,2022.2.4,Win32,16.00435318,,,,,,,,,,,,,,,,,,,,,,,,,,,,,,,,1,left,,,,right,0,0.2383,0,22,22,22,1,2238560245-182099.jpg,2592380255-205553.jpg,,
,,,A2TI9ZTXN1GNTV,30,ale,8,2022-09-25_06h13.01.777,memory_pilot_most_recent,2022.2.4,Win32,16.00435318,,,,,,,,,,,,,,,,,,,,,,,,,,,,,,,,1,left,,,,right,0,0.158,0,23,23,23,1,2238481928-19949.jpg,2883264367-365620.jpg,,
,,,A2TI9ZTXN1GNTV,30,ale,8,2022-09-25_06h13.01.777,memory_pilot_most_recent,2022.2.4,Win32,16.00435318,,,,,,,,,,,,,,,,,,,,,,,,,,,,,,,,2,right,,,,right,1,0.1621,0,24,24,24,1,2860302315-210704.jpg,2986451363-73599.jpg,,
,,,A2TI9ZTXN1GNTV,30,ale,8,2022-09-25_06h13.01.777,memory_pilot_most_recent,2022.2.4,Win32,16.00435318,,,,,,,,,,,,,,,,,,,,,,,,,,,,,,,,3,right,,,,right,1,0.1657,0,25,25,25,1,2901947323-70275.jpg,2874301407-363895.jpg,,
,,,A2TI9ZTXN1GNTV,30,ale,8,2022-09-25_06h13.01.777,memory_pilot_most_recent,2022.2.4,Win32,16.00435318,,,,,,,,,,,,,,,,,,,,,,,,,,,,,,,,1,right,,,,right,1,0.7899,0,26,26,26,1,2981240424-145795.jpg,2446758985-197609.jpg,,
,,,A2TI9ZTXN1GNTV,30,ale,8,2022-09-25_06h13.01.777,memory_pilot_most_recent,2022.2.4,Win32,16.00435318,,,,,,,,,,,,,,,,,,,,,,,,,,,,,,,,1,left,,,,right,0,0.2332,0,27,27,27,1,2883273443-68193.jpg,2883254439-140940.jpg,,
,,,A2TI9ZTXN1GNTV,30,ale,8,2022-09-25_06h13.01.777,memory_pilot_most_recent,2022.2.4,Win32,16.00435318,,,,,,,,,,,,,,,,,,,,,,,,,,,,,,,,2,right,,,,right,1,0.1635,0,28,28,28,1,2898632385-217138.jpg,2452381505-199546.jpg,,
,,,A2TI9ZTXN1GNTV,30,ale,8,2022-09-25_06h13.01.777,memory_pilot_most_recent,2022.2.4,Win32,16.00435318,,,,,,,,,,,,,,,,,,,,,,,,,,,,,,,,3,right,,,,right,1,0.1601,0,29,29,29,1,2592380272-354673.jpg,2592379964-131054.jpg,,
,,,A2TI9ZTXN1GNTV,30,ale,8,2022-09-25_06h13.01.777,memory_pilot_most_recent,2022.2.4,Win32,16.00435318,,,,,,,,,,,,,,,,,,,,,,,,,,,,,,,,3,right,,,,right,1,0.1572,0,30,30,30,1,2898621427-366486.jpg,2898635427-367120.jpg,,
,,,A2TI9ZTXN1GNTV,30,ale,8,2022-09-25_06h13.01.777,memory_pilot_most_recent,2022.2.4,Win32,16.00435318,,,,,,,,,,,,,,,,,,,,,,,,,,,,,,,,2,right,,,,right,1,0.1564,0,31,31,31,1,2238521193-26285.jpg,2238580740-186218.jpg,,
,,,A2TI9ZTXN1GNTV,30,ale,8,2022-09-25_06h13.01.777,memory_pilot_most_recent,2022.2.4,Win32,16.00435318,,,,,,,,,,,,,,,,,,,,,,,,,,,,,,,,1,right,,,,right,1,0.1608,0,32,32,32,1,2238576792-334659.jpg,2592380177-354626.jpg,,
,,,A2TI9ZTXN1GNTV,30,ale,8,2022-09-25_06h13.01.777,memory_pilot_most_recent,2022.2.4,Win32,16.00435318,,,,,,,,,,,,,,,,,,,,,,,,,,,,,,,,1,left,,,,right,0,0.1649,0,33,33,33,1,2874302418-65978.jpg,2964224310-219528.jpg,,
,,,A2TI9ZTXN1GNTV,30,ale,8,2022-09-25_06h13.01.777,memory_pilot_most_recent,2022.2.4,Win32,16.00435318,,,,,,,,,,,,,,,,,,,,,,,,,,,,,,,,1,right,,,,right,1,0.1659,0,34,34,34,1,2460547732-349518.jpg,2868474407-362883.jpg,,
,,,A2TI9ZTXN1GNTV,30,ale,8,2022-09-25_06h13.01.777,memory_pilot_most_recent,2022.2.4,Win32,16.00435318,,,,,,,,,,,,,,,,,,,,,,,,,,,,,,,,3,right,,,,right,1,0.0837,0,35,35,35,1,2901947448-70314.jpg,2883268471-290842.jpg,,
,,,A2TI9ZTXN1GNTV,30,ale,8,2022-09-25_06h13.01.777,memory_pilot_most_recent,2022.2.4,Win32,16.00435318,,,,,,,,,,,,,,,,,,,,,,,,,,,,,,,,3,left,,,,right,0,0.2394,0,36,36,36,1,2964218374-144967.jpg,2981231446-294732.jpg,,
,,,A2TI9ZTXN1GNTV,30,ale,8,2022-09-25_06h13.01.777,memory_pilot_most_recent,2022.2.4,Win32,16.00435318,,,,,,,,,,,,,,,,,,,,,,,,,,,,,,,,2,left,,,,right,0,0.1563,0,37,37,37,1,2981241414-145842.jpg,2874301404-139813.jpg,,
,,,A2TI9ZTXN1GNTV,30,ale,8,2022-09-25_06h13.01.777,memory_pilot_most_recent,2022.2.4,Win32,16.00435318,,,,,,,,,,,,,,,,,,,,,,,,,,,,,,,,2,right,,,,right,1,0.1612,0,38,38,38,1,2901934408-69289.jpg,2898634397-367080.jpg,,
,,,A2TI9ZTXN1GNTV,30,ale,8,2022-09-25_06h13.01.777,memory_pilot_most_recent,2022.2.4,Win32,16.00435318,,,,,,,,,,,,,,,,,,,,,,,,,,,,,,,,2,left,,,,right,0,0.2333,0,39,39,39,1,2874299429-139694.jpg,2981244403-72215.jpg,,
,,,A2TI9ZTXN1GNTV,30,ale,8,2022-09-25_06h13.01.777,memory_pilot_most_recent,2022.2.4,Win32,16.00435318,,,,,,,,,,,,,,,,,,,,,,,,,,,,,,,,3,right,,,,right,1,0.1618,0,40,40,40,1,2238531493-28260.jpg,2575120738-55529.jpg,,
,,,A2TI9ZTXN1GNTV,30,ale,8,2022-09-25_06h13.01.777,memory_pilot_most_recent,2022.2.4,Win32,16.00435318,,,,,,,,,,,,,,,,,,,,,,,,,,,,,,,,1,left,,,,right,0,0.161,0,41,41,41,1,2981231403-71642.jpg,2579432519-130698.jpg,,
,,,A2TI9ZTXN1GNTV,30,ale,8,2022-09-25_06h13.01.777,memory_pilot_most_recent,2022.2.4,Win32,16.00435318,,,,,,,,,,,,,,,,,,,,,,,,,,,,,,,,2,right,,,,right,1,0.1616,0,42,42,42,1,2901933382-367209.jpg,2964222378-71332.jpg,,
,,,A2TI9ZTXN1GNTV,30,ale,8,2022-09-25_06h13.01.777,memory_pilot_most_recent,2022.2.4,Win32,16.00435318,,,,,,,,,,,,,,,,,,,,,,,,,,,,,,,,3,left,,,,right,0,0.1603,0,43,43,43,1,2446759803-49249.jpg,2901951392-368654.jpg,,
,,,A2TI9ZTXN1GNTV,30,ale,8,2022-09-25_06h13.01.777,memory_pilot_most_recent,2022.2.4,Win32,16.00435318,,,,,,,,,,,,,,,,,,,,,,,,,,,,,,,,3,right,,,,right,1,0.1594,0,44,44,44,1,2238578544-111698.jpg,2874302418-65979.jpg,,
,,,A2TI9ZTXN1GNTV,30,ale,8,2022-09-25_06h13.01.777,memory_pilot_most_recent,2022.2.4,Win32,16.00435318,,,,,,,,,,,,,,,,,,,,,,,,,,,,,,,,2,left,,,,right,0,0.2354,0,45,45,45,1,2458347385-199723.jpg,2427874554-121863.jpg,,
,,,A2TI9ZTXN1GNTV,30,ale,8,2022-09-25_06h13.01.777,memory_pilot_most_recent,2022.2.4,Win32,16.00435318,,,,,,,,,,,,,,,,,,,,,,,,,,,,,,,,1,left,,,,right,0,0.2499,0,46,46,46,1,2898633421-291973.jpg,2512876023-52283.jpg,,
,,,A2TI9ZTXN1GNTV,30,ale,8,2022-09-25_06h13.01.777,memory_pilot_most_recent,2022.2.4,Win32,16.00435318,,,,,,,,,,,,,,,,,,,,,,,,,,,,,,,,1,right,,,,right,1,0.2354,0,47,47,47,1,2452380166-273109.jpg,2460547508-51571.jpg,,
,,,A2TI9ZTXN1GNTV,30,ale,8,2022-09-25_06h13.01.777,memory_pilot_most_recent,2022.2.4,Win32,16.00435318,,,,,,,,,,,,,,,,,,,,,,,,,,,,,,,,2,left,,,,right,0,0.0828,0,48,48,48,1,2874303365-214262.jpg,2238563377-332054.jpg,,
,,,A2TI9ZTXN1GNTV,30,ale,8,2022-09-25_06h13.01.777,memory_pilot_most_recent,2022.2.4,Win32,16.00435318,,,,,,,,,,,,,,,,,,,,,,,,,,,,,,,,3,right,,,,right,1,0.2211,0,49,49,49,1,2868474407-362885.jpg,2868475410-213219.jpg,,
,,,A2TI9ZTXN1GNTV,30,ale,8,2022-09-25_06h13.01.777,memory_pilot_most_recent,2022.2.4,Win32,16.00435318,,,,,,,,,,,,,,,,,,,,,,,,,,,,,,,,1,right,,,,right,1,0.159,0,50,50,50,1,2446759803-49251.jpg,2449442529-124446.jpg,,
,,,A2TI9ZTXN1GNTV,30,ale,8,2022-09-25_06h13.01.777,memory_pilot_most_recent,2022.2.4,Win32,16.00435318,,,,,,,,,,,,,,,,,,,,,,,,,,,,,,,,3,left,,,,right,0,0.1578,0,51,51,51,1,2864910426-287204.jpg,2901939433-69672.jpg,,
,,,A2TI9ZTXN1GNTV,30,ale,8,2022-09-25_06h13.01.777,memory_pilot_most_recent,2022.2.4,Win32,16.00435318,,,,,,,,,,,,,,,,,,,,,,,,,,,,,,,,3,right,,,,right,1,0.1616,0,52,52,52,1,2864903351-286874.jpg,2238572663-35822.jpg,,
,,,A2TI9ZTXN1GNTV,30,ale,8,2022-09-25_06h13.01.777,memory_pilot_most_recent,2022.2.4,Win32,16.00435318,,,,,,,,,,,,,,,,,,,,,,,,,,,,,,,,1,right,,,,right,1,0.159,0,53,53,53,1,2984626312-370849.jpg,2883268412-365898.jpg,,
,,,A2TI9ZTXN1GNTV,30,ale,8,2022-09-25_06h13.01.777,memory_pilot_most_recent,2022.2.4,Win32,16.00435318,,,,,,,,,,,,,,,,,,,,,,,,,,,,,,,,3,right,,,,right,1,0.164,0,54,54,54,1,2898632385-217137.jpg,2449442529-124445.jpg,,
,,,A2TI9ZTXN1GNTV,30,ale,8,2022-09-25_06h13.01.777,memory_pilot_most_recent,2022.2.4,Win32,16.00435318,,,,,,,,,,,,,,,,,,,,,,,,,,,,,,,,1,left,,,,right,0,0.0825,0,55,55,55,1,2238480677-317399.jpg,2238481630-168218.jpg,,
,,,A2TI9ZTXN1GNTV,30,ale,8,2022-09-25_06h13.01.777,memory_pilot_most_recent,2022.2.4,Win32,16.00435318,,,,,,,,,,,,,,,,,,,,,,,,,,,,,,,,1,left,,,,right,0,0.1614,0,56,56,56,1,2898635428-69104.jpg,2446759803-49250.jpg,,
,,,A2TI9ZTXN1GNTV,30,ale,8,2022-09-25_06h13.01.777,memory_pilot_most_recent,2022.2.4,Win32,16.00435318,,,,,,,,,,,,,,,,,,,,,,,,,,,,,,,,1,left,,,,right,0,0.1575,0,57,57,57,1,2460547467-349421.jpg,2898631394-142727.jpg,,
,,,A2TI9ZTXN1GNTV,30,ale,8,2022-09-25_06h13.01.777,memory_pilot_most_recent,2022.2.4,Win32,16.00435318,,,,,,,,,,,,,,,,,,,,,,,,,,,,,,,,3,right,,,,right,1,0.1592,0,58,58,58,1,2964213381-294061.jpg,2964213381-294060.jpg,,
,,,A2TI9ZTXN1GNTV,30,ale,8,2022-09-25_06h13.01.777,memory_pilot_most_recent,2022.2.4,Win32,16.00435318,,,,,,,,,,,,,,,,,,,,,,,,,,,,,,,,1,right,,,,right,1,0.2394,0,59,59,59,1,2898618327-366317.jpg,2901941401-292798.jpg,,
,,,A2TI9ZTXN1GNTV,30,ale,8,2022-09-25_06h13.01.777,memory_pilot_most_recent,2022.2.4,Win32,16.00435318,,,,,,,,,,,,,,,,,,,,,,,,,,,,,,,,,,,,,,,,,,,,,,,space,52.3527
