,index,test_encoding_response.keys,test_encoding_response.corr,trials.thisTrialN,target_image,pair,layer,correct,test_encoding_response.rt,key_resp_end.keys,subject
0,20,,1.0,0.0,2898624426-291546.jpg,2981236443-71859.jpg,2.0,,,,A1J39RAV7TKEMF
1,21,,1.0,1.0,2238572663-35822.jpg,2238571930-184143.jpg,2.0,,,,A1J39RAV7TKEMF
2,22,,1.0,2.0,2964213381-294060.jpg,2964213381-294061.jpg,3.0,,,,A1J39RAV7TKEMF
3,23,,1.0,3.0,2592380177-354626.jpg,2864901386-286797.jpg,2.0,,,,A1J39RAV7TKEMF
4,24,,1.0,4.0,2449442529-124446.jpg,2460547536-274178.jpg,3.0,,,,A1J39RAV7TKEMF
5,25,,1.0,5.0,2964218374-144967.jpg,2446759306-271734.jpg,2.0,,,,A1J39RAV7TKEMF
6,26,left,1.0,6.0,left.jpg,,,left,2.1468,,A1J39RAV7TKEMF
7,27,,1.0,7.0,2874302418-65979.jpg,2238480648-19714.jpg,2.0,,,,A1J39RAV7TKEMF
8,28,,1.0,8.0,2986451363-73598.jpg,2901942443-69925.jpg,3.0,,,,A1J39RAV7TKEMF
9,29,,1.0,9.0,2452381505-199546.jpg,2898632385-217138.jpg,2.0,,,,A1J39RAV7TKEMF
10,30,,1.0,10.0,2864907432-362042.jpg,2989726338-74002.jpg,3.0,,,,A1J39RAV7TKEMF
11,31,,1.0,11.0,2460547508-51571.jpg,2452380166-273109.jpg,1.0,,,,A1J39RAV7TKEMF
12,32,,1.0,12.0,2964222378-71332.jpg,2981240424-145794.jpg,1.0,,,,A1J39RAV7TKEMF
13,33,,1.0,13.0,2986451363-73599.jpg,2898626385-216899.jpg,1.0,,,,A1J39RAV7TKEMF
14,34,,1.0,14.0,2238480677-317399.jpg,2238573546-258454.jpg,2.0,,,,A1J39RAV7TKEMF
15,35,,1.0,15.0,2874303365-214262.jpg,2274829821-263682.jpg,1.0,,,,A1J39RAV7TKEMF
16,36,,1.0,16.0,2901939379-143479.jpg,2446758985-197610.jpg,2.0,,,,A1J39RAV7TKEMF
17,37,,1.0,17.0,2874302418-65978.jpg,2238481198-19823.jpg,2.0,,,,A1J39RAV7TKEMF
18,38,,1.0,18.0,2452380832-348593.jpg,2237858942-299356.jpg,3.0,,,,A1J39RAV7TKEMF
19,39,,1.0,19.0,2901941401-292798.jpg,2898618327-366317.jpg,1.0,,,,A1J39RAV7TKEMF
20,40,,1.0,20.0,2868475410-213219.jpg,2868474407-362885.jpg,3.0,,,,A1J39RAV7TKEMF
21,41,left,1.0,21.0,left.jpg,,,left,1.9755,,A1J39RAV7TKEMF
22,42,,1.0,22.0,2898635427-367120.jpg,2964221435-219434.jpg,1.0,,,,A1J39RAV7TKEMF
23,43,,1.0,23.0,2964216465-219242.jpg,2898619327-366362.jpg,3.0,,,,A1J39RAV7TKEMF
24,44,,1.0,24.0,2901947423-70311.jpg,2238577590-185467.jpg,3.0,,,,A1J39RAV7TKEMF
25,45,,1.0,25.0,2449442529-124445.jpg,2898632385-217137.jpg,3.0,,,,A1J39RAV7TKEMF
26,46,,1.0,26.0,2238481198-19822.jpg,2862691449-137104.jpg,1.0,,,,A1J39RAV7TKEMF
27,47,,1.0,27.0,2592380177-354629.jpg,2898633421-291974.jpg,1.0,,,,A1J39RAV7TKEMF
28,48,,1.0,28.0,2868474407-362883.jpg,2901948383-70363.jpg,3.0,,,,A1J39RAV7TKEMF
29,49,,1.0,29.0,2883268471-290842.jpg,2901947448-70314.jpg,3.0,,,,A1J39RAV7TKEMF
30,50,,1.0,30.0,2898635428-69104.jpg,2446759803-49250.jpg,1.0,,,,A1J39RAV7TKEMF
31,51,,1.0,31.0,2901939379-143480.jpg,2898632385-217139.jpg,3.0,,,,A1J39RAV7TKEMF
32,52,,1.0,32.0,2898634397-367080.jpg,2964217461-294238.jpg,3.0,,,,A1J39RAV7TKEMF
33,53,,0.0,33.0,left.jpg,,,left,,,A1J39RAV7TKEMF
34,54,,1.0,34.0,2238481928-19949.jpg,2864900357-361688.jpg,2.0,,,,A1J39RAV7TKEMF
35,55,,1.0,35.0,2238580740-186218.jpg,2238550816-254000.jpg,1.0,,,,A1J39RAV7TKEMF
36,56,,1.0,36.0,2864910426-287204.jpg,2883268412-365899.jpg,2.0,,,,A1J39RAV7TKEMF
37,57,,1.0,37.0,2883256307-365057.jpg,2964210336-293945.jpg,2.0,,,,A1J39RAV7TKEMF
38,58,,0.0,38.0,left.jpg,,,left,,,A1J39RAV7TKEMF
39,59,,1.0,39.0,2901952513-70703.jpg,2864907361-287062.jpg,1.0,,,,A1J39RAV7TKEMF
40,60,,1.0,40.0,2446759803-49249.jpg,2901951392-368654.jpg,3.0,,,,A1J39RAV7TKEMF
41,61,,1.0,41.0,2898618390-216538.jpg,2901939327-367670.jpg,2.0,,,,A1J39RAV7TKEMF
42,62,,1.0,42.0,2238560245-182099.jpg,2592380255-205553.jpg,1.0,,,,A1J39RAV7TKEMF
43,63,,1.0,43.0,2883273443-68193.jpg,2883254439-140940.jpg,1.0,,,,A1J39RAV7TKEMF
44,64,,1.0,44.0,2458347385-199723.jpg,2427874554-121863.jpg,2.0,,,,A1J39RAV7TKEMF
45,65,,1.0,45.0,2883268412-365898.jpg,2238436252-314037.jpg,3.0,,,,A1J39RAV7TKEMF
46,66,,0.0,46.0,right.jpg,,,right,,,A1J39RAV7TKEMF
47,67,,1.0,47.0,2981241414-145842.jpg,2874301404-139813.jpg,2.0,,,,A1J39RAV7TKEMF
48,68,,1.0,48.0,2981231403-71642.jpg,2874305405-214397.jpg,2.0,,,,A1J39RAV7TKEMF
49,69,,1.0,49.0,2575120738-55529.jpg,2575120738-55528.jpg,2.0,,,,A1J39RAV7TKEMF
50,70,,1.0,50.0,2446758985-197609.jpg,2981240424-145795.jpg,1.0,,,,A1J39RAV7TKEMF
51,71,,1.0,51.0,2874301407-363895.jpg,2446761374-124213.jpg,1.0,,,,A1J39RAV7TKEMF
52,72,,1.0,52.0,2874299429-139695.jpg,2446760917-347439.jpg,3.0,,,,A1J39RAV7TKEMF
53,73,,1.0,53.0,2898618444-142233.jpg,2898631359-142721.jpg,1.0,,,,A1J39RAV7TKEMF
54,74,,1.0,54.0,2898617468-68274.jpg,2964207374-144577.jpg,3.0,,,,A1J39RAV7TKEMF
55,75,,1.0,55.0,2460547467-349421.jpg,2981235446-294901.jpg,3.0,,,,A1J39RAV7TKEMF
56,76,,1.0,56.0,2874307433-66280.jpg,2984615358-72439.jpg,1.0,,,,A1J39RAV7TKEMF
57,77,,1.0,57.0,2874299429-139694.jpg,2883266367-365742.jpg,3.0,,,,A1J39RAV7TKEMF
58,78,,1.0,58.0,2238425482-313537.jpg,2238471391-240918.jpg,1.0,,,,A1J39RAV7TKEMF
59,79,,1.0,59.0,2238428357-313623.jpg,2238499057-320266.jpg,1.0,,,,A1J39RAV7TKEMF
60,80,,1.0,60.0,2592379964-131054.jpg,2592380272-354673.jpg,3.0,,,,A1J39RAV7TKEMF
61,81,,1.0,61.0,2898633421-291973.jpg,2575118671-277663.jpg,2.0,,,,A1J39RAV7TKEMF
62,82,,1.0,62.0,2460547467-349422.jpg,2868487415-213924.jpg,2.0,,,,A1J39RAV7TKEMF
63,83,,1.0,63.0,2964223381-294447.jpg,2427874231-269884.jpg,1.0,,,,A1J39RAV7TKEMF
64,84,,1.0,64.0,2512875899-126682.jpg,2592380177-354628.jpg,2.0,,,,A1J39RAV7TKEMF
65,20,,1.0,0.0,2592379964-131054.jpg,2575963989-130576.jpg,1.0,,,,A2EVO0JF0V6Q1
66,21,,1.0,1.0,2964213381-294060.jpg,2981244394-145974.jpg,1.0,,,,A2EVO0JF0V6Q1
67,22,,1.0,2.0,2898618390-216538.jpg,2237856148-989.jpg,1.0,,,,A2EVO0JF0V6Q1
68,23,,1.0,3.0,2981241414-145842.jpg,2238516618-25604.jpg,1.0,,,,A2EVO0JF0V6Q1
69,24,,1.0,4.0,2898634397-367080.jpg,2901934408-69289.jpg,2.0,,,,A2EVO0JF0V6Q1
70,25,,1.0,5.0,2868474407-362883.jpg,2901948383-70363.jpg,3.0,,,,A2EVO0JF0V6Q1
71,26,,1.0,6.0,2874302418-65978.jpg,2964224310-219528.jpg,1.0,,,,A2EVO0JF0V6Q1
72,27,,0.0,7.0,left.jpg,,,left,,,A2EVO0JF0V6Q1
73,28,,1.0,8.0,2898624426-291546.jpg,2981235446-294900.jpg,3.0,,,,A2EVO0JF0V6Q1
74,29,,1.0,9.0,2238572663-35822.jpg,2864903351-286874.jpg,3.0,,,,A2EVO0JF0V6Q1
75,30,,1.0,10.0,2868475410-213219.jpg,2238480803-19739.jpg,2.0,,,,A2EVO0JF0V6Q1
76,31,,1.0,11.0,2452380832-348593.jpg,2238481813-19930.jpg,2.0,,,,A2EVO0JF0V6Q1
77,32,,1.0,12.0,2901939379-143480.jpg,2981229442-369621.jpg,2.0,,,,A2EVO0JF0V6Q1
78,33,,1.0,13.0,2575120738-55529.jpg,2238531493-28260.jpg,3.0,,,,A2EVO0JF0V6Q1
79,34,,1.0,14.0,2883256307-365057.jpg,2864904453-63933.jpg,3.0,,,,A2EVO0JF0V6Q1
80,35,,1.0,15.0,2901939379-143479.jpg,2446758985-197610.jpg,2.0,,,,A2EVO0JF0V6Q1
81,36,,0.0,16.0,right.jpg,,,right,,,A2EVO0JF0V6Q1
82,37,,1.0,17.0,2864907432-362042.jpg,2901947423-70310.jpg,2.0,,,,A2EVO0JF0V6Q1
83,38,,1.0,18.0,2874307433-66280.jpg,2981246400-220365.jpg,2.0,,,,A2EVO0JF0V6Q1
84,39,,1.0,19.0,2874302418-65979.jpg,2237857458-1325.jpg,1.0,,,,A2EVO0JF0V6Q1
85,40,,1.0,20.0,2592380177-354629.jpg,2579432534-130704.jpg,2.0,,,,A2EVO0JF0V6Q1
86,41,,1.0,21.0,2964223381-294447.jpg,2427874231-269884.jpg,1.0,,,,A2EVO0JF0V6Q1
87,42,,1.0,22.0,2238428357-313623.jpg,2986408339-146952.jpg,3.0,,,,A2EVO0JF0V6Q1
88,43,,1.0,23.0,2460547467-349422.jpg,2898618440-216545.jpg,1.0,,,,A2EVO0JF0V6Q1
89,44,,1.0,24.0,2452381505-199546.jpg,2901938432-367627.jpg,1.0,,,,A2EVO0JF0V6Q1
90,45,,1.0,25.0,2449442529-124446.jpg,2446759803-49251.jpg,1.0,,,,A2EVO0JF0V6Q1
91,46,,1.0,26.0,2981231403-71642.jpg,2427873763-47290.jpg,3.0,,,,A2EVO0JF0V6Q1
92,47,,0.0,27.0,right.jpg,,,right,,,A2EVO0JF0V6Q1
93,48,,1.0,28.0,2460547467-349421.jpg,2898631394-142727.jpg,1.0,,,,A2EVO0JF0V6Q1
94,49,,1.0,29.0,2883268471-290842.jpg,2883255450-215310.jpg,2.0,,,,A2EVO0JF0V6Q1
95,50,,1.0,30.0,2901952513-70703.jpg,2868469411-287540.jpg,2.0,,,,A2EVO0JF0V6Q1
96,51,,1.0,31.0,2898635427-367120.jpg,2868479517-363220.jpg,2.0,,,,A2EVO0JF0V6Q1
97,52,,1.0,32.0,2449442529-124445.jpg,2986408373-73286.jpg,2.0,,,,A2EVO0JF0V6Q1
98,53,,1.0,33.0,2238481198-19822.jpg,2238480803-19737.jpg,3.0,,,,A2EVO0JF0V6Q1
99,54,,1.0,34.0,2458347385-199723.jpg,2458347252-348911.jpg,3.0,,,,A2EVO0JF0V6Q1
100,55,,1.0,35.0,2238580740-186218.jpg,2238550816-254000.jpg,1.0,,,,A2EVO0JF0V6Q1
101,56,,1.0,36.0,2238481928-19949.jpg,2981241419-145844.jpg,3.0,,,,A2EVO0JF0V6Q1
102,57,,1.0,37.0,2874299429-139695.jpg,2883266388-67750.jpg,1.0,,,,A2EVO0JF0V6Q1
103,58,,1.0,38.0,2964222378-71332.jpg,2981240424-145794.jpg,1.0,,,,A2EVO0JF0V6Q1
104,59,,1.0,39.0,2446758985-197609.jpg,2981240424-145795.jpg,1.0,,,,A2EVO0JF0V6Q1
105,60,,0.0,40.0,right.jpg,,,right,,,A2EVO0JF0V6Q1
106,61,,1.0,41.0,2883273443-68193.jpg,2883254439-140940.jpg,1.0,,,,A2EVO0JF0V6Q1
107,62,,1.0,42.0,2901941401-292798.jpg,2981243412-370222.jpg,2.0,,,,A2EVO0JF0V6Q1
108,63,,1.0,43.0,2238560245-182099.jpg,2238480980-168129.jpg,3.0,,,,A2EVO0JF0V6Q1
109,64,,1.0,44.0,2874299429-139694.jpg,2883266367-365742.jpg,3.0,,,,A2EVO0JF0V6Q1
110,65,,1.0,45.0,2898617468-68274.jpg,2901946439-144040.jpg,1.0,,,,A2EVO0JF0V6Q1
111,66,,1.0,46.0,2592380177-354626.jpg,2238117096-228518.jpg,3.0,,,,A2EVO0JF0V6Q1
112,67,,1.0,47.0,2901947423-70311.jpg,2238577590-185467.jpg,3.0,,,,A2EVO0JF0V6Q1
113,68,,1.0,48.0,2964216465-219242.jpg,2864900319-137787.jpg,2.0,,,,A2EVO0JF0V6Q1
114,69,,1.0,49.0,2986451363-73598.jpg,2901942443-69925.jpg,3.0,,,,A2EVO0JF0V6Q1
115,70,,0.0,50.0,left.jpg,,,left,,,A2EVO0JF0V6Q1
116,71,,1.0,51.0,2883268412-365898.jpg,2984626312-370849.jpg,1.0,,,,A2EVO0JF0V6Q1
117,72,,1.0,52.0,2986451363-73599.jpg,2860302315-210704.jpg,2.0,,,,A2EVO0JF0V6Q1
118,73,,1.0,53.0,2898633421-291973.jpg,2238550049-105691.jpg,3.0,,,,A2EVO0JF0V6Q1
119,74,,1.0,54.0,2964218374-144967.jpg,2981231446-294732.jpg,3.0,,,,A2EVO0JF0V6Q1
120,75,,1.0,55.0,2238425482-313537.jpg,2238436322-314047.jpg,2.0,,,,A2EVO0JF0V6Q1
121,76,,1.0,56.0,2446759803-49249.jpg,2898618440-216547.jpg,2.0,,,,A2EVO0JF0V6Q1
122,77,,1.0,57.0,2512875899-126682.jpg,2986447332-371497.jpg,3.0,,,,A2EVO0JF0V6Q1
123,78,,1.0,58.0,2864910426-287204.jpg,2901939433-69672.jpg,3.0,,,,A2EVO0JF0V6Q1
124,79,,1.0,59.0,2874301407-363895.jpg,2446761374-124213.jpg,1.0,,,,A2EVO0JF0V6Q1
125,80,,1.0,60.0,2898635428-69104.jpg,2446759803-49250.jpg,1.0,,,,A2EVO0JF0V6Q1
126,81,,1.0,61.0,2874303365-214262.jpg,2864911457-362260.jpg,3.0,,,,A2EVO0JF0V6Q1
127,82,,1.0,62.0,2238480677-317399.jpg,2238573546-258454.jpg,2.0,,,,A2EVO0JF0V6Q1
128,83,,1.0,63.0,2460547508-51571.jpg,2981232437-369759.jpg,2.0,,,,A2EVO0JF0V6Q1
129,84,,1.0,64.0,2898618444-142233.jpg,2238555262-330312.jpg,2.0,,,,A2EVO0JF0V6Q1
130,20,,1.0,0.0,2238428357-313623.jpg,2984615361-295509.jpg,2.0,,,,A1XIXGOB9KUMPJ
131,21,,1.0,1.0,2898617468-68274.jpg,2964207374-144577.jpg,3.0,,,,A1XIXGOB9KUMPJ
132,22,,1.0,2.0,2874301407-363895.jpg,2901947323-70275.jpg,3.0,,,,A1XIXGOB9KUMPJ
133,23,,1.0,3.0,2964216465-219242.jpg,2898619327-366362.jpg,3.0,,,,A1XIXGOB9KUMPJ
134,24,,1.0,4.0,2981241414-145842.jpg,2874301404-139813.jpg,2.0,,,,A1XIXGOB9KUMPJ
135,25,,1.0,5.0,2512875899-126682.jpg,2592380177-354628.jpg,2.0,,,,A1XIXGOB9KUMPJ
136,26,,1.0,6.0,2868475410-213219.jpg,2901946465-218350.jpg,1.0,,,,A1XIXGOB9KUMPJ
137,27,,1.0,7.0,2452380832-348593.jpg,2238328478-11678.jpg,1.0,,,,A1XIXGOB9KUMPJ
138,28,right,1.0,8.0,right.jpg,,,right,1.3692,,A1XIXGOB9KUMPJ
139,29,,1.0,9.0,2874299429-139694.jpg,2981244403-72215.jpg,2.0,,,,A1XIXGOB9KUMPJ
140,30,,1.0,10.0,2446758985-197609.jpg,2864909447-362144.jpg,2.0,,,,A1XIXGOB9KUMPJ
141,31,,1.0,11.0,2901941401-292798.jpg,2898631468-68931.jpg,3.0,,,,A1XIXGOB9KUMPJ
142,32,,1.0,12.0,2575120738-55529.jpg,2238531493-28260.jpg,3.0,,,,A1XIXGOB9KUMPJ
143,33,,1.0,13.0,2868474407-362883.jpg,2981246400-220363.jpg,2.0,,,,A1XIXGOB9KUMPJ
144,34,,1.0,14.0,2964222378-71332.jpg,2981240424-145794.jpg,1.0,,,,A1XIXGOB9KUMPJ
145,35,,1.0,15.0,2883273443-68193.jpg,2898627427-366763.jpg,3.0,,,,A1XIXGOB9KUMPJ
146,36,,1.0,16.0,2238425482-313537.jpg,2238471391-240918.jpg,1.0,,,,A1XIXGOB9KUMPJ
147,37,,1.0,17.0,2986451363-73598.jpg,2901942443-69925.jpg,3.0,,,,A1XIXGOB9KUMPJ
148,38,,1.0,18.0,2874299429-139695.jpg,2901942443-69923.jpg,2.0,,,,A1XIXGOB9KUMPJ
149,39,,1.0,19.0,2898633421-291973.jpg,2512876023-52283.jpg,1.0,,,,A1XIXGOB9KUMPJ
150,40,,1.0,20.0,2460547508-51571.jpg,2901941438-69835.jpg,3.0,,,,A1XIXGOB9KUMPJ
151,41,right,0.0,21.0,left.jpg,,,left,1.1959,,A1XIXGOB9KUMPJ
152,42,,1.0,22.0,2874302418-65978.jpg,2964224310-219528.jpg,1.0,,,,A1XIXGOB9KUMPJ
153,43,,1.0,23.0,2964223381-294447.jpg,2427874231-269884.jpg,1.0,,,,A1XIXGOB9KUMPJ
154,44,,1.0,24.0,2898635428-69104.jpg,2446759803-49250.jpg,1.0,,,,A1XIXGOB9KUMPJ
155,45,,1.0,25.0,2592380177-354626.jpg,2864901386-286797.jpg,2.0,,,,A1XIXGOB9KUMPJ
156,46,,1.0,26.0,2238481198-19822.jpg,2238480803-19737.jpg,3.0,,,,A1XIXGOB9KUMPJ
157,47,,1.0,27.0,2964213381-294060.jpg,2458348012-349114.jpg,2.0,,,,A1XIXGOB9KUMPJ
158,48,,1.0,28.0,2238580740-186218.jpg,2964220333-71258.jpg,3.0,,,,A1XIXGOB9KUMPJ
159,49,,1.0,29.0,2964218374-144967.jpg,2964218374-144968.jpg,1.0,,,,A1XIXGOB9KUMPJ
160,50,,1.0,30.0,2981231403-71642.jpg,2579432519-130698.jpg,1.0,,,,A1XIXGOB9KUMPJ
161,51,,1.0,31.0,2901939379-143480.jpg,2901942428-69919.jpg,1.0,,,,A1XIXGOB9KUMPJ
162,52,,0.0,32.0,right.jpg,,,right,,,A1XIXGOB9KUMPJ
163,53,,1.0,33.0,2449442529-124445.jpg,2452380171-273112.jpg,1.0,,,,A1XIXGOB9KUMPJ
164,54,,1.0,34.0,2460547467-349422.jpg,2864909447-362146.jpg,3.0,,,,A1XIXGOB9KUMPJ
165,55,,1.0,35.0,2901952513-70703.jpg,2238481198-19821.jpg,3.0,,,,A1XIXGOB9KUMPJ
166,56,,1.0,36.0,2446759803-49249.jpg,2901951392-368654.jpg,3.0,,,,A1XIXGOB9KUMPJ
167,57,,1.0,37.0,2864910426-287204.jpg,2883268412-365899.jpg,2.0,,,,A1XIXGOB9KUMPJ
168,58,,1.0,38.0,2901947423-70311.jpg,2238577590-185467.jpg,3.0,,,,A1XIXGOB9KUMPJ
169,59,,1.0,39.0,2883256307-365057.jpg,2611628310-206388.jpg,1.0,,,,A1XIXGOB9KUMPJ
170,60,,1.0,40.0,2238560245-182099.jpg,2874314526-289684.jpg,2.0,,,,A1XIXGOB9KUMPJ
171,61,,1.0,41.0,2592380177-354629.jpg,2579432534-130704.jpg,2.0,,,,A1XIXGOB9KUMPJ
172,62,,1.0,42.0,2898618444-142233.jpg,2238555262-330312.jpg,2.0,,,,A1XIXGOB9KUMPJ
173,63,,1.0,43.0,2238572663-35822.jpg,2864903351-286874.jpg,3.0,,,,A1XIXGOB9KUMPJ
174,64,,0.0,44.0,left.jpg,,,left,,,A1XIXGOB9KUMPJ
175,65,,1.0,45.0,2883268471-290842.jpg,2901947448-70314.jpg,3.0,,,,A1XIXGOB9KUMPJ
176,66,,1.0,46.0,2238480677-317399.jpg,2238573546-258454.jpg,2.0,,,,A1XIXGOB9KUMPJ
177,67,,1.0,47.0,2592379964-131054.jpg,2575963989-130576.jpg,1.0,,,,A1XIXGOB9KUMPJ
178,68,,0.0,48.0,left.jpg,,,left,,,A1XIXGOB9KUMPJ
179,69,,1.0,49.0,2898624426-291546.jpg,2981236443-71859.jpg,2.0,,,,A1XIXGOB9KUMPJ
180,70,,1.0,50.0,2986451363-73599.jpg,2898626385-216899.jpg,1.0,,,,A1XIXGOB9KUMPJ
181,71,,1.0,51.0,2452381505-199546.jpg,2898632385-217138.jpg,2.0,,,,A1XIXGOB9KUMPJ
182,72,,1.0,52.0,2460547467-349421.jpg,2898631394-142727.jpg,1.0,,,,A1XIXGOB9KUMPJ
183,73,,1.0,53.0,2898618390-216538.jpg,2901939327-367670.jpg,2.0,,,,A1XIXGOB9KUMPJ
184,74,,1.0,54.0,2449442529-124446.jpg,2446759803-49251.jpg,1.0,,,,A1XIXGOB9KUMPJ
185,75,,1.0,55.0,2864907432-362042.jpg,2989726338-74002.jpg,3.0,,,,A1XIXGOB9KUMPJ
186,76,,1.0,56.0,2901939379-143479.jpg,2446758985-197610.jpg,2.0,,,,A1XIXGOB9KUMPJ
187,77,,1.0,57.0,2898635427-367120.jpg,2868479517-363220.jpg,2.0,,,,A1XIXGOB9KUMPJ
188,78,,1.0,58.0,2458347385-199723.jpg,2238480434-93829.jpg,1.0,,,,A1XIXGOB9KUMPJ
189,79,,1.0,59.0,2883268412-365898.jpg,2238436252-314037.jpg,3.0,,,,A1XIXGOB9KUMPJ
190,80,,1.0,60.0,2874303365-214262.jpg,2274829821-263682.jpg,1.0,,,,A1XIXGOB9KUMPJ
191,81,,1.0,61.0,2898634397-367080.jpg,2237944827-301472.jpg,1.0,,,,A1XIXGOB9KUMPJ
192,82,,1.0,62.0,2874307433-66280.jpg,2981231422-369714.jpg,3.0,,,,A1XIXGOB9KUMPJ
193,83,,1.0,63.0,2874302418-65979.jpg,2238578544-111698.jpg,3.0,,,,A1XIXGOB9KUMPJ
194,84,,1.0,64.0,2238481928-19949.jpg,2864900357-361688.jpg,2.0,,,,A1XIXGOB9KUMPJ
195,20,,1.0,0.0,2874299429-139695.jpg,2901942443-69923.jpg,2.0,,,,A1STC10BXEP495
196,21,,1.0,1.0,2898618390-216538.jpg,2575120609-129862.jpg,3.0,,,,A1STC10BXEP495
197,22,,1.0,2.0,2883256307-365057.jpg,2964210336-293945.jpg,2.0,,,,A1STC10BXEP495
198,23,,1.0,3.0,2449442529-124446.jpg,2446759803-49251.jpg,1.0,,,,A1STC10BXEP495
199,24,,1.0,4.0,2238481928-19949.jpg,2981241419-145844.jpg,3.0,,,,A1STC10BXEP495
200,25,,1.0,5.0,2901939379-143479.jpg,2964216376-294181.jpg,3.0,,,,A1STC10BXEP495
201,26,,1.0,6.0,2238425482-313537.jpg,2238436322-314047.jpg,2.0,,,,A1STC10BXEP495
202,27,,1.0,7.0,2238572663-35822.jpg,2238571930-184143.jpg,2.0,,,,A1STC10BXEP495
203,28,,1.0,8.0,2238481198-19822.jpg,2862691449-137104.jpg,1.0,,,,A1STC10BXEP495
204,29,,0.0,9.0,right.jpg,,,right,,,A1STC10BXEP495
205,30,,1.0,10.0,2898634397-367080.jpg,2901934408-69289.jpg,2.0,,,,A1STC10BXEP495
206,31,,1.0,11.0,2964223381-294447.jpg,2901941438-69836.jpg,2.0,,,,A1STC10BXEP495
207,32,,1.0,12.0,2898635427-367120.jpg,2898621427-366486.jpg,3.0,,,,A1STC10BXEP495
208,33,,1.0,13.0,2458347385-199723.jpg,2458347252-348911.jpg,3.0,,,,A1STC10BXEP495
209,34,,1.0,14.0,2446758985-197609.jpg,2981240424-145795.jpg,1.0,,,,A1STC10BXEP495
210,35,,1.0,15.0,2238580740-186218.jpg,2238521193-26285.jpg,2.0,,,,A1STC10BXEP495
211,36,,0.0,16.0,left.jpg,,,left,,,A1STC10BXEP495
212,37,,1.0,17.0,2238428357-313623.jpg,2238499057-320266.jpg,1.0,,,,A1STC10BXEP495
213,38,,1.0,18.0,2592380177-354626.jpg,2238117096-228518.jpg,3.0,,,,A1STC10BXEP495
214,39,,1.0,19.0,2446759803-49249.jpg,2446760601-272099.jpg,1.0,,,,A1STC10BXEP495
215,40,,1.0,20.0,2449442529-124445.jpg,2898632385-217137.jpg,3.0,,,,A1STC10BXEP495
216,41,,1.0,21.0,2868474407-362883.jpg,2460547732-349518.jpg,1.0,,,,A1STC10BXEP495
217,42,,1.0,22.0,2964216465-219242.jpg,2238544191-252422.jpg,1.0,,,,A1STC10BXEP495
218,43,,1.0,23.0,2964222378-71332.jpg,2981240424-145794.jpg,1.0,,,,A1STC10BXEP495
219,44,,1.0,24.0,2512875899-126682.jpg,2986447332-371497.jpg,3.0,,,,A1STC10BXEP495
220,45,,1.0,25.0,2883273443-68193.jpg,2883254439-140940.jpg,1.0,,,,A1STC10BXEP495
221,46,,0.0,26.0,left.jpg,,,left,,,A1STC10BXEP495
222,47,,1.0,27.0,2868475410-213219.jpg,2238480803-19739.jpg,2.0,,,,A1STC10BXEP495
223,48,,1.0,28.0,2901952513-70703.jpg,2864907361-287062.jpg,1.0,,,,A1STC10BXEP495
224,49,,1.0,29.0,2964213381-294060.jpg,2981244394-145974.jpg,1.0,,,,A1STC10BXEP495
225,50,,1.0,30.0,2883268412-365898.jpg,2984615361-295510.jpg,2.0,,,,A1STC10BXEP495
226,51,,1.0,31.0,2901941401-292798.jpg,2898631468-68931.jpg,3.0,,,,A1STC10BXEP495
227,52,,1.0,32.0,2452380832-348593.jpg,2238328478-11678.jpg,1.0,,,,A1STC10BXEP495
228,53,,1.0,33.0,2883268471-290842.jpg,2883255450-215310.jpg,2.0,,,,A1STC10BXEP495
229,54,,1.0,34.0,2460547508-51571.jpg,2452380166-273109.jpg,1.0,,,,A1STC10BXEP495
230,55,,1.0,35.0,2864907432-362042.jpg,2864901420-212147.jpg,1.0,,,,A1STC10BXEP495
231,56,,1.0,36.0,2592380177-354629.jpg,2579432534-130704.jpg,2.0,,,,A1STC10BXEP495
232,57,,1.0,37.0,2981231403-71642.jpg,2579432519-130698.jpg,1.0,,,,A1STC10BXEP495
233,58,,0.0,38.0,left.jpg,,,left,,,A1STC10BXEP495
234,59,,1.0,39.0,2592379964-131054.jpg,2238479053-19457.jpg,2.0,,,,A1STC10BXEP495
235,60,,1.0,40.0,2452381505-199546.jpg,2898632385-217138.jpg,2.0,,,,A1STC10BXEP495
236,61,,1.0,41.0,2901939379-143480.jpg,2901942428-69919.jpg,1.0,,,,A1STC10BXEP495
237,62,,1.0,42.0,2874307433-66280.jpg,2981231422-369714.jpg,3.0,,,,A1STC10BXEP495
238,63,,1.0,43.0,2238560245-182099.jpg,2238480980-168129.jpg,3.0,,,,A1STC10BXEP495
239,64,,1.0,44.0,2460547467-349421.jpg,2981235446-294901.jpg,3.0,,,,A1STC10BXEP495
240,65,,1.0,45.0,2986451363-73598.jpg,2237857458-1324.jpg,1.0,,,,A1STC10BXEP495
241,66,,1.0,46.0,2898633421-291973.jpg,2238550049-105691.jpg,3.0,,,,A1STC10BXEP495
242,67,,1.0,47.0,2898618444-142233.jpg,2238555262-330312.jpg,2.0,,,,A1STC10BXEP495
243,68,,1.0,48.0,2238480677-317399.jpg,2238480278-19661.jpg,3.0,,,,A1STC10BXEP495
244,69,,0.0,49.0,left.jpg,,,left,,,A1STC10BXEP495
245,70,,1.0,50.0,2898635428-69104.jpg,2446759803-49250.jpg,1.0,,,,A1STC10BXEP495
246,71,,1.0,51.0,2981241414-145842.jpg,2874301404-139813.jpg,2.0,,,,A1STC10BXEP495
247,72,,1.0,52.0,2964218374-144967.jpg,2981231446-294732.jpg,3.0,,,,A1STC10BXEP495
248,73,,1.0,53.0,2874301407-363895.jpg,2986397322-371109.jpg,2.0,,,,A1STC10BXEP495
249,74,,1.0,54.0,2874299429-139694.jpg,2986447306-296584.jpg,1.0,,,,A1STC10BXEP495
250,75,,1.0,55.0,2874303365-214262.jpg,2274829821-263682.jpg,1.0,,,,A1STC10BXEP495
251,76,,1.0,56.0,2898624426-291546.jpg,2981235446-294900.jpg,3.0,,,,A1STC10BXEP495
252,77,,1.0,57.0,2986451363-73599.jpg,2238434559-90406.jpg,3.0,,,,A1STC10BXEP495
253,78,,1.0,58.0,2874302418-65978.jpg,2898633321-291943.jpg,3.0,,,,A1STC10BXEP495
254,79,,1.0,59.0,2575120738-55529.jpg,2575120738-55528.jpg,2.0,,,,A1STC10BXEP495
255,80,,1.0,60.0,2874302418-65979.jpg,2238480648-19714.jpg,2.0,,,,A1STC10BXEP495
256,81,,1.0,61.0,2901947423-70311.jpg,2238573447-333826.jpg,2.0,,,,A1STC10BXEP495
257,82,,1.0,62.0,2864910426-287204.jpg,2901939433-69672.jpg,3.0,,,,A1STC10BXEP495
258,83,,1.0,63.0,2898617468-68274.jpg,2964207374-144577.jpg,3.0,,,,A1STC10BXEP495
259,84,,1.0,64.0,2460547467-349422.jpg,2868487415-213924.jpg,2.0,,,,A1STC10BXEP495
260,20,,1.0,0.0,2446758985-197609.jpg,2864909447-362144.jpg,2.0,,,,AN7Z42U38BCQT
261,21,,1.0,1.0,2460547467-349422.jpg,2864909447-362146.jpg,3.0,,,,AN7Z42U38BCQT
262,22,,1.0,2.0,2874302418-65979.jpg,2237857458-1325.jpg,1.0,,,,AN7Z42U38BCQT
263,23,,1.0,3.0,2868475410-213219.jpg,2238480803-19739.jpg,2.0,,,,AN7Z42U38BCQT
264,24,,1.0,4.0,2964218374-144967.jpg,2446759306-271734.jpg,2.0,,,,AN7Z42U38BCQT
265,25,,1.0,5.0,2901939379-143480.jpg,2981229442-369621.jpg,2.0,,,,AN7Z42U38BCQT
266,26,,0.0,6.0,left.jpg,,,left,,,AN7Z42U38BCQT
267,27,,1.0,7.0,2883256307-365057.jpg,2864904453-63933.jpg,3.0,,,,AN7Z42U38BCQT
268,28,,1.0,8.0,2238560245-182099.jpg,2238480980-168129.jpg,3.0,,,,AN7Z42U38BCQT
269,29,,1.0,9.0,2874303365-214262.jpg,2274829821-263682.jpg,1.0,,,,AN7Z42U38BCQT
270,30,,1.0,10.0,2964216465-219242.jpg,2898619327-366362.jpg,3.0,,,,AN7Z42U38BCQT
271,31,,1.0,11.0,2238572663-35822.jpg,2864903351-286874.jpg,3.0,,,,AN7Z42U38BCQT
272,32,,1.0,12.0,2238425482-313537.jpg,2898633480-217190.jpg,3.0,,,,AN7Z42U38BCQT
273,33,,1.0,13.0,2898635427-367120.jpg,2868479517-363220.jpg,2.0,,,,AN7Z42U38BCQT
274,34,,1.0,14.0,2898635428-69104.jpg,2446759803-49250.jpg,1.0,,,,AN7Z42U38BCQT
275,35,,1.0,15.0,2883268471-290842.jpg,2883255450-215310.jpg,2.0,,,,AN7Z42U38BCQT
276,36,,0.0,16.0,right.jpg,,,right,,,AN7Z42U38BCQT
277,37,,1.0,17.0,2460547508-51571.jpg,2901941438-69835.jpg,3.0,,,,AN7Z42U38BCQT
278,38,,1.0,18.0,2874307433-66280.jpg,2984615358-72439.jpg,1.0,,,,AN7Z42U38BCQT
279,39,,1.0,19.0,2898624426-291546.jpg,2981235446-294900.jpg,3.0,,,,AN7Z42U38BCQT
280,40,,1.0,20.0,2874301407-363895.jpg,2986397322-371109.jpg,2.0,,,,AN7Z42U38BCQT
281,41,,1.0,21.0,2898634397-367080.jpg,2237944827-301472.jpg,1.0,,,,AN7Z42U38BCQT
282,42,,1.0,22.0,2898618444-142233.jpg,2898631359-142721.jpg,1.0,,,,AN7Z42U38BCQT
283,43,,1.0,23.0,2901939379-143479.jpg,2964216376-294181.jpg,3.0,,,,AN7Z42U38BCQT
284,44,,1.0,24.0,2986451363-73598.jpg,2237857458-1324.jpg,1.0,,,,AN7Z42U38BCQT
285,45,,1.0,25.0,2452380832-348593.jpg,2238481813-19930.jpg,2.0,,,,AN7Z42U38BCQT
286,46,,1.0,26.0,2238428357-313623.jpg,2238499057-320266.jpg,1.0,,,,AN7Z42U38BCQT
287,47,,0.0,27.0,left.jpg,,,left,,,AN7Z42U38BCQT
288,48,,1.0,28.0,2238481198-19822.jpg,2862691449-137104.jpg,1.0,,,,AN7Z42U38BCQT
289,49,,1.0,29.0,2981231403-71642.jpg,2427873763-47290.jpg,3.0,,,,AN7Z42U38BCQT
290,50,,1.0,30.0,2901941401-292798.jpg,2981243412-370222.jpg,2.0,,,,AN7Z42U38BCQT
291,51,,1.0,31.0,2238481928-19949.jpg,2883264367-365620.jpg,1.0,,,,AN7Z42U38BCQT
292,52,,1.0,32.0,2883268412-365898.jpg,2984626312-370849.jpg,1.0,,,,AN7Z42U38BCQT
293,53,,1.0,33.0,2238580740-186218.jpg,2238521193-26285.jpg,2.0,,,,AN7Z42U38BCQT
294,54,,1.0,34.0,2898617468-68274.jpg,2901946439-144040.jpg,1.0,,,,AN7Z42U38BCQT
295,55,,1.0,35.0,2592380177-354626.jpg,2238117096-228518.jpg,3.0,,,,AN7Z42U38BCQT
296,56,,1.0,36.0,2986451363-73599.jpg,2898626385-216899.jpg,1.0,,,,AN7Z42U38BCQT
297,57,,1.0,37.0,2874299429-139694.jpg,2981244403-72215.jpg,2.0,,,,AN7Z42U38BCQT
298,58,,1.0,38.0,2575120738-55529.jpg,2864906345-212360.jpg,1.0,,,,AN7Z42U38BCQT
299,59,,0.0,39.0,right.jpg,,,right,,,AN7Z42U38BCQT
300,60,,1.0,40.0,2449442529-124446.jpg,2460547536-274178.jpg,3.0,,,,AN7Z42U38BCQT
301,61,,1.0,41.0,2592379964-131054.jpg,2592380272-354673.jpg,3.0,,,,AN7Z42U38BCQT
302,62,,1.0,42.0,2238480677-317399.jpg,2238480278-19661.jpg,3.0,,,,AN7Z42U38BCQT
303,63,,1.0,43.0,2864910426-287204.jpg,2864902304-137862.jpg,1.0,,,,AN7Z42U38BCQT
304,64,,1.0,44.0,2901947423-70311.jpg,2238573447-333826.jpg,2.0,,,,AN7Z42U38BCQT
305,65,,1.0,45.0,2460547467-349421.jpg,2981235446-294901.jpg,3.0,,,,AN7Z42U38BCQT
306,66,,1.0,46.0,2446759803-49249.jpg,2898618440-216547.jpg,2.0,,,,AN7Z42U38BCQT
307,67,,1.0,47.0,2458347385-199723.jpg,2427874554-121863.jpg,2.0,,,,AN7Z42U38BCQT
308,68,,0.0,48.0,left.jpg,,,left,,,AN7Z42U38BCQT
309,69,,1.0,49.0,2964223381-294447.jpg,2898628438-68785.jpg,3.0,,,,AN7Z42U38BCQT
310,70,,1.0,50.0,2874302418-65978.jpg,2898633321-291943.jpg,3.0,,,,AN7Z42U38BCQT
311,71,,1.0,51.0,2874299429-139695.jpg,2901942443-69923.jpg,2.0,,,,AN7Z42U38BCQT
312,72,,1.0,52.0,2898633421-291973.jpg,2575118671-277663.jpg,2.0,,,,AN7Z42U38BCQT
313,73,,1.0,53.0,2964213381-294060.jpg,2458348012-349114.jpg,2.0,,,,AN7Z42U38BCQT
314,74,,1.0,54.0,2901952513-70703.jpg,2864907361-287062.jpg,1.0,,,,AN7Z42U38BCQT
315,75,,1.0,55.0,2864907432-362042.jpg,2901947423-70310.jpg,2.0,,,,AN7Z42U38BCQT
316,76,,1.0,56.0,2883273443-68193.jpg,2460547508-51572.jpg,2.0,,,,AN7Z42U38BCQT
317,77,,1.0,57.0,2898618390-216538.jpg,2237856148-989.jpg,1.0,,,,AN7Z42U38BCQT
318,78,,1.0,58.0,2964222378-71332.jpg,2981240427-370099.jpg,3.0,,,,AN7Z42U38BCQT
319,79,,1.0,59.0,2452381505-199546.jpg,2994401319-148290.jpg,3.0,,,,AN7Z42U38BCQT
320,80,,1.0,60.0,2868474407-362883.jpg,2901948383-70363.jpg,3.0,,,,AN7Z42U38BCQT
321,81,,1.0,61.0,2981241414-145842.jpg,2874301404-139813.jpg,2.0,,,,AN7Z42U38BCQT
322,82,,1.0,62.0,2449442529-124445.jpg,2452380171-273112.jpg,1.0,,,,AN7Z42U38BCQT
323,83,,1.0,63.0,2592380177-354629.jpg,2898633421-291974.jpg,1.0,,,,AN7Z42U38BCQT
324,84,,1.0,64.0,2512875899-126682.jpg,2460547536-274179.jpg,1.0,,,,AN7Z42U38BCQT
325,20,,1.0,0.0,2238481198-19822.jpg,2238480803-19737.jpg,3.0,,,,A8K19FZIUU2TE
326,21,,1.0,1.0,2238428357-313623.jpg,2986408339-146952.jpg,3.0,,,,A8K19FZIUU2TE
327,22,,1.0,2.0,2238560245-182099.jpg,2238480980-168129.jpg,3.0,,,,A8K19FZIUU2TE
328,23,,1.0,3.0,2901952513-70703.jpg,2864907361-287062.jpg,1.0,,,,A8K19FZIUU2TE
329,24,,1.0,4.0,2964216465-219242.jpg,2238544191-252422.jpg,1.0,,,,A8K19FZIUU2TE
330,25,,1.0,5.0,2901947423-70311.jpg,2238577590-185467.jpg,3.0,,,,A8K19FZIUU2TE
331,26,right,1.0,6.0,right.jpg,,,right,1.092,,A8K19FZIUU2TE
332,27,,1.0,7.0,2898617468-68274.jpg,2901946439-144040.jpg,1.0,,,,A8K19FZIUU2TE
333,28,,1.0,8.0,2986451363-73598.jpg,2901942443-69925.jpg,3.0,,,,A8K19FZIUU2TE
334,29,,1.0,9.0,2874302418-65978.jpg,2964224310-219528.jpg,1.0,,,,A8K19FZIUU2TE
335,30,,1.0,10.0,2452381505-199546.jpg,2901938432-367627.jpg,1.0,,,,A8K19FZIUU2TE
336,31,,1.0,11.0,2592380177-354629.jpg,2579432534-130704.jpg,2.0,,,,A8K19FZIUU2TE
337,32,,1.0,12.0,2238425482-313537.jpg,2238471391-240918.jpg,1.0,,,,A8K19FZIUU2TE
338,33,,1.0,13.0,2446758985-197609.jpg,2898624426-291544.jpg,3.0,,,,A8K19FZIUU2TE
339,34,,1.0,14.0,2449442529-124445.jpg,2898632385-217137.jpg,3.0,,,,A8K19FZIUU2TE
340,35,,1.0,15.0,2460547467-349422.jpg,2868487415-213924.jpg,2.0,,,,A8K19FZIUU2TE
341,36,,1.0,16.0,2592380177-354626.jpg,2864901386-286797.jpg,2.0,,,,A8K19FZIUU2TE
342,37,,1.0,17.0,2874299429-139695.jpg,2901942443-69923.jpg,2.0,,,,A8K19FZIUU2TE
343,38,,1.0,18.0,2901939379-143480.jpg,2901942428-69919.jpg,1.0,,,,A8K19FZIUU2TE
344,39,,1.0,19.0,2898618390-216538.jpg,2575120609-129862.jpg,3.0,,,,A8K19FZIUU2TE
345,40,,1.0,20.0,2898635427-367120.jpg,2898621427-366486.jpg,3.0,,,,A8K19FZIUU2TE
346,41,,1.0,21.0,2868474407-362883.jpg,2981246400-220363.jpg,2.0,,,,A8K19FZIUU2TE
347,42,,1.0,22.0,2883273443-68193.jpg,2898627427-366763.jpg,3.0,,,,A8K19FZIUU2TE
348,43,left,1.0,23.0,left.jpg,,,left,0.5976,,A8K19FZIUU2TE
349,44,,1.0,24.0,2446759803-49249.jpg,2901951392-368654.jpg,3.0,,,,A8K19FZIUU2TE
350,45,,1.0,25.0,2452380832-348593.jpg,2238328478-11678.jpg,1.0,,,,A8K19FZIUU2TE
351,46,,1.0,26.0,2868475410-213219.jpg,2868474407-362885.jpg,3.0,,,,A8K19FZIUU2TE
352,47,right,1.0,27.0,right.jpg,,,right,2.3052,,A8K19FZIUU2TE
353,48,,1.0,28.0,2874302418-65979.jpg,2237857458-1325.jpg,1.0,,,,A8K19FZIUU2TE
354,49,,1.0,29.0,2460547467-349421.jpg,2898631394-142727.jpg,1.0,,,,A8K19FZIUU2TE
355,50,,1.0,30.0,2238572663-35822.jpg,2238584894-113161.jpg,1.0,,,,A8K19FZIUU2TE
356,51,,1.0,31.0,2898635428-69104.jpg,2898625336-291572.jpg,3.0,,,,A8K19FZIUU2TE
357,52,,1.0,32.0,2864910426-287204.jpg,2883268412-365899.jpg,2.0,,,,A8K19FZIUU2TE
358,53,,1.0,33.0,2864907432-362042.jpg,2901947423-70310.jpg,2.0,,,,A8K19FZIUU2TE
359,54,,1.0,34.0,2238480677-317399.jpg,2238480278-19661.jpg,3.0,,,,A8K19FZIUU2TE
360,55,,1.0,35.0,2898634397-367080.jpg,2237944827-301472.jpg,1.0,,,,A8K19FZIUU2TE
361,56,right,1.0,36.0,right.jpg,,,right,0.6425,,A8K19FZIUU2TE
362,57,,1.0,37.0,2981231403-71642.jpg,2874305405-214397.jpg,2.0,,,,A8K19FZIUU2TE
363,58,,1.0,38.0,2898624426-291546.jpg,2981235446-294900.jpg,3.0,,,,A8K19FZIUU2TE
364,59,,1.0,39.0,2874299429-139694.jpg,2981244403-72215.jpg,2.0,,,,A8K19FZIUU2TE
365,60,,1.0,40.0,2964218374-144967.jpg,2981231446-294732.jpg,3.0,,,,A8K19FZIUU2TE
366,61,,1.0,41.0,2898618444-142233.jpg,2238555262-330312.jpg,2.0,,,,A8K19FZIUU2TE
367,62,,1.0,42.0,2898633421-291973.jpg,2512876023-52283.jpg,1.0,,,,A8K19FZIUU2TE
368,63,,1.0,43.0,2964222378-71332.jpg,2981240424-145794.jpg,1.0,,,,A8K19FZIUU2TE
369,64,,1.0,44.0,2238481928-19949.jpg,2883264367-365620.jpg,1.0,,,,A8K19FZIUU2TE
370,65,,1.0,45.0,2449442529-124446.jpg,2460547536-274181.jpg,2.0,,,,A8K19FZIUU2TE
371,66,left,1.0,46.0,left.jpg,,,left,0.668,,A8K19FZIUU2TE
372,67,,1.0,47.0,2874301407-363895.jpg,2986397322-371109.jpg,2.0,,,,A8K19FZIUU2TE
373,68,,1.0,48.0,2883268471-290842.jpg,2883268471-290843.jpg,1.0,,,,A8K19FZIUU2TE
374,69,,1.0,49.0,2964223381-294447.jpg,2898628438-68785.jpg,3.0,,,,A8K19FZIUU2TE
375,70,,1.0,50.0,2512875899-126682.jpg,2592380177-354628.jpg,2.0,,,,A8K19FZIUU2TE
376,71,,1.0,51.0,2458347385-199723.jpg,2427874554-121863.jpg,2.0,,,,A8K19FZIUU2TE
377,72,,1.0,52.0,2238580740-186218.jpg,2238550816-254000.jpg,1.0,,,,A8K19FZIUU2TE
378,73,,1.0,53.0,2883256307-365057.jpg,2964210336-293945.jpg,2.0,,,,A8K19FZIUU2TE
379,74,,1.0,54.0,2592379964-131054.jpg,2592380272-354673.jpg,3.0,,,,A8K19FZIUU2TE
380,75,,1.0,55.0,2986451363-73599.jpg,2898626385-216899.jpg,1.0,,,,A8K19FZIUU2TE
381,76,,1.0,56.0,2874307433-66280.jpg,2981246400-220365.jpg,2.0,,,,A8K19FZIUU2TE
382,77,,1.0,57.0,2964213381-294060.jpg,2981244394-145974.jpg,1.0,,,,A8K19FZIUU2TE
383,78,,1.0,58.0,2874303365-214262.jpg,2238563377-332054.jpg,2.0,,,,A8K19FZIUU2TE
384,79,,1.0,59.0,2901939379-143479.jpg,2964216376-294181.jpg,3.0,,,,A8K19FZIUU2TE
385,80,,1.0,60.0,2901941401-292798.jpg,2981243412-370222.jpg,2.0,,,,A8K19FZIUU2TE
386,81,,1.0,61.0,2883268412-365898.jpg,2984615361-295510.jpg,2.0,,,,A8K19FZIUU2TE
387,82,,1.0,62.0,2575120738-55529.jpg,2238531493-28260.jpg,3.0,,,,A8K19FZIUU2TE
388,83,,1.0,63.0,2460547508-51571.jpg,2452380166-273109.jpg,1.0,,,,A8K19FZIUU2TE
389,84,,1.0,64.0,2981241414-145842.jpg,2874301404-139813.jpg,2.0,,,,A8K19FZIUU2TE
390,20,,1.0,0.0,2460547467-349421.jpg,2452380166-273110.jpg,2.0,,,,A19FW6H7BGKRVT
391,21,,1.0,1.0,2449442529-124445.jpg,2986408373-73286.jpg,2.0,,,,A19FW6H7BGKRVT
392,22,,1.0,2.0,2238560245-182099.jpg,2592380255-205553.jpg,1.0,,,,A19FW6H7BGKRVT
393,23,,1.0,3.0,2874303365-214262.jpg,2864911457-362260.jpg,3.0,,,,A19FW6H7BGKRVT
394,24,,1.0,4.0,2874302418-65979.jpg,2237857458-1325.jpg,1.0,,,,A19FW6H7BGKRVT
395,25,,1.0,5.0,2238428357-313623.jpg,2986408339-146952.jpg,3.0,,,,A19FW6H7BGKRVT
396,26,,1.0,6.0,2238425482-313537.jpg,2238436322-314047.jpg,2.0,,,,A19FW6H7BGKRVT
397,27,,1.0,7.0,2575120738-55529.jpg,2864906345-212360.jpg,1.0,,,,A19FW6H7BGKRVT
398,28,,1.0,8.0,2981231403-71642.jpg,2579432519-130698.jpg,1.0,,,,A19FW6H7BGKRVT
399,29,,1.0,9.0,2964222378-71332.jpg,2901933382-367209.jpg,2.0,,,,A19FW6H7BGKRVT
400,30,left,0.0,10.0,right.jpg,,,right,0.0079,,A19FW6H7BGKRVT
401,31,,1.0,11.0,2864907432-362042.jpg,2901947423-70310.jpg,2.0,,,,A19FW6H7BGKRVT
402,32,,1.0,12.0,2898635428-69104.jpg,2901943411-292945.jpg,2.0,,,,A19FW6H7BGKRVT
403,33,,1.0,13.0,2898624426-291546.jpg,2981235446-294900.jpg,3.0,,,,A19FW6H7BGKRVT
404,34,,1.0,14.0,2986451363-73599.jpg,2238434559-90406.jpg,3.0,,,,A19FW6H7BGKRVT
405,35,,1.0,15.0,2898633421-291973.jpg,2238550049-105691.jpg,3.0,,,,A19FW6H7BGKRVT
406,36,,1.0,16.0,2874299429-139695.jpg,2901942443-69923.jpg,2.0,,,,A19FW6H7BGKRVT
407,37,,1.0,17.0,2592380177-354626.jpg,2864901386-286797.jpg,2.0,,,,A19FW6H7BGKRVT
408,38,,1.0,18.0,2883256307-365057.jpg,2611628310-206388.jpg,1.0,,,,A19FW6H7BGKRVT
409,39,,1.0,19.0,2452381505-199546.jpg,2898632385-217138.jpg,2.0,,,,A19FW6H7BGKRVT
410,40,,1.0,20.0,2898617468-68274.jpg,2964207374-144577.jpg,3.0,,,,A19FW6H7BGKRVT
411,41,,1.0,21.0,2874302418-65978.jpg,2238481198-19823.jpg,2.0,,,,A19FW6H7BGKRVT
412,42,,1.0,22.0,2238480677-317399.jpg,2238573546-258454.jpg,2.0,,,,A19FW6H7BGKRVT
413,43,left,1.0,23.0,left.jpg,,,left,1.804299999,,A19FW6H7BGKRVT
414,44,,1.0,24.0,2901947423-70311.jpg,2860312398-62572.jpg,1.0,,,,A19FW6H7BGKRVT
415,45,,1.0,25.0,2592380177-354629.jpg,2579432534-130704.jpg,2.0,,,,A19FW6H7BGKRVT
416,46,,1.0,26.0,2446759803-49249.jpg,2898618440-216547.jpg,2.0,,,,A19FW6H7BGKRVT
417,47,,1.0,27.0,2592379964-131054.jpg,2575963989-130576.jpg,1.0,,,,A19FW6H7BGKRVT
418,48,,1.0,28.0,2446758985-197609.jpg,2981240424-145795.jpg,1.0,,,,A19FW6H7BGKRVT
419,49,,1.0,29.0,2868475410-213219.jpg,2868474407-362885.jpg,3.0,,,,A19FW6H7BGKRVT
420,50,left,1.0,30.0,left.jpg,,,left,1.4675,,A19FW6H7BGKRVT
421,51,,1.0,31.0,2512875899-126682.jpg,2986447332-371497.jpg,3.0,,,,A19FW6H7BGKRVT
422,52,,1.0,32.0,2458347385-199723.jpg,2238480434-93829.jpg,1.0,,,,A19FW6H7BGKRVT
423,53,,1.0,33.0,2460547508-51571.jpg,2452380166-273109.jpg,1.0,,,,A19FW6H7BGKRVT
424,54,,1.0,34.0,2964223381-294447.jpg,2901941438-69836.jpg,2.0,,,,A19FW6H7BGKRVT
425,55,,1.0,35.0,2901939379-143480.jpg,2898632385-217139.jpg,3.0,,,,A19FW6H7BGKRVT
426,56,,1.0,36.0,2452380832-348593.jpg,2238328478-11678.jpg,1.0,,,,A19FW6H7BGKRVT
427,57,,1.0,37.0,2874301407-363895.jpg,2446761374-124213.jpg,1.0,,,,A19FW6H7BGKRVT
428,58,,1.0,38.0,2238572663-35822.jpg,2238571930-184143.jpg,2.0,,,,A19FW6H7BGKRVT
429,59,,1.0,39.0,2898618390-216538.jpg,2575120609-129862.jpg,3.0,,,,A19FW6H7BGKRVT
430,60,,1.0,40.0,2449442529-124446.jpg,2446759803-49251.jpg,1.0,,,,A19FW6H7BGKRVT
431,61,,1.0,41.0,2460547467-349422.jpg,2898618440-216545.jpg,1.0,,,,A19FW6H7BGKRVT
432,62,,1.0,42.0,2964216465-219242.jpg,2898619327-366362.jpg,3.0,,,,A19FW6H7BGKRVT
433,63,,1.0,43.0,2883268412-365898.jpg,2984615361-295510.jpg,2.0,,,,A19FW6H7BGKRVT
434,64,,0.0,44.0,right.jpg,,,right,,,A19FW6H7BGKRVT
435,65,,1.0,45.0,2238580740-186218.jpg,2964220333-71258.jpg,3.0,,,,A19FW6H7BGKRVT
436,66,,1.0,46.0,2238481198-19822.jpg,2901946436-293242.jpg,2.0,,,,A19FW6H7BGKRVT
437,67,,1.0,47.0,2874307433-66280.jpg,2984615358-72439.jpg,1.0,,,,A19FW6H7BGKRVT
438,68,,1.0,48.0,2883273443-68193.jpg,2898627427-366763.jpg,3.0,,,,A19FW6H7BGKRVT
439,69,,1.0,49.0,2864910426-287204.jpg,2901939433-69672.jpg,3.0,,,,A19FW6H7BGKRVT
440,70,,1.0,50.0,2868474407-362883.jpg,2981246400-220363.jpg,2.0,,,,A19FW6H7BGKRVT
441,71,,1.0,51.0,2981241414-145842.jpg,2427873848-47312.jpg,3.0,,,,A19FW6H7BGKRVT
442,72,,1.0,52.0,2901939379-143479.jpg,2460547467-349423.jpg,1.0,,,,A19FW6H7BGKRVT
443,73,,1.0,53.0,2964213381-294060.jpg,2964213381-294061.jpg,3.0,,,,A19FW6H7BGKRVT
444,74,right,0.0,54.0,left.jpg,,,left,0.328599999,,A19FW6H7BGKRVT
445,75,,1.0,55.0,2898635427-367120.jpg,2868479517-363220.jpg,2.0,,,,A19FW6H7BGKRVT
446,76,,1.0,56.0,2901941401-292798.jpg,2898631468-68931.jpg,3.0,,,,A19FW6H7BGKRVT
447,77,,1.0,57.0,2874299429-139694.jpg,2986447306-296584.jpg,1.0,,,,A19FW6H7BGKRVT
448,78,,1.0,58.0,2238481928-19949.jpg,2883264367-365620.jpg,1.0,,,,A19FW6H7BGKRVT
449,79,,1.0,59.0,2898634397-367080.jpg,2964217461-294238.jpg,3.0,,,,A19FW6H7BGKRVT
450,80,,1.0,60.0,2964218374-144967.jpg,2981231446-294732.jpg,3.0,,,,A19FW6H7BGKRVT
451,81,,1.0,61.0,2901952513-70703.jpg,2868469411-287540.jpg,2.0,,,,A19FW6H7BGKRVT
452,82,,1.0,62.0,2898618444-142233.jpg,2898631359-142721.jpg,1.0,,,,A19FW6H7BGKRVT
453,83,,1.0,63.0,2883268471-290842.jpg,2883268471-290843.jpg,1.0,,,,A19FW6H7BGKRVT
454,84,,1.0,64.0,2986451363-73598.jpg,2901942443-69925.jpg,3.0,,,,A19FW6H7BGKRVT
455,20,,1.0,0.0,2898618444-142233.jpg,2898631359-142721.jpg,1.0,,,,ACR6012D868PP
456,21,,1.0,1.0,2868475410-213219.jpg,2238480803-19739.jpg,2.0,,,,ACR6012D868PP
457,22,,1.0,2.0,2898618390-216538.jpg,2901939327-367670.jpg,2.0,,,,ACR6012D868PP
458,23,,1.0,3.0,2592379964-131054.jpg,2592380272-354673.jpg,3.0,,,,ACR6012D868PP
459,24,,1.0,4.0,2981231403-71642.jpg,2427873763-47290.jpg,3.0,,,,ACR6012D868PP
460,25,,1.0,5.0,2901941401-292798.jpg,2981243412-370222.jpg,2.0,,,,ACR6012D868PP
461,26,,1.0,6.0,2449442529-124446.jpg,2446759803-49251.jpg,1.0,,,,ACR6012D868PP
462,27,,1.0,7.0,2964213381-294060.jpg,2981244394-145974.jpg,1.0,,,,ACR6012D868PP
463,28,,0.0,8.0,right.jpg,,,right,,,ACR6012D868PP
464,29,,1.0,9.0,2874301407-363895.jpg,2446761374-124213.jpg,1.0,,,,ACR6012D868PP
465,30,,1.0,10.0,2874303365-214262.jpg,2238563377-332054.jpg,2.0,,,,ACR6012D868PP
466,31,,1.0,11.0,2964216465-219242.jpg,2238544191-252422.jpg,1.0,,,,ACR6012D868PP
467,32,,1.0,12.0,2964223381-294447.jpg,2901941438-69836.jpg,2.0,,,,ACR6012D868PP
468,33,,1.0,13.0,2238572663-35822.jpg,2238571930-184143.jpg,2.0,,,,ACR6012D868PP
469,34,,1.0,14.0,2964222378-71332.jpg,2981240427-370099.jpg,3.0,,,,ACR6012D868PP
470,35,,1.0,15.0,2883256307-365057.jpg,2864904453-63933.jpg,3.0,,,,ACR6012D868PP
471,36,,1.0,16.0,2238580740-186218.jpg,2238521193-26285.jpg,2.0,,,,ACR6012D868PP
472,37,,1.0,17.0,2874302418-65978.jpg,2964224310-219528.jpg,1.0,,,,ACR6012D868PP
473,38,,1.0,18.0,2460547467-349421.jpg,2452380166-273110.jpg,2.0,,,,ACR6012D868PP
474,39,,1.0,19.0,2883268471-290842.jpg,2901947448-70314.jpg,3.0,,,,ACR6012D868PP
475,40,,1.0,20.0,2898635428-69104.jpg,2898625336-291572.jpg,3.0,,,,ACR6012D868PP
476,41,,1.0,21.0,2874299429-139695.jpg,2446760917-347439.jpg,3.0,,,,ACR6012D868PP
477,42,,0.0,22.0,right.jpg,,,right,,,ACR6012D868PP
478,43,,1.0,23.0,2238425482-313537.jpg,2238436322-314047.jpg,2.0,,,,ACR6012D868PP
479,44,,1.0,24.0,2575120738-55529.jpg,2864906345-212360.jpg,1.0,,,,ACR6012D868PP
480,45,,1.0,25.0,2592380177-354626.jpg,2238576792-334659.jpg,1.0,,,,ACR6012D868PP
481,46,,1.0,26.0,2460547467-349422.jpg,2868487415-213924.jpg,2.0,,,,ACR6012D868PP
482,47,,1.0,27.0,2964218374-144967.jpg,2964218374-144968.jpg,1.0,,,,ACR6012D868PP
483,48,,1.0,28.0,2864907432-362042.jpg,2989726338-74002.jpg,3.0,,,,ACR6012D868PP
484,49,,1.0,29.0,2874299429-139694.jpg,2883266367-365742.jpg,3.0,,,,ACR6012D868PP
485,50,,0.0,30.0,right.jpg,,,right,,,ACR6012D868PP
486,51,,1.0,31.0,2458347385-199723.jpg,2458347252-348911.jpg,3.0,,,,ACR6012D868PP
487,52,,1.0,32.0,2981241414-145842.jpg,2238516618-25604.jpg,1.0,,,,ACR6012D868PP
488,53,,1.0,33.0,2512875899-126682.jpg,2592380177-354628.jpg,2.0,,,,ACR6012D868PP
489,54,,1.0,34.0,2901939379-143479.jpg,2964216376-294181.jpg,3.0,,,,ACR6012D868PP
490,55,,1.0,35.0,2883268412-365898.jpg,2984615361-295510.jpg,2.0,,,,ACR6012D868PP
491,56,,1.0,36.0,2901947423-70311.jpg,2860312398-62572.jpg,1.0,,,,ACR6012D868PP
492,57,,1.0,37.0,2986451363-73598.jpg,2901942443-69925.jpg,3.0,,,,ACR6012D868PP
493,58,,1.0,38.0,2901952513-70703.jpg,2238481198-19821.jpg,3.0,,,,ACR6012D868PP
494,59,,1.0,39.0,2449442529-124445.jpg,2452380171-273112.jpg,1.0,,,,ACR6012D868PP
495,60,,1.0,40.0,2898633421-291973.jpg,2575118671-277663.jpg,2.0,,,,ACR6012D868PP
496,61,,1.0,41.0,2898635427-367120.jpg,2964221435-219434.jpg,1.0,,,,ACR6012D868PP
497,62,,1.0,42.0,2238481928-19949.jpg,2864900357-361688.jpg,2.0,,,,ACR6012D868PP
498,63,,0.0,43.0,right.jpg,,,right,,,ACR6012D868PP
499,64,,1.0,44.0,2452380832-348593.jpg,2238328478-11678.jpg,1.0,,,,ACR6012D868PP
500,65,,1.0,45.0,2898624426-291546.jpg,2981235446-294900.jpg,3.0,,,,ACR6012D868PP
501,66,,0.0,46.0,left.jpg,,,left,,,ACR6012D868PP
502,67,,1.0,47.0,2592380177-354629.jpg,2579432534-130704.jpg,2.0,,,,ACR6012D868PP
503,68,,1.0,48.0,2238560245-182099.jpg,2592380255-205553.jpg,1.0,,,,ACR6012D868PP
504,69,,1.0,49.0,2460547508-51571.jpg,2901941438-69835.jpg,3.0,,,,ACR6012D868PP
505,70,,1.0,50.0,2898617468-68274.jpg,2964207374-144577.jpg,3.0,,,,ACR6012D868PP
506,71,,1.0,51.0,2986451363-73599.jpg,2898626385-216899.jpg,1.0,,,,ACR6012D868PP
507,72,,1.0,52.0,2874302418-65979.jpg,2237857458-1325.jpg,1.0,,,,ACR6012D868PP
508,73,,1.0,53.0,2874307433-66280.jpg,2981246400-220365.jpg,2.0,,,,ACR6012D868PP
509,74,,1.0,54.0,2446758985-197609.jpg,2864909447-362144.jpg,2.0,,,,ACR6012D868PP
510,75,,1.0,55.0,2238480677-317399.jpg,2238480278-19661.jpg,3.0,,,,ACR6012D868PP
511,76,,1.0,56.0,2452381505-199546.jpg,2901938432-367627.jpg,1.0,,,,ACR6012D868PP
512,77,,1.0,57.0,2898634397-367080.jpg,2964217461-294238.jpg,3.0,,,,ACR6012D868PP
513,78,,1.0,58.0,2864910426-287204.jpg,2901939433-69672.jpg,3.0,,,,ACR6012D868PP
514,79,,1.0,59.0,2868474407-362883.jpg,2981246400-220363.jpg,2.0,,,,ACR6012D868PP
515,80,,1.0,60.0,2883273443-68193.jpg,2883254439-140940.jpg,1.0,,,,ACR6012D868PP
516,81,,1.0,61.0,2238481198-19822.jpg,2901946436-293242.jpg,2.0,,,,ACR6012D868PP
517,82,,1.0,62.0,2446759803-49249.jpg,2901951392-368654.jpg,3.0,,,,ACR6012D868PP
518,83,,1.0,63.0,2901939379-143480.jpg,2901942428-69919.jpg,1.0,,,,ACR6012D868PP
519,84,,1.0,64.0,2238428357-313623.jpg,2984615361-295509.jpg,2.0,,,,ACR6012D868PP
520,20,,1.0,0.0,2874302418-65979.jpg,2238480648-19714.jpg,2.0,,,,A2U5OFMW8H30PC
521,21,,1.0,1.0,2446758985-197609.jpg,2981240424-145795.jpg,1.0,,,,A2U5OFMW8H30PC
522,22,,1.0,2.0,2898624426-291546.jpg,2964218432-369263.jpg,1.0,,,,A2U5OFMW8H30PC
523,23,,1.0,3.0,2901941401-292798.jpg,2898618327-366317.jpg,1.0,,,,A2U5OFMW8H30PC
524,24,,1.0,4.0,2901939379-143480.jpg,2898632385-217139.jpg,3.0,,,,A2U5OFMW8H30PC
525,25,,1.0,5.0,2868475410-213219.jpg,2901946465-218350.jpg,1.0,,,,A2U5OFMW8H30PC
526,26,,1.0,6.0,2460547467-349422.jpg,2868487415-213924.jpg,2.0,,,,A2U5OFMW8H30PC
527,27,,1.0,7.0,2458347385-199723.jpg,2427874554-121863.jpg,2.0,,,,A2U5OFMW8H30PC
528,28,,1.0,8.0,2874302418-65978.jpg,2898633321-291943.jpg,3.0,,,,A2U5OFMW8H30PC
529,29,,1.0,9.0,2898618444-142233.jpg,2898631359-142721.jpg,1.0,,,,A2U5OFMW8H30PC
530,30,,1.0,10.0,2901939379-143479.jpg,2460547467-349423.jpg,1.0,,,,A2U5OFMW8H30PC
531,31,,1.0,11.0,2898634397-367080.jpg,2901934408-69289.jpg,2.0,,,,A2U5OFMW8H30PC
532,32,,1.0,12.0,2238572663-35822.jpg,2238584894-113161.jpg,1.0,,,,A2U5OFMW8H30PC
533,33,,1.0,13.0,2238428357-313623.jpg,2238499057-320266.jpg,1.0,,,,A2U5OFMW8H30PC
534,34,right,1.0,14.0,right.jpg,,,right,1.1457,,A2U5OFMW8H30PC
535,35,,1.0,15.0,2446759803-49249.jpg,2446760601-272099.jpg,1.0,,,,A2U5OFMW8H30PC
536,36,,1.0,16.0,2864907432-362042.jpg,2864901420-212147.jpg,1.0,,,,A2U5OFMW8H30PC
537,37,,1.0,17.0,2449442529-124445.jpg,2986408373-73286.jpg,2.0,,,,A2U5OFMW8H30PC
538,38,,1.0,18.0,2592379964-131054.jpg,2575963989-130576.jpg,1.0,,,,A2U5OFMW8H30PC
539,39,,1.0,19.0,2460547467-349421.jpg,2452380166-273110.jpg,2.0,,,,A2U5OFMW8H30PC
540,40,,1.0,20.0,2592380177-354626.jpg,2238576792-334659.jpg,1.0,,,,A2U5OFMW8H30PC
541,41,,1.0,21.0,2981241414-145842.jpg,2427873848-47312.jpg,3.0,,,,A2U5OFMW8H30PC
542,42,right,1.0,22.0,right.jpg,,,right,1.0636,,A2U5OFMW8H30PC
543,43,,1.0,23.0,2452381505-199546.jpg,2994401319-148290.jpg,3.0,,,,A2U5OFMW8H30PC
544,44,,1.0,24.0,2238480677-317399.jpg,2238481630-168218.jpg,1.0,,,,A2U5OFMW8H30PC
545,45,,1.0,25.0,2874307433-66280.jpg,2981246400-220365.jpg,2.0,,,,A2U5OFMW8H30PC
546,46,,1.0,26.0,2964218374-144967.jpg,2446759306-271734.jpg,2.0,,,,A2U5OFMW8H30PC
547,47,,1.0,27.0,2898635428-69104.jpg,2446759803-49250.jpg,1.0,,,,A2U5OFMW8H30PC
548,48,left,1.0,28.0,left.jpg,,,left,1.0276,,A2U5OFMW8H30PC
549,49,,1.0,29.0,2883268471-290842.jpg,2883268471-290843.jpg,1.0,,,,A2U5OFMW8H30PC
550,50,,1.0,30.0,2883256307-365057.jpg,2864904453-63933.jpg,3.0,,,,A2U5OFMW8H30PC
551,51,,1.0,31.0,2964216465-219242.jpg,2864900319-137787.jpg,2.0,,,,A2U5OFMW8H30PC
552,52,,1.0,32.0,2964223381-294447.jpg,2901941438-69836.jpg,2.0,,,,A2U5OFMW8H30PC
553,53,,1.0,33.0,2874299429-139694.jpg,2981244403-72215.jpg,2.0,,,,A2U5OFMW8H30PC
554,54,,1.0,34.0,2898633421-291973.jpg,2575118671-277663.jpg,2.0,,,,A2U5OFMW8H30PC
555,55,,1.0,35.0,2981231403-71642.jpg,2874305405-214397.jpg,2.0,,,,A2U5OFMW8H30PC
556,56,,1.0,36.0,2986451363-73598.jpg,2984628361-295995.jpg,2.0,,,,A2U5OFMW8H30PC
557,57,,1.0,37.0,2238481198-19822.jpg,2862691449-137104.jpg,1.0,,,,A2U5OFMW8H30PC
558,58,,1.0,38.0,2898618390-216538.jpg,2237856148-989.jpg,1.0,,,,A2U5OFMW8H30PC
559,59,,1.0,39.0,2868474407-362883.jpg,2901948383-70363.jpg,3.0,,,,A2U5OFMW8H30PC
560,60,,1.0,40.0,2874299429-139695.jpg,2901942443-69923.jpg,2.0,,,,A2U5OFMW8H30PC
561,61,,1.0,41.0,2986451363-73599.jpg,2898626385-216899.jpg,1.0,,,,A2U5OFMW8H30PC
562,62,,1.0,42.0,2512875899-126682.jpg,2460547536-274179.jpg,1.0,,,,A2U5OFMW8H30PC
563,63,right,1.0,43.0,right.jpg,,,right,1.1313,,A2U5OFMW8H30PC
564,64,,1.0,44.0,2238425482-313537.jpg,2238436322-314047.jpg,2.0,,,,A2U5OFMW8H30PC
565,65,,1.0,45.0,2238580740-186218.jpg,2238521193-26285.jpg,2.0,,,,A2U5OFMW8H30PC
566,66,,1.0,46.0,2592380177-354629.jpg,2512875587-350044.jpg,3.0,,,,A2U5OFMW8H30PC
567,67,,1.0,47.0,2874301407-363895.jpg,2446761374-124213.jpg,1.0,,,,A2U5OFMW8H30PC
568,68,,1.0,48.0,2901947423-70311.jpg,2238573447-333826.jpg,2.0,,,,A2U5OFMW8H30PC
569,69,,1.0,49.0,2460547508-51571.jpg,2901941438-69835.jpg,3.0,,,,A2U5OFMW8H30PC
570,70,,1.0,50.0,2452380832-348593.jpg,2237858942-299356.jpg,3.0,,,,A2U5OFMW8H30PC
571,71,,1.0,51.0,2898635427-367120.jpg,2898621427-366486.jpg,3.0,,,,A2U5OFMW8H30PC
572,72,,1.0,52.0,2238560245-182099.jpg,2238480980-168129.jpg,3.0,,,,A2U5OFMW8H30PC
573,73,,1.0,53.0,2883268412-365898.jpg,2238436252-314037.jpg,3.0,,,,A2U5OFMW8H30PC
574,74,right,1.0,54.0,right.jpg,,,right,1.2125,,A2U5OFMW8H30PC
575,75,,1.0,55.0,2898617468-68274.jpg,2964207374-144577.jpg,3.0,,,,A2U5OFMW8H30PC
576,76,,1.0,56.0,2964213381-294060.jpg,2964213381-294061.jpg,3.0,,,,A2U5OFMW8H30PC
577,77,,1.0,57.0,2864910426-287204.jpg,2901939433-69672.jpg,3.0,,,,A2U5OFMW8H30PC
578,78,,1.0,58.0,2901952513-70703.jpg,2868469411-287540.jpg,2.0,,,,A2U5OFMW8H30PC
579,79,,1.0,59.0,2964222378-71332.jpg,2901933382-367209.jpg,2.0,,,,A2U5OFMW8H30PC
580,80,,1.0,60.0,2883273443-68193.jpg,2898627427-366763.jpg,3.0,,,,A2U5OFMW8H30PC
581,81,,1.0,61.0,2449442529-124446.jpg,2460547536-274178.jpg,3.0,,,,A2U5OFMW8H30PC
582,82,,1.0,62.0,2238481928-19949.jpg,2981241419-145844.jpg,3.0,,,,A2U5OFMW8H30PC
583,83,,1.0,63.0,2874303365-214262.jpg,2864911457-362260.jpg,3.0,,,,A2U5OFMW8H30PC
584,84,,1.0,64.0,2575120738-55529.jpg,2238531493-28260.jpg,3.0,,,,A2U5OFMW8H30PC
585,20,,1.0,0.0,2868474407-362883.jpg,2901948383-70363.jpg,3.0,,,,A2TZVJFRJ5I61B
586,21,,1.0,1.0,2238428357-313623.jpg,2986408339-146952.jpg,3.0,,,,A2TZVJFRJ5I61B
587,22,,1.0,2.0,2986451363-73599.jpg,2898626385-216899.jpg,1.0,,,,A2TZVJFRJ5I61B
588,23,,1.0,3.0,2898635428-69104.jpg,2901943411-292945.jpg,2.0,,,,A2TZVJFRJ5I61B
589,24,,1.0,4.0,2901952513-70703.jpg,2868469411-287540.jpg,2.0,,,,A2TZVJFRJ5I61B
590,25,,1.0,5.0,2512875899-126682.jpg,2460547536-274179.jpg,1.0,,,,A2TZVJFRJ5I61B
591,26,,1.0,6.0,2449442529-124445.jpg,2986408373-73286.jpg,2.0,,,,A2TZVJFRJ5I61B
592,27,,1.0,7.0,2874302418-65978.jpg,2898633321-291943.jpg,3.0,,,,A2TZVJFRJ5I61B
593,28,,1.0,8.0,2458347385-199723.jpg,2238480434-93829.jpg,1.0,,,,A2TZVJFRJ5I61B
594,29,,1.0,9.0,2238572663-35822.jpg,2864903351-286874.jpg,3.0,,,,A2TZVJFRJ5I61B
595,30,,1.0,10.0,2460547508-51571.jpg,2452380166-273109.jpg,1.0,,,,A2TZVJFRJ5I61B
596,31,,1.0,11.0,2460547467-349422.jpg,2868487415-213924.jpg,2.0,,,,A2TZVJFRJ5I61B
597,32,,1.0,12.0,2868475410-213219.jpg,2868474407-362885.jpg,3.0,,,,A2TZVJFRJ5I61B
598,33,,1.0,13.0,2883268471-290842.jpg,2883255450-215310.jpg,2.0,,,,A2TZVJFRJ5I61B
599,34,,0.0,14.0,right.jpg,,,right,,,A2TZVJFRJ5I61B
600,35,,1.0,15.0,2883268412-365898.jpg,2984615361-295510.jpg,2.0,,,,A2TZVJFRJ5I61B
601,36,,1.0,16.0,2874303365-214262.jpg,2274829821-263682.jpg,1.0,,,,A2TZVJFRJ5I61B
602,37,,0.0,17.0,left.jpg,,,left,,,A2TZVJFRJ5I61B
603,38,,1.0,18.0,2238560245-182099.jpg,2874314526-289684.jpg,2.0,,,,A2TZVJFRJ5I61B
604,39,,1.0,19.0,2901941401-292798.jpg,2898618327-366317.jpg,1.0,,,,A2TZVJFRJ5I61B
605,40,,1.0,20.0,2986451363-73598.jpg,2901942443-69925.jpg,3.0,,,,A2TZVJFRJ5I61B
606,41,,1.0,21.0,2981231403-71642.jpg,2579432519-130698.jpg,1.0,,,,A2TZVJFRJ5I61B
607,42,,1.0,22.0,2452381505-199546.jpg,2898632385-217138.jpg,2.0,,,,A2TZVJFRJ5I61B
608,43,,1.0,23.0,2964218374-144967.jpg,2981231446-294732.jpg,3.0,,,,A2TZVJFRJ5I61B
609,44,,1.0,24.0,2883256307-365057.jpg,2864904453-63933.jpg,3.0,,,,A2TZVJFRJ5I61B
610,45,,1.0,25.0,2874299429-139695.jpg,2901942443-69923.jpg,2.0,,,,A2TZVJFRJ5I61B
611,46,,1.0,26.0,2901939379-143479.jpg,2460547467-349423.jpg,1.0,,,,A2TZVJFRJ5I61B
612,47,,1.0,27.0,2238580740-186218.jpg,2238550816-254000.jpg,1.0,,,,A2TZVJFRJ5I61B
613,48,,1.0,28.0,2964223381-294447.jpg,2898628438-68785.jpg,3.0,,,,A2TZVJFRJ5I61B
614,49,,1.0,29.0,2874299429-139694.jpg,2981244403-72215.jpg,2.0,,,,A2TZVJFRJ5I61B
615,50,,0.0,30.0,left.jpg,,,left,,,A2TZVJFRJ5I61B
616,51,,1.0,31.0,2898618390-216538.jpg,2901939327-367670.jpg,2.0,,,,A2TZVJFRJ5I61B
617,52,,1.0,32.0,2592379964-131054.jpg,2238479053-19457.jpg,2.0,,,,A2TZVJFRJ5I61B
618,53,,1.0,33.0,2592380177-354629.jpg,2512875587-350044.jpg,3.0,,,,A2TZVJFRJ5I61B
619,54,,1.0,34.0,2898618444-142233.jpg,2898618444-142232.jpg,3.0,,,,A2TZVJFRJ5I61B
620,55,,1.0,35.0,2446759803-49249.jpg,2446760601-272099.jpg,1.0,,,,A2TZVJFRJ5I61B
621,56,,1.0,36.0,2898624426-291546.jpg,2981236443-71859.jpg,2.0,,,,A2TZVJFRJ5I61B
622,57,,0.0,37.0,right.jpg,,,right,,,A2TZVJFRJ5I61B
623,58,,1.0,38.0,2238481198-19822.jpg,2901946436-293242.jpg,2.0,,,,A2TZVJFRJ5I61B
624,59,,1.0,39.0,2883273443-68193.jpg,2460547508-51572.jpg,2.0,,,,A2TZVJFRJ5I61B
625,60,,1.0,40.0,2460547467-349421.jpg,2898631394-142727.jpg,1.0,,,,A2TZVJFRJ5I61B
626,61,,1.0,41.0,2864910426-287204.jpg,2864902304-137862.jpg,1.0,,,,A2TZVJFRJ5I61B
627,62,,1.0,42.0,2575120738-55529.jpg,2575120738-55528.jpg,2.0,,,,A2TZVJFRJ5I61B
628,63,,1.0,43.0,2964216465-219242.jpg,2238544191-252422.jpg,1.0,,,,A2TZVJFRJ5I61B
629,64,,1.0,44.0,2964213381-294060.jpg,2981244394-145974.jpg,1.0,,,,A2TZVJFRJ5I61B
630,65,,1.0,45.0,2864907432-362042.jpg,2864901420-212147.jpg,1.0,,,,A2TZVJFRJ5I61B
631,66,,1.0,46.0,2981241414-145842.jpg,2427873848-47312.jpg,3.0,,,,A2TZVJFRJ5I61B
632,67,,1.0,47.0,2898617468-68274.jpg,2901943387-368037.jpg,2.0,,,,A2TZVJFRJ5I61B
633,68,,1.0,48.0,2238480677-317399.jpg,2238480278-19661.jpg,3.0,,,,A2TZVJFRJ5I61B
634,69,,1.0,49.0,2898633421-291973.jpg,2512876023-52283.jpg,1.0,,,,A2TZVJFRJ5I61B
635,70,,1.0,50.0,2238481928-19949.jpg,2864900357-361688.jpg,2.0,,,,A2TZVJFRJ5I61B
636,71,right,1.0,51.0,right.jpg,,,right,2.7677,,A2TZVJFRJ5I61B
637,72,,1.0,52.0,2964222378-71332.jpg,2981240427-370099.jpg,3.0,,,,A2TZVJFRJ5I61B
638,73,,1.0,53.0,2898634397-367080.jpg,2964217461-294238.jpg,3.0,,,,A2TZVJFRJ5I61B
639,74,,1.0,54.0,2874301407-363895.jpg,2901947323-70275.jpg,3.0,,,,A2TZVJFRJ5I61B
640,75,,1.0,55.0,2898635427-367120.jpg,2868479517-363220.jpg,2.0,,,,A2TZVJFRJ5I61B
641,76,,1.0,56.0,2452380832-348593.jpg,2237858942-299356.jpg,3.0,,,,A2TZVJFRJ5I61B
642,77,,1.0,57.0,2592380177-354626.jpg,2238576792-334659.jpg,1.0,,,,A2TZVJFRJ5I61B
643,78,,1.0,58.0,2901939379-143480.jpg,2898632385-217139.jpg,3.0,,,,A2TZVJFRJ5I61B
644,79,,1.0,59.0,2874307433-66280.jpg,2984615358-72439.jpg,1.0,,,,A2TZVJFRJ5I61B
645,80,,1.0,60.0,2874302418-65979.jpg,2237857458-1325.jpg,1.0,,,,A2TZVJFRJ5I61B
646,81,,1.0,61.0,2449442529-124446.jpg,2460547536-274181.jpg,2.0,,,,A2TZVJFRJ5I61B
647,82,,1.0,62.0,2446758985-197609.jpg,2898624426-291544.jpg,3.0,,,,A2TZVJFRJ5I61B
648,83,,1.0,63.0,2901947423-70311.jpg,2238577590-185467.jpg,3.0,,,,A2TZVJFRJ5I61B
649,84,,1.0,64.0,2238425482-313537.jpg,2238471391-240918.jpg,1.0,,,,A2TZVJFRJ5I61B
650,20,,1.0,0.0,2460547467-349422.jpg,2898618440-216545.jpg,1.0,,,,A1R5JNC2LO6X1S
651,21,,1.0,1.0,2864907432-362042.jpg,2864901420-212147.jpg,1.0,,,,A1R5JNC2LO6X1S
652,22,,1.0,2.0,2592380177-354629.jpg,2898633421-291974.jpg,1.0,,,,A1R5JNC2LO6X1S
653,23,,1.0,3.0,2874302418-65978.jpg,2898633321-291943.jpg,3.0,,,,A1R5JNC2LO6X1S
654,24,,1.0,4.0,2898635428-69104.jpg,2901943411-292945.jpg,2.0,,,,A1R5JNC2LO6X1S
655,25,,1.0,5.0,2874299429-139695.jpg,2901942443-69923.jpg,2.0,,,,A1R5JNC2LO6X1S
656,26,,1.0,6.0,2901952513-70703.jpg,2238481198-19821.jpg,3.0,,,,A1R5JNC2LO6X1S
657,27,,1.0,7.0,2986451363-73599.jpg,2860302315-210704.jpg,2.0,,,,A1R5JNC2LO6X1S
658,28,,1.0,8.0,2868475410-213219.jpg,2901946465-218350.jpg,1.0,,,,A1R5JNC2LO6X1S
659,29,right,1.0,9.0,right.jpg,,,right,2.421,,A1R5JNC2LO6X1S
660,30,,1.0,10.0,2449442529-124446.jpg,2446759803-49251.jpg,1.0,,,,A1R5JNC2LO6X1S
661,31,,1.0,11.0,2874299429-139694.jpg,2883266367-365742.jpg,3.0,,,,A1R5JNC2LO6X1S
662,32,,1.0,12.0,2901941401-292798.jpg,2898618327-366317.jpg,1.0,,,,A1R5JNC2LO6X1S
663,33,,1.0,13.0,2901939379-143480.jpg,2898632385-217139.jpg,3.0,,,,A1R5JNC2LO6X1S
664,34,,1.0,14.0,2874303365-214262.jpg,2238563377-332054.jpg,2.0,,,,A1R5JNC2LO6X1S
665,35,,1.0,15.0,2898617468-68274.jpg,2901946439-144040.jpg,1.0,,,,A1R5JNC2LO6X1S
666,36,,1.0,16.0,2575120738-55529.jpg,2575120738-55528.jpg,2.0,,,,A1R5JNC2LO6X1S
667,37,,1.0,17.0,2981241414-145842.jpg,2427873848-47312.jpg,3.0,,,,A1R5JNC2LO6X1S
668,38,,1.0,18.0,2238572663-35822.jpg,2864903351-286874.jpg,3.0,,,,A1R5JNC2LO6X1S
669,39,,1.0,19.0,2458347385-199723.jpg,2238480434-93829.jpg,1.0,,,,A1R5JNC2LO6X1S
670,40,,1.0,20.0,2901947423-70311.jpg,2238577590-185467.jpg,3.0,,,,A1R5JNC2LO6X1S
671,41,left,1.0,21.0,left.jpg,,,left,0.965,,A1R5JNC2LO6X1S
672,42,,1.0,22.0,2460547467-349421.jpg,2981235446-294901.jpg,3.0,,,,A1R5JNC2LO6X1S
673,43,,1.0,23.0,2898634397-367080.jpg,2237944827-301472.jpg,1.0,,,,A1R5JNC2LO6X1S
674,44,,1.0,24.0,2238480677-317399.jpg,2238573546-258454.jpg,2.0,,,,A1R5JNC2LO6X1S
675,45,,1.0,25.0,2238481198-19822.jpg,2862691449-137104.jpg,1.0,,,,A1R5JNC2LO6X1S
676,46,,1.0,26.0,2883268412-365898.jpg,2238436252-314037.jpg,3.0,,,,A1R5JNC2LO6X1S
677,47,,1.0,27.0,2898618444-142233.jpg,2898631359-142721.jpg,1.0,,,,A1R5JNC2LO6X1S
678,48,,1.0,28.0,2883256307-365057.jpg,2864904453-63933.jpg,3.0,,,,A1R5JNC2LO6X1S
679,49,,1.0,29.0,2592380177-354626.jpg,2864901386-286797.jpg,2.0,,,,A1R5JNC2LO6X1S
680,50,left,1.0,30.0,left.jpg,,,left,1.513,,A1R5JNC2LO6X1S
681,51,,1.0,31.0,2874302418-65979.jpg,2238578544-111698.jpg,3.0,,,,A1R5JNC2LO6X1S
682,52,,1.0,32.0,2898633421-291973.jpg,2238550049-105691.jpg,3.0,,,,A1R5JNC2LO6X1S
683,53,,1.0,33.0,2446759803-49249.jpg,2446760601-272099.jpg,1.0,,,,A1R5JNC2LO6X1S
684,54,,1.0,34.0,2868474407-362883.jpg,2981246400-220363.jpg,2.0,,,,A1R5JNC2LO6X1S
685,55,,1.0,35.0,2874301407-363895.jpg,2446761374-124213.jpg,1.0,,,,A1R5JNC2LO6X1S
686,56,,1.0,36.0,2898635427-367120.jpg,2964221435-219434.jpg,1.0,,,,A1R5JNC2LO6X1S
687,57,,1.0,37.0,2874307433-66280.jpg,2984615358-72439.jpg,1.0,,,,A1R5JNC2LO6X1S
688,58,,1.0,38.0,2238428357-313623.jpg,2984615361-295509.jpg,2.0,,,,A1R5JNC2LO6X1S
689,59,,1.0,39.0,2452381505-199546.jpg,2994401319-148290.jpg,3.0,,,,A1R5JNC2LO6X1S
690,60,,1.0,40.0,2986451363-73598.jpg,2984628361-295995.jpg,2.0,,,,A1R5JNC2LO6X1S
691,61,,1.0,41.0,2446758985-197609.jpg,2864909447-362144.jpg,2.0,,,,A1R5JNC2LO6X1S
692,62,,1.0,42.0,2901939379-143479.jpg,2446758985-197610.jpg,2.0,,,,A1R5JNC2LO6X1S
693,63,,1.0,43.0,2864910426-287204.jpg,2864902304-137862.jpg,1.0,,,,A1R5JNC2LO6X1S
694,64,left,1.0,44.0,left.jpg,,,left,0.933,,A1R5JNC2LO6X1S
695,65,,1.0,45.0,2452380832-348593.jpg,2237858942-299356.jpg,3.0,,,,A1R5JNC2LO6X1S
696,66,,1.0,46.0,2964216465-219242.jpg,2898619327-366362.jpg,3.0,,,,A1R5JNC2LO6X1S
697,67,,1.0,47.0,2238481928-19949.jpg,2981241419-145844.jpg,3.0,,,,A1R5JNC2LO6X1S
698,68,,1.0,48.0,2898624426-291546.jpg,2981236443-71859.jpg,2.0,,,,A1R5JNC2LO6X1S
699,69,,1.0,49.0,2964213381-294060.jpg,2458348012-349114.jpg,2.0,,,,A1R5JNC2LO6X1S
700,70,,1.0,50.0,2238580740-186218.jpg,2238521193-26285.jpg,2.0,,,,A1R5JNC2LO6X1S
701,71,,1.0,51.0,2964218374-144967.jpg,2964218374-144968.jpg,1.0,,,,A1R5JNC2LO6X1S
702,72,right,1.0,52.0,right.jpg,,,right,1.016,,A1R5JNC2LO6X1S
703,73,,1.0,53.0,2964222378-71332.jpg,2901933382-367209.jpg,2.0,,,,A1R5JNC2LO6X1S
704,74,,1.0,54.0,2592379964-131054.jpg,2592380272-354673.jpg,3.0,,,,A1R5JNC2LO6X1S
705,75,,1.0,55.0,2883273443-68193.jpg,2460547508-51572.jpg,2.0,,,,A1R5JNC2LO6X1S
706,76,,1.0,56.0,2883268471-290842.jpg,2883255450-215310.jpg,2.0,,,,A1R5JNC2LO6X1S
707,77,,1.0,57.0,2512875899-126682.jpg,2460547536-274179.jpg,1.0,,,,A1R5JNC2LO6X1S
708,78,,1.0,58.0,2981231403-71642.jpg,2579432519-130698.jpg,1.0,,,,A1R5JNC2LO6X1S
709,79,,1.0,59.0,2964223381-294447.jpg,2898628438-68785.jpg,3.0,,,,A1R5JNC2LO6X1S
710,80,,1.0,60.0,2238560245-182099.jpg,2874314526-289684.jpg,2.0,,,,A1R5JNC2LO6X1S
711,81,,1.0,61.0,2460547508-51571.jpg,2981232437-369759.jpg,2.0,,,,A1R5JNC2LO6X1S
712,82,,1.0,62.0,2238425482-313537.jpg,2238471391-240918.jpg,1.0,,,,A1R5JNC2LO6X1S
713,83,,1.0,63.0,2449442529-124445.jpg,2898632385-217137.jpg,3.0,,,,A1R5JNC2LO6X1S
714,84,,1.0,64.0,2898618390-216538.jpg,2575120609-129862.jpg,3.0,,,,A1R5JNC2LO6X1S
715,20,,1.0,0.0,2874299429-139694.jpg,2883266367-365742.jpg,3.0,,,,A3L9EN8YL1HZWF
716,21,,1.0,1.0,2964213381-294060.jpg,2964213381-294061.jpg,3.0,,,,A3L9EN8YL1HZWF
717,22,,1.0,2.0,2864907432-362042.jpg,2989726338-74002.jpg,3.0,,,,A3L9EN8YL1HZWF
718,23,,1.0,3.0,2592380177-354626.jpg,2238576792-334659.jpg,1.0,,,,A3L9EN8YL1HZWF
719,24,,1.0,4.0,2883273443-68193.jpg,2883254439-140940.jpg,1.0,,,,A3L9EN8YL1HZWF
720,25,,1.0,5.0,2460547467-349422.jpg,2898618440-216545.jpg,1.0,,,,A3L9EN8YL1HZWF
721,26,,1.0,6.0,2238425482-313537.jpg,2898633480-217190.jpg,3.0,,,,A3L9EN8YL1HZWF
722,27,,1.0,7.0,2446759803-49249.jpg,2901951392-368654.jpg,3.0,,,,A3L9EN8YL1HZWF
723,28,,1.0,8.0,2868474407-362883.jpg,2901948383-70363.jpg,3.0,,,,A3L9EN8YL1HZWF
724,29,right,1.0,9.0,right.jpg,,,right,1.046,,A3L9EN8YL1HZWF
725,30,,1.0,10.0,2898635428-69104.jpg,2446759803-49250.jpg,1.0,,,,A3L9EN8YL1HZWF
726,31,,1.0,11.0,2898635427-367120.jpg,2898621427-366486.jpg,3.0,,,,A3L9EN8YL1HZWF
727,32,,1.0,12.0,2898618444-142233.jpg,2238555262-330312.jpg,2.0,,,,A3L9EN8YL1HZWF
728,33,,1.0,13.0,2898624426-291546.jpg,2964218432-369263.jpg,1.0,,,,A3L9EN8YL1HZWF
729,34,,1.0,14.0,2446758985-197609.jpg,2864909447-362144.jpg,2.0,,,,A3L9EN8YL1HZWF
730,35,,1.0,15.0,2964218374-144967.jpg,2446759306-271734.jpg,2.0,,,,A3L9EN8YL1HZWF
731,36,,1.0,16.0,2238481928-19949.jpg,2883264367-365620.jpg,1.0,,,,A3L9EN8YL1HZWF
732,37,left,1.0,17.0,left.jpg,,,left,0.782,,A3L9EN8YL1HZWF
733,38,,1.0,18.0,2864910426-287204.jpg,2901939433-69672.jpg,3.0,,,,A3L9EN8YL1HZWF
734,39,,1.0,19.0,2986451363-73598.jpg,2901942443-69925.jpg,3.0,,,,A3L9EN8YL1HZWF
735,40,,1.0,20.0,2901947423-70311.jpg,2860312398-62572.jpg,1.0,,,,A3L9EN8YL1HZWF
736,41,,1.0,21.0,2452380832-348593.jpg,2238481813-19930.jpg,2.0,,,,A3L9EN8YL1HZWF
737,42,,1.0,22.0,2592380177-354629.jpg,2512875587-350044.jpg,3.0,,,,A3L9EN8YL1HZWF
738,43,,1.0,23.0,2898618390-216538.jpg,2901939327-367670.jpg,2.0,,,,A3L9EN8YL1HZWF
739,44,,1.0,24.0,2460547508-51571.jpg,2901941438-69835.jpg,3.0,,,,A3L9EN8YL1HZWF
740,45,,1.0,25.0,2238480677-317399.jpg,2238480278-19661.jpg,3.0,,,,A3L9EN8YL1HZWF
741,46,,1.0,26.0,2874302418-65978.jpg,2898633321-291943.jpg,3.0,,,,A3L9EN8YL1HZWF
742,47,,1.0,27.0,2964222378-71332.jpg,2901933382-367209.jpg,2.0,,,,A3L9EN8YL1HZWF
743,48,,1.0,28.0,2449442529-124446.jpg,2460547536-274181.jpg,2.0,,,,A3L9EN8YL1HZWF
744,49,,1.0,29.0,2986451363-73599.jpg,2898626385-216899.jpg,1.0,,,,A3L9EN8YL1HZWF
745,50,,1.0,30.0,2981231403-71642.jpg,2579432519-130698.jpg,1.0,,,,A3L9EN8YL1HZWF
746,51,right,1.0,31.0,right.jpg,,,right,1.046,,A3L9EN8YL1HZWF
747,52,,1.0,32.0,2901939379-143480.jpg,2981229442-369621.jpg,2.0,,,,A3L9EN8YL1HZWF
748,53,,1.0,33.0,2883256307-365057.jpg,2611628310-206388.jpg,1.0,,,,A3L9EN8YL1HZWF
749,54,,1.0,34.0,2575120738-55529.jpg,2575120738-55528.jpg,2.0,,,,A3L9EN8YL1HZWF
750,55,,1.0,35.0,2458347385-199723.jpg,2238480434-93829.jpg,1.0,,,,A3L9EN8YL1HZWF
751,56,,1.0,36.0,2901939379-143479.jpg,2460547467-349423.jpg,1.0,,,,A3L9EN8YL1HZWF
752,57,right,1.0,37.0,right.jpg,,,right,0.986,,A3L9EN8YL1HZWF
753,58,,1.0,38.0,2592379964-131054.jpg,2592380272-354673.jpg,3.0,,,,A3L9EN8YL1HZWF
754,59,,1.0,39.0,2874302418-65979.jpg,2237857458-1325.jpg,1.0,,,,A3L9EN8YL1HZWF
755,60,,1.0,40.0,2901952513-70703.jpg,2868469411-287540.jpg,2.0,,,,A3L9EN8YL1HZWF
756,61,,1.0,41.0,2964216465-219242.jpg,2238544191-252422.jpg,1.0,,,,A3L9EN8YL1HZWF
757,62,,1.0,42.0,2238560245-182099.jpg,2592380255-205553.jpg,1.0,,,,A3L9EN8YL1HZWF
758,63,,1.0,43.0,2964223381-294447.jpg,2898628438-68785.jpg,3.0,,,,A3L9EN8YL1HZWF
759,64,,1.0,44.0,2238572663-35822.jpg,2864903351-286874.jpg,3.0,,,,A3L9EN8YL1HZWF
760,65,,1.0,45.0,2449442529-124445.jpg,2986408373-73286.jpg,2.0,,,,A3L9EN8YL1HZWF
761,66,,1.0,46.0,2898633421-291973.jpg,2238550049-105691.jpg,3.0,,,,A3L9EN8YL1HZWF
762,67,,1.0,47.0,2874307433-66280.jpg,2984615358-72439.jpg,1.0,,,,A3L9EN8YL1HZWF
763,68,,1.0,48.0,2452381505-199546.jpg,2901938432-367627.jpg,1.0,,,,A3L9EN8YL1HZWF
764,69,,1.0,49.0,2874301407-363895.jpg,2446761374-124213.jpg,1.0,,,,A3L9EN8YL1HZWF
765,70,,1.0,50.0,2883268471-290842.jpg,2883255450-215310.jpg,2.0,,,,A3L9EN8YL1HZWF
766,71,,1.0,51.0,2898634397-367080.jpg,2237944827-301472.jpg,1.0,,,,A3L9EN8YL1HZWF
767,72,,1.0,52.0,2460547467-349421.jpg,2452380166-273110.jpg,2.0,,,,A3L9EN8YL1HZWF
768,73,left,1.0,53.0,left.jpg,,,left,0.864,,A3L9EN8YL1HZWF
769,74,,1.0,54.0,2874303365-214262.jpg,2238563377-332054.jpg,2.0,,,,A3L9EN8YL1HZWF
770,75,,1.0,55.0,2901941401-292798.jpg,2981243412-370222.jpg,2.0,,,,A3L9EN8YL1HZWF
771,76,,1.0,56.0,2874299429-139695.jpg,2901942443-69923.jpg,2.0,,,,A3L9EN8YL1HZWF
772,77,,1.0,57.0,2868475410-213219.jpg,2901946465-218350.jpg,1.0,,,,A3L9EN8YL1HZWF
773,78,,1.0,58.0,2981241414-145842.jpg,2427873848-47312.jpg,3.0,,,,A3L9EN8YL1HZWF
774,79,,1.0,59.0,2898617468-68274.jpg,2901943387-368037.jpg,2.0,,,,A3L9EN8YL1HZWF
775,80,,1.0,60.0,2883268412-365898.jpg,2238436252-314037.jpg,3.0,,,,A3L9EN8YL1HZWF
776,81,,1.0,61.0,2238428357-313623.jpg,2986408339-146952.jpg,3.0,,,,A3L9EN8YL1HZWF
777,82,,1.0,62.0,2238580740-186218.jpg,2238521193-26285.jpg,2.0,,,,A3L9EN8YL1HZWF
778,83,,1.0,63.0,2238481198-19822.jpg,2901946436-293242.jpg,2.0,,,,A3L9EN8YL1HZWF
779,84,,1.0,64.0,2512875899-126682.jpg,2592380177-354628.jpg,2.0,,,,A3L9EN8YL1HZWF
780,20,,1.0,0.0,2874302418-65979.jpg,2238480648-19714.jpg,2.0,,,,A1AT1U9SZ2T4NN
781,21,,1.0,1.0,2883268412-365898.jpg,2238436252-314037.jpg,3.0,,,,A1AT1U9SZ2T4NN
782,22,,1.0,2.0,2898635428-69104.jpg,2446759803-49250.jpg,1.0,,,,A1AT1U9SZ2T4NN
783,23,,1.0,3.0,2238481928-19949.jpg,2981241419-145844.jpg,3.0,,,,A1AT1U9SZ2T4NN
784,24,,1.0,4.0,2238572663-35822.jpg,2238584894-113161.jpg,1.0,,,,A1AT1U9SZ2T4NN
785,25,,1.0,5.0,2874303365-214262.jpg,2864911457-362260.jpg,3.0,,,,A1AT1U9SZ2T4NN
786,26,,1.0,6.0,2964218374-144967.jpg,2964218374-144968.jpg,1.0,,,,A1AT1U9SZ2T4NN
787,27,,0.0,7.0,left.jpg,,,left,,,A1AT1U9SZ2T4NN
788,28,,1.0,8.0,2898618444-142233.jpg,2238555262-330312.jpg,2.0,,,,A1AT1U9SZ2T4NN
789,29,,1.0,9.0,2898633421-291973.jpg,2512876023-52283.jpg,1.0,,,,A1AT1U9SZ2T4NN
790,30,,1.0,10.0,2874302418-65978.jpg,2238481198-19823.jpg,2.0,,,,A1AT1U9SZ2T4NN
791,31,,1.0,11.0,2452381505-199546.jpg,2994401319-148290.jpg,3.0,,,,A1AT1U9SZ2T4NN
792,32,,1.0,12.0,2452380832-348593.jpg,2238481813-19930.jpg,2.0,,,,A1AT1U9SZ2T4NN
793,33,,1.0,13.0,2981231403-71642.jpg,2579432519-130698.jpg,1.0,,,,A1AT1U9SZ2T4NN
794,34,,1.0,14.0,2460547467-349421.jpg,2898631394-142727.jpg,1.0,,,,A1AT1U9SZ2T4NN
795,35,,1.0,15.0,2874299429-139695.jpg,2883266388-67750.jpg,1.0,,,,A1AT1U9SZ2T4NN
796,36,,1.0,16.0,2901939379-143480.jpg,2898632385-217139.jpg,3.0,,,,A1AT1U9SZ2T4NN
797,37,,0.0,17.0,right.jpg,,,right,,,A1AT1U9SZ2T4NN
798,38,,1.0,18.0,2460547467-349422.jpg,2898618440-216545.jpg,1.0,,,,A1AT1U9SZ2T4NN
799,39,,1.0,19.0,2986451363-73598.jpg,2237857458-1324.jpg,1.0,,,,A1AT1U9SZ2T4NN
800,40,,1.0,20.0,2981241414-145842.jpg,2238516618-25604.jpg,1.0,,,,A1AT1U9SZ2T4NN
801,41,,1.0,21.0,2512875899-126682.jpg,2460547536-274179.jpg,1.0,,,,A1AT1U9SZ2T4NN
802,42,,1.0,22.0,2868474407-362883.jpg,2981246400-220363.jpg,2.0,,,,A1AT1U9SZ2T4NN
803,43,,1.0,23.0,2458347385-199723.jpg,2427874554-121863.jpg,2.0,,,,A1AT1U9SZ2T4NN
804,44,,1.0,24.0,2864910426-287204.jpg,2883268412-365899.jpg,2.0,,,,A1AT1U9SZ2T4NN
805,45,,1.0,25.0,2901952513-70703.jpg,2238481198-19821.jpg,3.0,,,,A1AT1U9SZ2T4NN
806,46,,0.0,26.0,right.jpg,,,right,,,A1AT1U9SZ2T4NN
807,47,,1.0,27.0,2883256307-365057.jpg,2864904453-63933.jpg,3.0,,,,A1AT1U9SZ2T4NN
808,48,,1.0,28.0,2898634397-367080.jpg,2237944827-301472.jpg,1.0,,,,A1AT1U9SZ2T4NN
809,49,,1.0,29.0,2883268471-290842.jpg,2883255450-215310.jpg,2.0,,,,A1AT1U9SZ2T4NN
810,50,,1.0,30.0,2446759803-49249.jpg,2901951392-368654.jpg,3.0,,,,A1AT1U9SZ2T4NN
811,51,,1.0,31.0,2964223381-294447.jpg,2901941438-69836.jpg,2.0,,,,A1AT1U9SZ2T4NN
812,52,,1.0,32.0,2238425482-313537.jpg,2898633480-217190.jpg,3.0,,,,A1AT1U9SZ2T4NN
813,53,,1.0,33.0,2460547508-51571.jpg,2901941438-69835.jpg,3.0,,,,A1AT1U9SZ2T4NN
814,54,,1.0,34.0,2449442529-124445.jpg,2452380171-273112.jpg,1.0,,,,A1AT1U9SZ2T4NN
815,55,,1.0,35.0,2883273443-68193.jpg,2460547508-51572.jpg,2.0,,,,A1AT1U9SZ2T4NN
816,56,,1.0,36.0,2238481198-19822.jpg,2862691449-137104.jpg,1.0,,,,A1AT1U9SZ2T4NN
817,57,,1.0,37.0,2238560245-182099.jpg,2874314526-289684.jpg,2.0,,,,A1AT1U9SZ2T4NN
818,58,,1.0,38.0,2238480677-317399.jpg,2238481630-168218.jpg,1.0,,,,A1AT1U9SZ2T4NN
819,59,,1.0,39.0,2964222378-71332.jpg,2981240424-145794.jpg,1.0,,,,A1AT1U9SZ2T4NN
820,60,,1.0,40.0,2986451363-73599.jpg,2860302315-210704.jpg,2.0,,,,A1AT1U9SZ2T4NN
821,61,,1.0,41.0,2874301407-363895.jpg,2901947323-70275.jpg,3.0,,,,A1AT1U9SZ2T4NN
822,62,,1.0,42.0,2575120738-55529.jpg,2238531493-28260.jpg,3.0,,,,A1AT1U9SZ2T4NN
823,63,,0.0,43.0,right.jpg,,,right,,,A1AT1U9SZ2T4NN
824,64,,1.0,44.0,2898624426-291546.jpg,2981236443-71859.jpg,2.0,,,,A1AT1U9SZ2T4NN
825,65,,1.0,45.0,2592380177-354626.jpg,2864901386-286797.jpg,2.0,,,,A1AT1U9SZ2T4NN
826,66,,1.0,46.0,2901947423-70311.jpg,2238573447-333826.jpg,2.0,,,,A1AT1U9SZ2T4NN
827,67,,0.0,47.0,right.jpg,,,right,,,A1AT1U9SZ2T4NN
828,68,,1.0,48.0,2901939379-143479.jpg,2446758985-197610.jpg,2.0,,,,A1AT1U9SZ2T4NN
829,69,,1.0,49.0,2964213381-294060.jpg,2964213381-294061.jpg,3.0,,,,A1AT1U9SZ2T4NN
830,70,,1.0,50.0,2592379964-131054.jpg,2592380272-354673.jpg,3.0,,,,A1AT1U9SZ2T4NN
831,71,,1.0,51.0,2592380177-354629.jpg,2512875587-350044.jpg,3.0,,,,A1AT1U9SZ2T4NN
832,72,,1.0,52.0,2874299429-139694.jpg,2986447306-296584.jpg,1.0,,,,A1AT1U9SZ2T4NN
833,73,,1.0,53.0,2898618390-216538.jpg,2237856148-989.jpg,1.0,,,,A1AT1U9SZ2T4NN
834,74,,1.0,54.0,2868475410-213219.jpg,2238480803-19739.jpg,2.0,,,,A1AT1U9SZ2T4NN
835,75,,1.0,55.0,2864907432-362042.jpg,2864901420-212147.jpg,1.0,,,,A1AT1U9SZ2T4NN
836,76,,1.0,56.0,2449442529-124446.jpg,2460547536-274178.jpg,3.0,,,,A1AT1U9SZ2T4NN
837,77,,1.0,57.0,2238580740-186218.jpg,2964220333-71258.jpg,3.0,,,,A1AT1U9SZ2T4NN
838,78,,1.0,58.0,2898635427-367120.jpg,2898621427-366486.jpg,3.0,,,,A1AT1U9SZ2T4NN
839,79,,1.0,59.0,2874307433-66280.jpg,2981246400-220365.jpg,2.0,,,,A1AT1U9SZ2T4NN
840,80,,1.0,60.0,2898617468-68274.jpg,2901943387-368037.jpg,2.0,,,,A1AT1U9SZ2T4NN
841,81,,1.0,61.0,2446758985-197609.jpg,2898624426-291544.jpg,3.0,,,,A1AT1U9SZ2T4NN
842,82,,1.0,62.0,2901941401-292798.jpg,2898631468-68931.jpg,3.0,,,,A1AT1U9SZ2T4NN
843,83,,1.0,63.0,2964216465-219242.jpg,2864900319-137787.jpg,2.0,,,,A1AT1U9SZ2T4NN
844,84,,1.0,64.0,2238428357-313623.jpg,2238499057-320266.jpg,1.0,,,,A1AT1U9SZ2T4NN
845,20,,1.0,0.0,2512875899-126682.jpg,2460547536-274179.jpg,1.0,,,,A3TF2L36Z80Y6N
846,21,,1.0,1.0,2964213381-294060.jpg,2458348012-349114.jpg,2.0,,,,A3TF2L36Z80Y6N
847,22,,1.0,2.0,2452381505-199546.jpg,2898632385-217138.jpg,2.0,,,,A3TF2L36Z80Y6N
848,23,,1.0,3.0,2874299429-139694.jpg,2883266367-365742.jpg,3.0,,,,A3TF2L36Z80Y6N
849,24,,1.0,4.0,2460547467-349422.jpg,2868487415-213924.jpg,2.0,,,,A3TF2L36Z80Y6N
850,25,,1.0,5.0,2986451363-73599.jpg,2898626385-216899.jpg,1.0,,,,A3TF2L36Z80Y6N
851,26,,1.0,6.0,2449442529-124445.jpg,2986408373-73286.jpg,2.0,,,,A3TF2L36Z80Y6N
852,27,,1.0,7.0,2874303365-214262.jpg,2238563377-332054.jpg,2.0,,,,A3TF2L36Z80Y6N
853,28,left,1.0,8.0,left.jpg,,,left,1.1579,,A3TF2L36Z80Y6N
854,29,,1.0,9.0,2238481198-19822.jpg,2901946436-293242.jpg,2.0,,,,A3TF2L36Z80Y6N
855,30,,1.0,10.0,2449442529-124446.jpg,2460547536-274181.jpg,2.0,,,,A3TF2L36Z80Y6N
856,31,,1.0,11.0,2874299429-139695.jpg,2901942443-69923.jpg,2.0,,,,A3TF2L36Z80Y6N
857,32,,1.0,12.0,2238580740-186218.jpg,2964220333-71258.jpg,3.0,,,,A3TF2L36Z80Y6N
858,33,,1.0,13.0,2238425482-313537.jpg,2238471391-240918.jpg,1.0,,,,A3TF2L36Z80Y6N
859,34,,1.0,14.0,2901947423-70311.jpg,2860312398-62572.jpg,1.0,,,,A3TF2L36Z80Y6N
860,35,,1.0,15.0,2898618444-142233.jpg,2898631359-142721.jpg,1.0,,,,A3TF2L36Z80Y6N
861,36,left,1.0,16.0,left.jpg,,,left,1.174,,A3TF2L36Z80Y6N
862,37,,1.0,17.0,2446759803-49249.jpg,2901951392-368654.jpg,3.0,,,,A3TF2L36Z80Y6N
863,38,,1.0,18.0,2964223381-294447.jpg,2427874231-269884.jpg,1.0,,,,A3TF2L36Z80Y6N
864,39,,1.0,19.0,2592379964-131054.jpg,2238479053-19457.jpg,2.0,,,,A3TF2L36Z80Y6N
865,40,,1.0,20.0,2592380177-354629.jpg,2579432534-130704.jpg,2.0,,,,A3TF2L36Z80Y6N
866,41,,1.0,21.0,2868474407-362883.jpg,2460547732-349518.jpg,1.0,,,,A3TF2L36Z80Y6N
867,42,,1.0,22.0,2864910426-287204.jpg,2864902304-137862.jpg,1.0,,,,A3TF2L36Z80Y6N
868,43,,1.0,23.0,2901939379-143480.jpg,2981229442-369621.jpg,2.0,,,,A3TF2L36Z80Y6N
869,44,,1.0,24.0,2883268471-290842.jpg,2883268471-290843.jpg,1.0,,,,A3TF2L36Z80Y6N
870,45,,1.0,25.0,2238560245-182099.jpg,2592380255-205553.jpg,1.0,,,,A3TF2L36Z80Y6N
871,46,,1.0,26.0,2458347385-199723.jpg,2238480434-93829.jpg,1.0,,,,A3TF2L36Z80Y6N
872,47,,1.0,27.0,2981241414-145842.jpg,2427873848-47312.jpg,3.0,,,,A3TF2L36Z80Y6N
873,48,,1.0,28.0,2874301407-363895.jpg,2901947323-70275.jpg,3.0,,,,A3TF2L36Z80Y6N
874,49,,1.0,29.0,2901939379-143479.jpg,2446758985-197610.jpg,2.0,,,,A3TF2L36Z80Y6N
875,50,,1.0,30.0,2964216465-219242.jpg,2898619327-366362.jpg,3.0,,,,A3TF2L36Z80Y6N
876,51,left,1.0,31.0,left.jpg,,,left,1.2106,,A3TF2L36Z80Y6N
877,52,,1.0,32.0,2460547508-51571.jpg,2452380166-273109.jpg,1.0,,,,A3TF2L36Z80Y6N
878,53,,1.0,33.0,2874307433-66280.jpg,2981231422-369714.jpg,3.0,,,,A3TF2L36Z80Y6N
879,54,,1.0,34.0,2238481928-19949.jpg,2981241419-145844.jpg,3.0,,,,A3TF2L36Z80Y6N
880,55,,1.0,35.0,2238572663-35822.jpg,2238584894-113161.jpg,1.0,,,,A3TF2L36Z80Y6N
881,56,,1.0,36.0,2964218374-144967.jpg,2981231446-294732.jpg,3.0,,,,A3TF2L36Z80Y6N
882,57,,1.0,37.0,2901941401-292798.jpg,2898631468-68931.jpg,3.0,,,,A3TF2L36Z80Y6N
883,58,,1.0,38.0,2452380832-348593.jpg,2238328478-11678.jpg,1.0,,,,A3TF2L36Z80Y6N
884,59,,1.0,39.0,2898635427-367120.jpg,2964221435-219434.jpg,1.0,,,,A3TF2L36Z80Y6N
885,60,,1.0,40.0,2964222378-71332.jpg,2981240427-370099.jpg,3.0,,,,A3TF2L36Z80Y6N
886,61,,1.0,41.0,2446758985-197609.jpg,2898624426-291544.jpg,3.0,,,,A3TF2L36Z80Y6N
887,62,right,1.0,42.0,right.jpg,,,right,1.1708,,A3TF2L36Z80Y6N
888,63,,1.0,43.0,2864907432-362042.jpg,2989726338-74002.jpg,3.0,,,,A3TF2L36Z80Y6N
889,64,,1.0,44.0,2981231403-71642.jpg,2579432519-130698.jpg,1.0,,,,A3TF2L36Z80Y6N
890,65,,1.0,45.0,2874302418-65979.jpg,2237857458-1325.jpg,1.0,,,,A3TF2L36Z80Y6N
891,66,,1.0,46.0,2898617468-68274.jpg,2901943387-368037.jpg,2.0,,,,A3TF2L36Z80Y6N
892,67,,1.0,47.0,2898618390-216538.jpg,2901939327-367670.jpg,2.0,,,,A3TF2L36Z80Y6N
893,68,,1.0,48.0,2901952513-70703.jpg,2238481198-19821.jpg,3.0,,,,A3TF2L36Z80Y6N
894,69,right,1.0,49.0,right.jpg,,,right,1.0399,,A3TF2L36Z80Y6N
895,70,,1.0,50.0,2460547467-349421.jpg,2452380166-273110.jpg,2.0,,,,A3TF2L36Z80Y6N
896,71,,1.0,51.0,2868475410-213219.jpg,2868474407-362885.jpg,3.0,,,,A3TF2L36Z80Y6N
897,72,,1.0,52.0,2238428357-313623.jpg,2238499057-320266.jpg,1.0,,,,A3TF2L36Z80Y6N
898,73,,1.0,53.0,2883268412-365898.jpg,2238436252-314037.jpg,3.0,,,,A3TF2L36Z80Y6N
899,74,,1.0,54.0,2592380177-354626.jpg,2238117096-228518.jpg,3.0,,,,A3TF2L36Z80Y6N
900,75,,1.0,55.0,2883273443-68193.jpg,2460547508-51572.jpg,2.0,,,,A3TF2L36Z80Y6N
901,76,,1.0,56.0,2986451363-73598.jpg,2984628361-295995.jpg,2.0,,,,A3TF2L36Z80Y6N
902,77,,1.0,57.0,2874302418-65978.jpg,2238481198-19823.jpg,2.0,,,,A3TF2L36Z80Y6N
903,78,,1.0,58.0,2575120738-55529.jpg,2238531493-28260.jpg,3.0,,,,A3TF2L36Z80Y6N
904,79,,1.0,59.0,2898624426-291546.jpg,2964218432-369263.jpg,1.0,,,,A3TF2L36Z80Y6N
905,80,,1.0,60.0,2898633421-291973.jpg,2575118671-277663.jpg,2.0,,,,A3TF2L36Z80Y6N
906,81,,1.0,61.0,2898635428-69104.jpg,2898625336-291572.jpg,3.0,,,,A3TF2L36Z80Y6N
907,82,,1.0,62.0,2883256307-365057.jpg,2864904453-63933.jpg,3.0,,,,A3TF2L36Z80Y6N
908,83,,1.0,63.0,2898634397-367080.jpg,2901934408-69289.jpg,2.0,,,,A3TF2L36Z80Y6N
909,84,,1.0,64.0,2238480677-317399.jpg,2238481630-168218.jpg,1.0,,,,A3TF2L36Z80Y6N
910,20,,1.0,0.0,2901941401-292798.jpg,2898618327-366317.jpg,1.0,,,,A28JWKICT1X73Z
911,21,,1.0,1.0,2964222378-71332.jpg,2981240427-370099.jpg,3.0,,,,A28JWKICT1X73Z
912,22,,1.0,2.0,2981241414-145842.jpg,2427873848-47312.jpg,3.0,,,,A28JWKICT1X73Z
913,23,,1.0,3.0,2901947423-70311.jpg,2860312398-62572.jpg,1.0,,,,A28JWKICT1X73Z
914,24,,1.0,4.0,2874299429-139694.jpg,2986447306-296584.jpg,1.0,,,,A28JWKICT1X73Z
915,25,,1.0,5.0,2981231403-71642.jpg,2427873763-47290.jpg,3.0,,,,A28JWKICT1X73Z
916,26,,1.0,6.0,2446759803-49249.jpg,2898618440-216547.jpg,2.0,,,,A28JWKICT1X73Z
917,27,,1.0,7.0,2874299429-139695.jpg,2446760917-347439.jpg,3.0,,,,A28JWKICT1X73Z
918,28,,1.0,8.0,2864910426-287204.jpg,2901939433-69672.jpg,3.0,,,,A28JWKICT1X73Z
919,29,left,1.0,9.0,left.jpg,,,left,1.1673,,A28JWKICT1X73Z
920,30,,1.0,10.0,2238560245-182099.jpg,2592380255-205553.jpg,1.0,,,,A28JWKICT1X73Z
921,31,,1.0,11.0,2449442529-124445.jpg,2986408373-73286.jpg,2.0,,,,A28JWKICT1X73Z
922,32,,1.0,12.0,2898624426-291546.jpg,2981236443-71859.jpg,2.0,,,,A28JWKICT1X73Z
923,33,,1.0,13.0,2964223381-294447.jpg,2427874231-269884.jpg,1.0,,,,A28JWKICT1X73Z
924,34,,1.0,14.0,2452381505-199546.jpg,2898632385-217138.jpg,2.0,,,,A28JWKICT1X73Z
925,35,,1.0,15.0,2986451363-73598.jpg,2237857458-1324.jpg,1.0,,,,A28JWKICT1X73Z
926,36,,1.0,16.0,2460547467-349421.jpg,2452380166-273110.jpg,2.0,,,,A28JWKICT1X73Z
927,37,,1.0,17.0,2864907432-362042.jpg,2989726338-74002.jpg,3.0,,,,A28JWKICT1X73Z
928,38,,1.0,18.0,2883268412-365898.jpg,2984626312-370849.jpg,1.0,,,,A28JWKICT1X73Z
929,39,,1.0,19.0,2868475410-213219.jpg,2868474407-362885.jpg,3.0,,,,A28JWKICT1X73Z
930,40,right,1.0,20.0,right.jpg,,,right,1.52,,A28JWKICT1X73Z
931,41,,1.0,21.0,2868474407-362883.jpg,2460547732-349518.jpg,1.0,,,,A28JWKICT1X73Z
932,42,,1.0,22.0,2964213381-294060.jpg,2964213381-294061.jpg,3.0,,,,A28JWKICT1X73Z
933,43,,1.0,23.0,2898618444-142233.jpg,2238555262-330312.jpg,2.0,,,,A28JWKICT1X73Z
934,44,,1.0,24.0,2901952513-70703.jpg,2868469411-287540.jpg,2.0,,,,A28JWKICT1X73Z
935,45,,1.0,25.0,2460547508-51571.jpg,2981232437-369759.jpg,2.0,,,,A28JWKICT1X73Z
936,46,right,1.0,26.0,right.jpg,,,right,1.6978,,A28JWKICT1X73Z
937,47,,1.0,27.0,2238572663-35822.jpg,2238584894-113161.jpg,1.0,,,,A28JWKICT1X73Z
938,48,,1.0,28.0,2898634397-367080.jpg,2237944827-301472.jpg,1.0,,,,A28JWKICT1X73Z
939,49,,1.0,29.0,2898635427-367120.jpg,2868479517-363220.jpg,2.0,,,,A28JWKICT1X73Z
940,50,,1.0,30.0,2883256307-365057.jpg,2611628310-206388.jpg,1.0,,,,A28JWKICT1X73Z
941,51,,1.0,31.0,2901939379-143480.jpg,2898632385-217139.jpg,3.0,,,,A28JWKICT1X73Z
942,52,,1.0,32.0,2446758985-197609.jpg,2898624426-291544.jpg,3.0,,,,A28JWKICT1X73Z
943,53,,1.0,33.0,2238425482-313537.jpg,2238436322-314047.jpg,2.0,,,,A28JWKICT1X73Z
944,54,,1.0,34.0,2898633421-291973.jpg,2512876023-52283.jpg,1.0,,,,A28JWKICT1X73Z
945,55,,1.0,35.0,2901939379-143479.jpg,2964216376-294181.jpg,3.0,,,,A28JWKICT1X73Z
946,56,,1.0,36.0,2874303365-214262.jpg,2238563377-332054.jpg,2.0,,,,A28JWKICT1X73Z
947,57,,1.0,37.0,2592379964-131054.jpg,2575963989-130576.jpg,1.0,,,,A28JWKICT1X73Z
948,58,,1.0,38.0,2986451363-73599.jpg,2860302315-210704.jpg,2.0,,,,A28JWKICT1X73Z
949,59,,1.0,39.0,2238580740-186218.jpg,2238521193-26285.jpg,2.0,,,,A28JWKICT1X73Z
950,60,,1.0,40.0,2898617468-68274.jpg,2964207374-144577.jpg,3.0,,,,A28JWKICT1X73Z
951,61,,1.0,41.0,2874302418-65978.jpg,2238481198-19823.jpg,2.0,,,,A28JWKICT1X73Z
952,62,right,1.0,42.0,right.jpg,,,right,1.5463,,A28JWKICT1X73Z
953,63,,1.0,43.0,2238480677-317399.jpg,2238480278-19661.jpg,3.0,,,,A28JWKICT1X73Z
954,64,,1.0,44.0,2575120738-55529.jpg,2864906345-212360.jpg,1.0,,,,A28JWKICT1X73Z
955,65,,1.0,45.0,2964218374-144967.jpg,2964218374-144968.jpg,1.0,,,,A28JWKICT1X73Z
956,66,,1.0,46.0,2964216465-219242.jpg,2238544191-252422.jpg,1.0,,,,A28JWKICT1X73Z
957,67,,1.0,47.0,2238428357-313623.jpg,2986408339-146952.jpg,3.0,,,,A28JWKICT1X73Z
958,68,,1.0,48.0,2592380177-354629.jpg,2898633421-291974.jpg,1.0,,,,A28JWKICT1X73Z
959,69,,1.0,49.0,2883268471-290842.jpg,2901947448-70314.jpg,3.0,,,,A28JWKICT1X73Z
960,70,,1.0,50.0,2512875899-126682.jpg,2592380177-354628.jpg,2.0,,,,A28JWKICT1X73Z
961,71,,1.0,51.0,2883273443-68193.jpg,2460547508-51572.jpg,2.0,,,,A28JWKICT1X73Z
962,72,,1.0,52.0,2874301407-363895.jpg,2901947323-70275.jpg,3.0,,,,A28JWKICT1X73Z
963,73,,1.0,53.0,2458347385-199723.jpg,2458347252-348911.jpg,3.0,,,,A28JWKICT1X73Z
964,74,right,1.0,54.0,right.jpg,,,right,1.0374,,A28JWKICT1X73Z
965,75,,1.0,55.0,2238481198-19822.jpg,2901946436-293242.jpg,2.0,,,,A28JWKICT1X73Z
966,76,,1.0,56.0,2452380832-348593.jpg,2238481813-19930.jpg,2.0,,,,A28JWKICT1X73Z
967,77,,1.0,57.0,2898618390-216538.jpg,2901939327-367670.jpg,2.0,,,,A28JWKICT1X73Z
968,78,,1.0,58.0,2874307433-66280.jpg,2981231422-369714.jpg,3.0,,,,A28JWKICT1X73Z
969,79,,1.0,59.0,2898635428-69104.jpg,2446759803-49250.jpg,1.0,,,,A28JWKICT1X73Z
970,80,,1.0,60.0,2238481928-19949.jpg,2981241419-145844.jpg,3.0,,,,A28JWKICT1X73Z
971,81,,1.0,61.0,2592380177-354626.jpg,2238576792-334659.jpg,1.0,,,,A28JWKICT1X73Z
972,82,,1.0,62.0,2460547467-349422.jpg,2898618440-216545.jpg,1.0,,,,A28JWKICT1X73Z
973,83,,1.0,63.0,2874302418-65979.jpg,2238578544-111698.jpg,3.0,,,,A28JWKICT1X73Z
974,84,,1.0,64.0,2449442529-124446.jpg,2460547536-274181.jpg,2.0,,,,A28JWKICT1X73Z
975,20,,1.0,0.0,2898635427-367120.jpg,2898621427-366486.jpg,3.0,,,,AJT7C07A187KA
976,21,,1.0,1.0,2874299429-139695.jpg,2446760917-347439.jpg,3.0,,,,AJT7C07A187KA
977,22,,1.0,2.0,2238572663-35822.jpg,2864903351-286874.jpg,3.0,,,,AJT7C07A187KA
978,23,,1.0,3.0,2986451363-73599.jpg,2860302315-210704.jpg,2.0,,,,AJT7C07A187KA
979,24,,1.0,4.0,2446759803-49249.jpg,2901951392-368654.jpg,3.0,,,,AJT7C07A187KA
980,25,,1.0,5.0,2898617468-68274.jpg,2901946439-144040.jpg,1.0,,,,AJT7C07A187KA
981,26,,1.0,6.0,2446758985-197609.jpg,2981240424-145795.jpg,1.0,,,,AJT7C07A187KA
982,27,,1.0,7.0,2458347385-199723.jpg,2427874554-121863.jpg,2.0,,,,AJT7C07A187KA
983,28,,1.0,8.0,2898624426-291546.jpg,2964218432-369263.jpg,1.0,,,,AJT7C07A187KA
984,29,,1.0,9.0,2898618390-216538.jpg,2575120609-129862.jpg,3.0,,,,AJT7C07A187KA
985,30,,1.0,10.0,2460547467-349421.jpg,2898631394-142727.jpg,1.0,,,,AJT7C07A187KA
986,31,,1.0,11.0,2460547467-349422.jpg,2864909447-362146.jpg,3.0,,,,AJT7C07A187KA
987,32,right,1.0,12.0,right.jpg,,,right,1.358,,AJT7C07A187KA
988,33,,1.0,13.0,2868475410-213219.jpg,2868474407-362885.jpg,3.0,,,,AJT7C07A187KA
989,34,,1.0,14.0,2901939379-143480.jpg,2981229442-369621.jpg,2.0,,,,AJT7C07A187KA
990,35,,1.0,15.0,2986451363-73598.jpg,2984628361-295995.jpg,2.0,,,,AJT7C07A187KA
991,36,,1.0,16.0,2874301407-363895.jpg,2901947323-70275.jpg,3.0,,,,AJT7C07A187KA
992,37,left,1.0,17.0,left.jpg,,,left,1.3103,,AJT7C07A187KA
993,38,,1.0,18.0,2901947423-70311.jpg,2238573447-333826.jpg,2.0,,,,AJT7C07A187KA
994,39,,1.0,19.0,2460547508-51571.jpg,2452380166-273109.jpg,1.0,,,,AJT7C07A187KA
995,40,,1.0,20.0,2883268412-365898.jpg,2984626312-370849.jpg,1.0,,,,AJT7C07A187KA
996,41,,1.0,21.0,2452381505-199546.jpg,2898632385-217138.jpg,2.0,,,,AJT7C07A187KA
997,42,,1.0,22.0,2238481928-19949.jpg,2883264367-365620.jpg,1.0,,,,AJT7C07A187KA
998,43,,1.0,23.0,2901941401-292798.jpg,2898618327-366317.jpg,1.0,,,,AJT7C07A187KA
999,44,,1.0,24.0,2868474407-362883.jpg,2460547732-349518.jpg,1.0,,,,AJT7C07A187KA
1000,45,,1.0,25.0,2449442529-124446.jpg,2446759803-49251.jpg,1.0,,,,AJT7C07A187KA
1001,46,,1.0,26.0,2898633421-291973.jpg,2512876023-52283.jpg,1.0,,,,AJT7C07A187KA
1002,47,,1.0,27.0,2592380177-354629.jpg,2512875587-350044.jpg,3.0,,,,AJT7C07A187KA
1003,48,,1.0,28.0,2592379964-131054.jpg,2592380272-354673.jpg,3.0,,,,AJT7C07A187KA
1004,49,,1.0,29.0,2864910426-287204.jpg,2901939433-69672.jpg,3.0,,,,AJT7C07A187KA
1005,50,,1.0,30.0,2238428357-313623.jpg,2238499057-320266.jpg,1.0,,,,AJT7C07A187KA
1006,51,,1.0,31.0,2964223381-294447.jpg,2901941438-69836.jpg,2.0,,,,AJT7C07A187KA
1007,52,,1.0,32.0,2452380832-348593.jpg,2238481813-19930.jpg,2.0,,,,AJT7C07A187KA
1008,53,right,1.0,33.0,right.jpg,,,right,2.1946,,AJT7C07A187KA
1009,54,,1.0,34.0,2964222378-71332.jpg,2901933382-367209.jpg,2.0,,,,AJT7C07A187KA
1010,55,,1.0,35.0,2901939379-143479.jpg,2446758985-197610.jpg,2.0,,,,AJT7C07A187KA
1011,56,,1.0,36.0,2575120738-55529.jpg,2238531493-28260.jpg,3.0,,,,AJT7C07A187KA
1012,57,,1.0,37.0,2874302418-65978.jpg,2964224310-219528.jpg,1.0,,,,AJT7C07A187KA
1013,58,,1.0,38.0,2874307433-66280.jpg,2981231422-369714.jpg,3.0,,,,AJT7C07A187KA
1014,59,,1.0,39.0,2964218374-144967.jpg,2981231446-294732.jpg,3.0,,,,AJT7C07A187KA
1015,60,,1.0,40.0,2874299429-139694.jpg,2981244403-72215.jpg,2.0,,,,AJT7C07A187KA
1016,61,,1.0,41.0,2964216465-219242.jpg,2898619327-366362.jpg,3.0,,,,AJT7C07A187KA
1017,62,,1.0,42.0,2238480677-317399.jpg,2238481630-168218.jpg,1.0,,,,AJT7C07A187KA
1018,63,,1.0,43.0,2964213381-294060.jpg,2964213381-294061.jpg,3.0,,,,AJT7C07A187KA
1019,64,,0.0,44.0,right.jpg,,,right,,,AJT7C07A187KA
1020,65,,1.0,45.0,2898618444-142233.jpg,2898631359-142721.jpg,1.0,,,,AJT7C07A187KA
1021,66,,1.0,46.0,2238481198-19822.jpg,2238480803-19737.jpg,3.0,,,,AJT7C07A187KA
1022,67,,1.0,47.0,2883268471-290842.jpg,2901947448-70314.jpg,3.0,,,,AJT7C07A187KA
1023,68,right,1.0,48.0,right.jpg,,,right,2.0736,,AJT7C07A187KA
1024,69,,1.0,49.0,2238425482-313537.jpg,2238436322-314047.jpg,2.0,,,,AJT7C07A187KA
1025,70,,1.0,50.0,2901952513-70703.jpg,2868469411-287540.jpg,2.0,,,,AJT7C07A187KA
1026,71,,1.0,51.0,2874303365-214262.jpg,2238563377-332054.jpg,2.0,,,,AJT7C07A187KA
1027,72,,1.0,52.0,2512875899-126682.jpg,2592380177-354628.jpg,2.0,,,,AJT7C07A187KA
1028,73,,1.0,53.0,2981231403-71642.jpg,2579432519-130698.jpg,1.0,,,,AJT7C07A187KA
1029,74,,1.0,54.0,2898634397-367080.jpg,2901934408-69289.jpg,2.0,,,,AJT7C07A187KA
1030,75,,1.0,55.0,2874302418-65979.jpg,2238578544-111698.jpg,3.0,,,,AJT7C07A187KA
1031,76,,1.0,56.0,2238560245-182099.jpg,2592380255-205553.jpg,1.0,,,,AJT7C07A187KA
1032,77,,1.0,57.0,2883273443-68193.jpg,2883254439-140940.jpg,1.0,,,,AJT7C07A187KA
1033,78,,1.0,58.0,2883256307-365057.jpg,2964210336-293945.jpg,2.0,,,,AJT7C07A187KA
1034,79,,1.0,59.0,2864907432-362042.jpg,2901947423-70310.jpg,2.0,,,,AJT7C07A187KA
1035,80,,1.0,60.0,2592380177-354626.jpg,2238576792-334659.jpg,1.0,,,,AJT7C07A187KA
1036,81,,1.0,61.0,2238580740-186218.jpg,2238521193-26285.jpg,2.0,,,,AJT7C07A187KA
1037,82,,1.0,62.0,2898635428-69104.jpg,2446759803-49250.jpg,1.0,,,,AJT7C07A187KA
1038,83,,1.0,63.0,2449442529-124445.jpg,2898632385-217137.jpg,3.0,,,,AJT7C07A187KA
1039,84,,1.0,64.0,2981241414-145842.jpg,2874301404-139813.jpg,2.0,,,,AJT7C07A187KA
1040,20,,1.0,0.0,2592380177-354626.jpg,2238576792-334659.jpg,1.0,,,,AWC8CYV72QOLL
1041,21,,1.0,1.0,2446758985-197609.jpg,2864909447-362144.jpg,2.0,,,,AWC8CYV72QOLL
1042,22,,1.0,2.0,2238572663-35822.jpg,2238584894-113161.jpg,1.0,,,,AWC8CYV72QOLL
1043,23,,1.0,3.0,2901939379-143479.jpg,2964216376-294181.jpg,3.0,,,,AWC8CYV72QOLL
1044,24,,1.0,4.0,2238580740-186218.jpg,2964220333-71258.jpg,3.0,,,,AWC8CYV72QOLL
1045,25,,1.0,5.0,2592380177-354629.jpg,2898633421-291974.jpg,1.0,,,,AWC8CYV72QOLL
1046,26,,1.0,6.0,2874301407-363895.jpg,2446761374-124213.jpg,1.0,,,,AWC8CYV72QOLL
1047,27,,1.0,7.0,2874302418-65979.jpg,2238480648-19714.jpg,2.0,,,,AWC8CYV72QOLL
1048,28,left,1.0,8.0,left.jpg,,,left,1.1168,,AWC8CYV72QOLL
1049,29,,1.0,9.0,2592379964-131054.jpg,2575963989-130576.jpg,1.0,,,,AWC8CYV72QOLL
1050,30,,1.0,10.0,2898617468-68274.jpg,2901943387-368037.jpg,2.0,,,,AWC8CYV72QOLL
1051,31,,1.0,11.0,2452380832-348593.jpg,2237858942-299356.jpg,3.0,,,,AWC8CYV72QOLL
1052,32,,1.0,12.0,2981231403-71642.jpg,2427873763-47290.jpg,3.0,,,,AWC8CYV72QOLL
1053,33,,1.0,13.0,2874299429-139695.jpg,2446760917-347439.jpg,3.0,,,,AWC8CYV72QOLL
1054,34,,1.0,14.0,2986451363-73599.jpg,2860302315-210704.jpg,2.0,,,,AWC8CYV72QOLL
1055,35,,1.0,15.0,2460547508-51571.jpg,2452380166-273109.jpg,1.0,,,,AWC8CYV72QOLL
1056,36,,1.0,16.0,2874302418-65978.jpg,2898633321-291943.jpg,3.0,,,,AWC8CYV72QOLL
1057,37,,1.0,17.0,2864907432-362042.jpg,2901947423-70310.jpg,2.0,,,,AWC8CYV72QOLL
1058,38,,1.0,18.0,2883268471-290842.jpg,2883268471-290843.jpg,1.0,,,,AWC8CYV72QOLL
1059,39,left,1.0,19.0,left.jpg,,,left,1.1091,,AWC8CYV72QOLL
1060,40,,1.0,20.0,2238560245-182099.jpg,2238480980-168129.jpg,3.0,,,,AWC8CYV72QOLL
1061,41,,1.0,21.0,2238428357-313623.jpg,2238499057-320266.jpg,1.0,,,,AWC8CYV72QOLL
1062,42,,1.0,22.0,2460547467-349421.jpg,2981235446-294901.jpg,3.0,,,,AWC8CYV72QOLL
1063,43,,1.0,23.0,2512875899-126682.jpg,2986447332-371497.jpg,3.0,,,,AWC8CYV72QOLL
1064,44,,1.0,24.0,2874303365-214262.jpg,2238563377-332054.jpg,2.0,,,,AWC8CYV72QOLL
1065,45,,1.0,25.0,2901939379-143480.jpg,2981229442-369621.jpg,2.0,,,,AWC8CYV72QOLL
1066,46,right,0.0,26.0,left.jpg,,,left,0.1957,,AWC8CYV72QOLL
1067,47,,1.0,27.0,2901947423-70311.jpg,2238577590-185467.jpg,3.0,,,,AWC8CYV72QOLL
1068,48,,1.0,28.0,2964223381-294447.jpg,2901941438-69836.jpg,2.0,,,,AWC8CYV72QOLL
1069,49,,1.0,29.0,2864910426-287204.jpg,2883268412-365899.jpg,2.0,,,,AWC8CYV72QOLL
1070,50,,1.0,30.0,2964216465-219242.jpg,2898619327-366362.jpg,3.0,,,,AWC8CYV72QOLL
1071,51,,1.0,31.0,2874299429-139694.jpg,2986447306-296584.jpg,1.0,,,,AWC8CYV72QOLL
1072,52,,1.0,32.0,2238425482-313537.jpg,2238436322-314047.jpg,2.0,,,,AWC8CYV72QOLL
1073,53,,1.0,33.0,2883268412-365898.jpg,2984626312-370849.jpg,1.0,,,,AWC8CYV72QOLL
1074,54,,1.0,34.0,2868474407-362883.jpg,2901948383-70363.jpg,3.0,,,,AWC8CYV72QOLL
1075,55,,1.0,35.0,2898618390-216538.jpg,2575120609-129862.jpg,3.0,,,,AWC8CYV72QOLL
1076,56,,1.0,36.0,2898635427-367120.jpg,2964221435-219434.jpg,1.0,,,,AWC8CYV72QOLL
1077,57,,1.0,37.0,2238481198-19822.jpg,2238480803-19737.jpg,3.0,,,,AWC8CYV72QOLL
1078,58,,1.0,38.0,2238481928-19949.jpg,2883264367-365620.jpg,1.0,,,,AWC8CYV72QOLL
1079,59,,1.0,39.0,2964213381-294060.jpg,2458348012-349114.jpg,2.0,,,,AWC8CYV72QOLL
1080,60,,1.0,40.0,2898634397-367080.jpg,2964217461-294238.jpg,3.0,,,,AWC8CYV72QOLL
1081,61,,1.0,41.0,2981241414-145842.jpg,2238516618-25604.jpg,1.0,,,,AWC8CYV72QOLL
1082,62,,1.0,42.0,2898624426-291546.jpg,2964218432-369263.jpg,1.0,,,,AWC8CYV72QOLL
1083,63,,1.0,43.0,2449442529-124446.jpg,2446759803-49251.jpg,1.0,,,,AWC8CYV72QOLL
1084,64,left,1.0,44.0,left.jpg,,,left,1.156,,AWC8CYV72QOLL
1085,65,,1.0,45.0,2446759803-49249.jpg,2898618440-216547.jpg,2.0,,,,AWC8CYV72QOLL
1086,66,,1.0,46.0,2898633421-291973.jpg,2575118671-277663.jpg,2.0,,,,AWC8CYV72QOLL
1087,67,,1.0,47.0,2883256307-365057.jpg,2864904453-63933.jpg,3.0,,,,AWC8CYV72QOLL
1088,68,left,0.0,48.0,right.jpg,,,right,0.1018,,AWC8CYV72QOLL
1089,69,,1.0,49.0,2883273443-68193.jpg,2898627427-366763.jpg,3.0,,,,AWC8CYV72QOLL
1090,70,,1.0,50.0,2575120738-55529.jpg,2864906345-212360.jpg,1.0,,,,AWC8CYV72QOLL
1091,71,,1.0,51.0,2964218374-144967.jpg,2446759306-271734.jpg,2.0,,,,AWC8CYV72QOLL
1092,72,,1.0,52.0,2901941401-292798.jpg,2898631468-68931.jpg,3.0,,,,AWC8CYV72QOLL
1093,73,,1.0,53.0,2898618444-142233.jpg,2898618444-142232.jpg,3.0,,,,AWC8CYV72QOLL
1094,74,,1.0,54.0,2898635428-69104.jpg,2898625336-291572.jpg,3.0,,,,AWC8CYV72QOLL
1095,75,,1.0,55.0,2460547467-349422.jpg,2868487415-213924.jpg,2.0,,,,AWC8CYV72QOLL
1096,76,,1.0,56.0,2452381505-199546.jpg,2901938432-367627.jpg,1.0,,,,AWC8CYV72QOLL
1097,77,,1.0,57.0,2449442529-124445.jpg,2452380171-273112.jpg,1.0,,,,AWC8CYV72QOLL
1098,78,,1.0,58.0,2901952513-70703.jpg,2864907361-287062.jpg,1.0,,,,AWC8CYV72QOLL
1099,79,,1.0,59.0,2458347385-199723.jpg,2427874554-121863.jpg,2.0,,,,AWC8CYV72QOLL
1100,80,,1.0,60.0,2238480677-317399.jpg,2238573546-258454.jpg,2.0,,,,AWC8CYV72QOLL
1101,81,,1.0,61.0,2964222378-71332.jpg,2901933382-367209.jpg,2.0,,,,AWC8CYV72QOLL
1102,82,,1.0,62.0,2986451363-73598.jpg,2984628361-295995.jpg,2.0,,,,AWC8CYV72QOLL
1103,83,,1.0,63.0,2868475410-213219.jpg,2901946465-218350.jpg,1.0,,,,AWC8CYV72QOLL
1104,84,,1.0,64.0,2874307433-66280.jpg,2981246400-220365.jpg,2.0,,,,AWC8CYV72QOLL
1105,20,,1.0,0.0,2864907432-362042.jpg,2989726338-74002.jpg,3.0,,,,A2OT9ZJC4MQBS8
1106,21,,1.0,1.0,2874302418-65979.jpg,2238578544-111698.jpg,3.0,,,,A2OT9ZJC4MQBS8
1107,22,,1.0,2.0,2238560245-182099.jpg,2874314526-289684.jpg,2.0,,,,A2OT9ZJC4MQBS8
1108,23,,1.0,3.0,2898633421-291973.jpg,2238550049-105691.jpg,3.0,,,,A2OT9ZJC4MQBS8
1109,24,,1.0,4.0,2883256307-365057.jpg,2864904453-63933.jpg,3.0,,,,A2OT9ZJC4MQBS8
1110,25,,1.0,5.0,2512875899-126682.jpg,2460547536-274179.jpg,1.0,,,,A2OT9ZJC4MQBS8
1111,26,,1.0,6.0,2452380832-348593.jpg,2238481813-19930.jpg,2.0,,,,A2OT9ZJC4MQBS8
1112,27,,1.0,7.0,2446758985-197609.jpg,2864909447-362144.jpg,2.0,,,,A2OT9ZJC4MQBS8
1113,28,,1.0,8.0,2238480677-317399.jpg,2238573546-258454.jpg,2.0,,,,A2OT9ZJC4MQBS8
1114,29,,1.0,9.0,2592380177-354626.jpg,2238576792-334659.jpg,1.0,,,,A2OT9ZJC4MQBS8
1115,30,,1.0,10.0,2452381505-199546.jpg,2901938432-367627.jpg,1.0,,,,A2OT9ZJC4MQBS8
1116,31,,1.0,11.0,2883268412-365898.jpg,2238436252-314037.jpg,3.0,,,,A2OT9ZJC4MQBS8
1117,32,,1.0,12.0,2898635427-367120.jpg,2868479517-363220.jpg,2.0,,,,A2OT9ZJC4MQBS8
1118,33,left,1.0,13.0,left.jpg,,,left,1.9783,,A2OT9ZJC4MQBS8
1119,34,,1.0,14.0,2460547467-349422.jpg,2864909447-362146.jpg,3.0,,,,A2OT9ZJC4MQBS8
1120,35,,1.0,15.0,2874299429-139695.jpg,2883266388-67750.jpg,1.0,,,,A2OT9ZJC4MQBS8
1121,36,,1.0,16.0,2446759803-49249.jpg,2446760601-272099.jpg,1.0,,,,A2OT9ZJC4MQBS8
1122,37,,1.0,17.0,2868474407-362883.jpg,2981246400-220363.jpg,2.0,,,,A2OT9ZJC4MQBS8
1123,38,,1.0,18.0,2864910426-287204.jpg,2883268412-365899.jpg,2.0,,,,A2OT9ZJC4MQBS8
1124,39,,1.0,19.0,2986451363-73598.jpg,2237857458-1324.jpg,1.0,,,,A2OT9ZJC4MQBS8
1125,40,,1.0,20.0,2874307433-66280.jpg,2984615358-72439.jpg,1.0,,,,A2OT9ZJC4MQBS8
1126,41,right,1.0,21.0,right.jpg,,,right,1.9774,,A2OT9ZJC4MQBS8
1127,42,,1.0,22.0,2964213381-294060.jpg,2981244394-145974.jpg,1.0,,,,A2OT9ZJC4MQBS8
1128,43,,1.0,23.0,2981231403-71642.jpg,2874305405-214397.jpg,2.0,,,,A2OT9ZJC4MQBS8
1129,44,,1.0,24.0,2898617468-68274.jpg,2901943387-368037.jpg,2.0,,,,A2OT9ZJC4MQBS8
1130,45,,1.0,25.0,2449442529-124446.jpg,2446759803-49251.jpg,1.0,,,,A2OT9ZJC4MQBS8
1131,46,,1.0,26.0,2575120738-55529.jpg,2575120738-55528.jpg,2.0,,,,A2OT9ZJC4MQBS8
1132,47,,1.0,27.0,2868475410-213219.jpg,2868474407-362885.jpg,3.0,,,,A2OT9ZJC4MQBS8
1133,48,,1.0,28.0,2964223381-294447.jpg,2898628438-68785.jpg,3.0,,,,A2OT9ZJC4MQBS8
1134,49,,1.0,29.0,2238572663-35822.jpg,2238571930-184143.jpg,2.0,,,,A2OT9ZJC4MQBS8
1135,50,right,1.0,30.0,right.jpg,,,right,1.1899,,A2OT9ZJC4MQBS8
1136,51,,1.0,31.0,2964222378-71332.jpg,2981240427-370099.jpg,3.0,,,,A2OT9ZJC4MQBS8
1137,52,,1.0,32.0,2964218374-144967.jpg,2964218374-144968.jpg,1.0,,,,A2OT9ZJC4MQBS8
1138,53,,1.0,33.0,2901952513-70703.jpg,2238481198-19821.jpg,3.0,,,,A2OT9ZJC4MQBS8
1139,54,,1.0,34.0,2460547508-51571.jpg,2981232437-369759.jpg,2.0,,,,A2OT9ZJC4MQBS8
1140,55,,1.0,35.0,2981241414-145842.jpg,2427873848-47312.jpg,3.0,,,,A2OT9ZJC4MQBS8
1141,56,,1.0,36.0,2898624426-291546.jpg,2981235446-294900.jpg,3.0,,,,A2OT9ZJC4MQBS8
1142,57,,1.0,37.0,2238580740-186218.jpg,2238550816-254000.jpg,1.0,,,,A2OT9ZJC4MQBS8
1143,58,,1.0,38.0,2238428357-313623.jpg,2238499057-320266.jpg,1.0,,,,A2OT9ZJC4MQBS8
1144,59,,1.0,39.0,2460547467-349421.jpg,2898631394-142727.jpg,1.0,,,,A2OT9ZJC4MQBS8
1145,60,,1.0,40.0,2592380177-354629.jpg,2579432534-130704.jpg,2.0,,,,A2OT9ZJC4MQBS8
1146,61,,1.0,41.0,2898634397-367080.jpg,2964217461-294238.jpg,3.0,,,,A2OT9ZJC4MQBS8
1147,62,,0.0,42.0,right.jpg,,,right,,,A2OT9ZJC4MQBS8
1148,63,,1.0,43.0,2883268471-290842.jpg,2883268471-290843.jpg,1.0,,,,A2OT9ZJC4MQBS8
1149,64,,1.0,44.0,2449442529-124445.jpg,2452380171-273112.jpg,1.0,,,,A2OT9ZJC4MQBS8
1150,65,,1.0,45.0,2874299429-139694.jpg,2981244403-72215.jpg,2.0,,,,A2OT9ZJC4MQBS8
1151,66,,1.0,46.0,2901939379-143479.jpg,2446758985-197610.jpg,2.0,,,,A2OT9ZJC4MQBS8
1152,67,,1.0,47.0,2874302418-65978.jpg,2964224310-219528.jpg,1.0,,,,A2OT9ZJC4MQBS8
1153,68,,0.0,48.0,right.jpg,,,right,,,A2OT9ZJC4MQBS8
1154,69,,1.0,49.0,2592379964-131054.jpg,2575963989-130576.jpg,1.0,,,,A2OT9ZJC4MQBS8
1155,70,,1.0,50.0,2964216465-219242.jpg,2898619327-366362.jpg,3.0,,,,A2OT9ZJC4MQBS8
1156,71,,1.0,51.0,2238481928-19949.jpg,2981241419-145844.jpg,3.0,,,,A2OT9ZJC4MQBS8
1157,72,,1.0,52.0,2901939379-143480.jpg,2981229442-369621.jpg,2.0,,,,A2OT9ZJC4MQBS8
1158,73,,1.0,53.0,2874303365-214262.jpg,2864911457-362260.jpg,3.0,,,,A2OT9ZJC4MQBS8
1159,74,,1.0,54.0,2901947423-70311.jpg,2238573447-333826.jpg,2.0,,,,A2OT9ZJC4MQBS8
1160,75,,1.0,55.0,2458347385-199723.jpg,2238480434-93829.jpg,1.0,,,,A2OT9ZJC4MQBS8
1161,76,,1.0,56.0,2883273443-68193.jpg,2460547508-51572.jpg,2.0,,,,A2OT9ZJC4MQBS8
1162,77,,1.0,57.0,2986451363-73599.jpg,2860302315-210704.jpg,2.0,,,,A2OT9ZJC4MQBS8
1163,78,,1.0,58.0,2874301407-363895.jpg,2901947323-70275.jpg,3.0,,,,A2OT9ZJC4MQBS8
1164,79,,1.0,59.0,2898635428-69104.jpg,2901943411-292945.jpg,2.0,,,,A2OT9ZJC4MQBS8
1165,80,,1.0,60.0,2898618444-142233.jpg,2898618444-142232.jpg,3.0,,,,A2OT9ZJC4MQBS8
1166,81,,1.0,61.0,2898618390-216538.jpg,2237856148-989.jpg,1.0,,,,A2OT9ZJC4MQBS8
1167,82,,1.0,62.0,2238481198-19822.jpg,2238480803-19737.jpg,3.0,,,,A2OT9ZJC4MQBS8
1168,83,,1.0,63.0,2901941401-292798.jpg,2898631468-68931.jpg,3.0,,,,A2OT9ZJC4MQBS8
1169,84,,1.0,64.0,2238425482-313537.jpg,2238471391-240918.jpg,1.0,,,,A2OT9ZJC4MQBS8
1170,20,,1.0,0.0,2446758985-197609.jpg,2898624426-291544.jpg,3.0,,,,A1OAZCVZRC00F0
1171,21,,1.0,1.0,2883268471-290842.jpg,2883268471-290843.jpg,1.0,,,,A1OAZCVZRC00F0
1172,22,,1.0,2.0,2901947423-70311.jpg,2238577590-185467.jpg,3.0,,,,A1OAZCVZRC00F0
1173,23,,1.0,3.0,2883268412-365898.jpg,2238436252-314037.jpg,3.0,,,,A1OAZCVZRC00F0
1174,24,,1.0,4.0,2874303365-214262.jpg,2274829821-263682.jpg,1.0,,,,A1OAZCVZRC00F0
1175,25,,1.0,5.0,2446759803-49249.jpg,2901951392-368654.jpg,3.0,,,,A1OAZCVZRC00F0
1176,26,,1.0,6.0,2874302418-65978.jpg,2238481198-19823.jpg,2.0,,,,A1OAZCVZRC00F0
1177,27,,1.0,7.0,2449442529-124445.jpg,2452380171-273112.jpg,1.0,,,,A1OAZCVZRC00F0
1178,28,,1.0,8.0,2592380177-354629.jpg,2579432534-130704.jpg,2.0,,,,A1OAZCVZRC00F0
1179,29,,1.0,9.0,2964216465-219242.jpg,2864900319-137787.jpg,2.0,,,,A1OAZCVZRC00F0
1180,30,,1.0,10.0,2981241414-145842.jpg,2427873848-47312.jpg,3.0,,,,A1OAZCVZRC00F0
1181,31,,1.0,11.0,2964218374-144967.jpg,2964218374-144968.jpg,1.0,,,,A1OAZCVZRC00F0
1182,32,,1.0,12.0,2238481928-19949.jpg,2864900357-361688.jpg,2.0,,,,A1OAZCVZRC00F0
1183,33,,1.0,13.0,2874299429-139694.jpg,2883266367-365742.jpg,3.0,,,,A1OAZCVZRC00F0
1184,34,,0.0,14.0,left.jpg,,,left,,,A1OAZCVZRC00F0
1185,35,,1.0,15.0,2238572663-35822.jpg,2864903351-286874.jpg,3.0,,,,A1OAZCVZRC00F0
1186,36,,1.0,16.0,2964223381-294447.jpg,2427874231-269884.jpg,1.0,,,,A1OAZCVZRC00F0
1187,37,right,1.0,17.0,right.jpg,,,right,2.4395,,A1OAZCVZRC00F0
1188,38,,1.0,18.0,2460547508-51571.jpg,2981232437-369759.jpg,2.0,,,,A1OAZCVZRC00F0
1189,39,,1.0,19.0,2512875899-126682.jpg,2460547536-274179.jpg,1.0,,,,A1OAZCVZRC00F0
1190,40,,1.0,20.0,2592379964-131054.jpg,2575963989-130576.jpg,1.0,,,,A1OAZCVZRC00F0
1191,41,,1.0,21.0,2883256307-365057.jpg,2611628310-206388.jpg,1.0,,,,A1OAZCVZRC00F0
1192,42,,1.0,22.0,2449442529-124446.jpg,2460547536-274181.jpg,2.0,,,,A1OAZCVZRC00F0
1193,43,,1.0,23.0,2986451363-73598.jpg,2237857458-1324.jpg,1.0,,,,A1OAZCVZRC00F0
1194,44,,1.0,24.0,2460547467-349422.jpg,2864909447-362146.jpg,3.0,,,,A1OAZCVZRC00F0
1195,45,,1.0,25.0,2874299429-139695.jpg,2883266388-67750.jpg,1.0,,,,A1OAZCVZRC00F0
1196,46,,1.0,26.0,2452381505-199546.jpg,2901938432-367627.jpg,1.0,,,,A1OAZCVZRC00F0
1197,47,right,1.0,27.0,right.jpg,,,right,2.0439,,A1OAZCVZRC00F0
1198,48,,1.0,28.0,2898624426-291546.jpg,2964218432-369263.jpg,1.0,,,,A1OAZCVZRC00F0
1199,49,,1.0,29.0,2901939379-143479.jpg,2964216376-294181.jpg,3.0,,,,A1OAZCVZRC00F0
1200,50,,1.0,30.0,2874302418-65979.jpg,2238578544-111698.jpg,3.0,,,,A1OAZCVZRC00F0
1201,51,,1.0,31.0,2238428357-313623.jpg,2986408339-146952.jpg,3.0,,,,A1OAZCVZRC00F0
1202,52,,1.0,32.0,2898635427-367120.jpg,2868479517-363220.jpg,2.0,,,,A1OAZCVZRC00F0
1203,53,,1.0,33.0,2458347385-199723.jpg,2427874554-121863.jpg,2.0,,,,A1OAZCVZRC00F0
1204,54,,1.0,34.0,2452380832-348593.jpg,2238481813-19930.jpg,2.0,,,,A1OAZCVZRC00F0
1205,55,,1.0,35.0,2238580740-186218.jpg,2238521193-26285.jpg,2.0,,,,A1OAZCVZRC00F0
1206,56,,1.0,36.0,2868475410-213219.jpg,2901946465-218350.jpg,1.0,,,,A1OAZCVZRC00F0
1207,57,,1.0,37.0,2592380177-354626.jpg,2238576792-334659.jpg,1.0,,,,A1OAZCVZRC00F0
1208,58,,1.0,38.0,2460547467-349421.jpg,2452380166-273110.jpg,2.0,,,,A1OAZCVZRC00F0
1209,59,,1.0,39.0,2898634397-367080.jpg,2964217461-294238.jpg,3.0,,,,A1OAZCVZRC00F0
1210,60,,1.0,40.0,2981231403-71642.jpg,2427873763-47290.jpg,3.0,,,,A1OAZCVZRC00F0
1211,61,,1.0,41.0,2986451363-73599.jpg,2898626385-216899.jpg,1.0,,,,A1OAZCVZRC00F0
1212,62,,1.0,42.0,2901939379-143480.jpg,2981229442-369621.jpg,2.0,,,,A1OAZCVZRC00F0
1213,63,left,1.0,43.0,left.jpg,,,left,1.6174,,A1OAZCVZRC00F0
1214,64,,1.0,44.0,2898618444-142233.jpg,2898631359-142721.jpg,1.0,,,,A1OAZCVZRC00F0
1215,65,,1.0,45.0,2864910426-287204.jpg,2864902304-137862.jpg,1.0,,,,A1OAZCVZRC00F0
1216,66,,1.0,46.0,2874307433-66280.jpg,2981246400-220365.jpg,2.0,,,,A1OAZCVZRC00F0
1217,67,,1.0,47.0,2238481198-19822.jpg,2901946436-293242.jpg,2.0,,,,A1OAZCVZRC00F0
1218,68,,1.0,48.0,2901941401-292798.jpg,2981243412-370222.jpg,2.0,,,,A1OAZCVZRC00F0
1219,69,,1.0,49.0,2864907432-362042.jpg,2901947423-70310.jpg,2.0,,,,A1OAZCVZRC00F0
1220,70,,1.0,50.0,2874301407-363895.jpg,2901947323-70275.jpg,3.0,,,,A1OAZCVZRC00F0
1221,71,,0.0,51.0,left.jpg,,,left,,,A1OAZCVZRC00F0
1222,72,,1.0,52.0,2964213381-294060.jpg,2964213381-294061.jpg,3.0,,,,A1OAZCVZRC00F0
1223,73,,1.0,53.0,2901952513-70703.jpg,2864907361-287062.jpg,1.0,,,,A1OAZCVZRC00F0
1224,74,,1.0,54.0,2964222378-71332.jpg,2901933382-367209.jpg,2.0,,,,A1OAZCVZRC00F0
1225,75,,1.0,55.0,2238480677-317399.jpg,2238481630-168218.jpg,1.0,,,,A1OAZCVZRC00F0
1226,76,,1.0,56.0,2898635428-69104.jpg,2901943411-292945.jpg,2.0,,,,A1OAZCVZRC00F0
1227,77,,1.0,57.0,2883273443-68193.jpg,2898627427-366763.jpg,3.0,,,,A1OAZCVZRC00F0
1228,78,,1.0,58.0,2868474407-362883.jpg,2981246400-220363.jpg,2.0,,,,A1OAZCVZRC00F0
1229,79,,1.0,59.0,2238425482-313537.jpg,2898633480-217190.jpg,3.0,,,,A1OAZCVZRC00F0
1230,80,,1.0,60.0,2898633421-291973.jpg,2575118671-277663.jpg,2.0,,,,A1OAZCVZRC00F0
1231,81,,1.0,61.0,2898618390-216538.jpg,2575120609-129862.jpg,3.0,,,,A1OAZCVZRC00F0
1232,82,,1.0,62.0,2238560245-182099.jpg,2238480980-168129.jpg,3.0,,,,A1OAZCVZRC00F0
1233,83,,1.0,63.0,2898617468-68274.jpg,2901946439-144040.jpg,1.0,,,,A1OAZCVZRC00F0
1234,84,,1.0,64.0,2575120738-55529.jpg,2238531493-28260.jpg,3.0,,,,A1OAZCVZRC00F0
1235,20,,1.0,0.0,2898635427-367120.jpg,2898621427-366486.jpg,3.0,,,,AHCIG4A3FXE6Q
1236,21,,1.0,1.0,2874299429-139695.jpg,2446760917-347439.jpg,3.0,,,,AHCIG4A3FXE6Q
1237,22,,1.0,2.0,2238572663-35822.jpg,2864903351-286874.jpg,3.0,,,,AHCIG4A3FXE6Q
1238,23,,1.0,3.0,2986451363-73599.jpg,2860302315-210704.jpg,2.0,,,,AHCIG4A3FXE6Q
1239,24,,1.0,4.0,2446759803-49249.jpg,2901951392-368654.jpg,3.0,,,,AHCIG4A3FXE6Q
1240,25,,1.0,5.0,2898617468-68274.jpg,2901946439-144040.jpg,1.0,,,,AHCIG4A3FXE6Q
1241,26,,1.0,6.0,2446758985-197609.jpg,2981240424-145795.jpg,1.0,,,,AHCIG4A3FXE6Q
1242,27,,1.0,7.0,2458347385-199723.jpg,2427874554-121863.jpg,2.0,,,,AHCIG4A3FXE6Q
1243,28,,1.0,8.0,2898624426-291546.jpg,2964218432-369263.jpg,1.0,,,,AHCIG4A3FXE6Q
1244,29,,1.0,9.0,2898618390-216538.jpg,2575120609-129862.jpg,3.0,,,,AHCIG4A3FXE6Q
1245,30,,1.0,10.0,2460547467-349421.jpg,2898631394-142727.jpg,1.0,,,,AHCIG4A3FXE6Q
