,layer,correct,test_test_response.keys,test_test_response.corr,test_test_response.rt,trials_2.thisRepN,trials_2.thisTrialN,trials_2.thisN,trials_2.thisIndex,trials_2.ran,image1,image2,subject
0,2.0,left,right,0.0,3.4318,0.0,0.0,0.0,0.0,1.0,2964218374-144967.jpg,2446759306-271734.jpg,A33U3GZXTFC4M4_2022-10-02_09h13.45.192.csv
1,3.0,left,right,0.0,3.7122,0.0,1.0,1.0,1.0,1.0,2981231403-71642.jpg,2427873763-47290.jpg,A33U3GZXTFC4M4_2022-10-02_09h13.45.192.csv
2,1.0,right,right,1.0,2.987,0.0,2.0,2.0,2.0,1.0,2864907361-287062.jpg,2901952513-70703.jpg,A33U3GZXTFC4M4_2022-10-02_09h13.45.192.csv
3,1.0,left,right,0.0,3.1091,0.0,3.0,3.0,3.0,1.0,2238560245-182099.jpg,2592380255-205553.jpg,A33U3GZXTFC4M4_2022-10-02_09h13.45.192.csv
4,3.0,right,right,1.0,2.5109,0.0,4.0,4.0,4.0,1.0,2512875587-350044.jpg,2592380177-354629.jpg,A33U3GZXTFC4M4_2022-10-02_09h13.45.192.csv
5,3.0,left,right,0.0,2.3825,0.0,5.0,5.0,5.0,1.0,2592380177-354626.jpg,2238117096-228518.jpg,A33U3GZXTFC4M4_2022-10-02_09h13.45.192.csv
6,1.0,left,right,0.0,3.5823,0.0,6.0,6.0,6.0,1.0,2458347385-199723.jpg,2238480434-93829.jpg,A33U3GZXTFC4M4_2022-10-02_09h13.45.192.csv
7,2.0,right,right,1.0,2.2634,0.0,7.0,7.0,7.0,1.0,2238479053-19457.jpg,2592379964-131054.jpg,A33U3GZXTFC4M4_2022-10-02_09h13.45.192.csv
8,3.0,right,right,1.0,3.0035,0.0,8.0,8.0,8.0,1.0,2901941438-69835.jpg,2460547508-51571.jpg,A33U3GZXTFC4M4_2022-10-02_09h13.45.192.csv
9,3.0,right,right,1.0,3.9505,0.0,9.0,9.0,9.0,1.0,2446760917-347439.jpg,2874299429-139695.jpg,A33U3GZXTFC4M4_2022-10-02_09h13.45.192.csv
10,2.0,right,right,1.0,2.9945,0.0,10.0,10.0,10.0,1.0,2981236443-71859.jpg,2898624426-291546.jpg,A33U3GZXTFC4M4_2022-10-02_09h13.45.192.csv
11,2.0,left,right,0.0,2.749,0.0,11.0,11.0,11.0,1.0,2874302418-65978.jpg,2238481198-19823.jpg,A33U3GZXTFC4M4_2022-10-02_09h13.45.192.csv
12,1.0,right,right,1.0,2.3894,0.0,12.0,12.0,12.0,1.0,2883268471-290843.jpg,2883268471-290842.jpg,A33U3GZXTFC4M4_2022-10-02_09h13.45.192.csv
13,2.0,left,right,0.0,2.632,0.0,13.0,13.0,13.0,1.0,2864910426-287204.jpg,2883268412-365899.jpg,A33U3GZXTFC4M4_2022-10-02_09h13.45.192.csv
14,1.0,right,right,1.0,2.754,0.0,14.0,14.0,14.0,1.0,2460547467-349423.jpg,2901939379-143479.jpg,A33U3GZXTFC4M4_2022-10-02_09h13.45.192.csv
15,2.0,left,right,0.0,2.505,0.0,15.0,15.0,15.0,1.0,2575120738-55529.jpg,2575120738-55528.jpg,A33U3GZXTFC4M4_2022-10-02_09h13.45.192.csv
16,2.0,left,right,0.0,2.3844,0.0,16.0,16.0,16.0,1.0,2238580740-186218.jpg,2238521193-26285.jpg,A33U3GZXTFC4M4_2022-10-02_09h13.45.192.csv
17,1.0,right,right,1.0,2.1541,0.0,17.0,17.0,17.0,1.0,2901938432-367627.jpg,2452381505-199546.jpg,A33U3GZXTFC4M4_2022-10-02_09h13.45.192.csv
18,3.0,right,right,1.0,2.518,0.0,18.0,18.0,18.0,1.0,2898619327-366362.jpg,2964216465-219242.jpg,A33U3GZXTFC4M4_2022-10-02_09h13.45.192.csv
19,2.0,left,right,0.0,2.8591,0.0,19.0,19.0,19.0,1.0,2898618390-216538.jpg,2901939327-367670.jpg,A33U3GZXTFC4M4_2022-10-02_09h13.45.192.csv
20,2.0,left,right,0.0,2.036,0.0,20.0,20.0,20.0,1.0,2238428357-313623.jpg,2984615361-295509.jpg,A33U3GZXTFC4M4_2022-10-02_09h13.45.192.csv
21,2.0,right,right,1.0,2.7528,0.0,21.0,21.0,21.0,1.0,2238555262-330312.jpg,2898618444-142233.jpg,A33U3GZXTFC4M4_2022-10-02_09h13.45.192.csv
22,2.0,left,right,0.0,2.5146,0.0,22.0,22.0,22.0,1.0,2901939379-143480.jpg,2981229442-369621.jpg,A33U3GZXTFC4M4_2022-10-02_09h13.45.192.csv
23,3.0,left,right,0.0,4.5288,0.0,23.0,23.0,23.0,1.0,2883256307-365057.jpg,2864904453-63933.jpg,A33U3GZXTFC4M4_2022-10-02_09h13.45.192.csv
24,2.0,right,right,1.0,3.5759,0.0,24.0,24.0,24.0,1.0,2981244403-72215.jpg,2874299429-139694.jpg,A33U3GZXTFC4M4_2022-10-02_09h13.45.192.csv
25,1.0,right,right,1.0,2.4004,0.0,25.0,25.0,25.0,1.0,2274829821-263682.jpg,2874303365-214262.jpg,A33U3GZXTFC4M4_2022-10-02_09h13.45.192.csv
26,3.0,left,right,0.0,3.1114,0.0,26.0,26.0,26.0,1.0,2512875899-126682.jpg,2986447332-371497.jpg,A33U3GZXTFC4M4_2022-10-02_09h13.45.192.csv
27,2.0,right,right,1.0,3.8227,0.0,27.0,27.0,27.0,1.0,2238573447-333826.jpg,2901947423-70311.jpg,A33U3GZXTFC4M4_2022-10-02_09h13.45.192.csv
28,2.0,left,right,0.0,3.4685,0.0,28.0,28.0,28.0,1.0,2898634397-367080.jpg,2901934408-69289.jpg,A33U3GZXTFC4M4_2022-10-02_09h13.45.192.csv
29,3.0,left,right,0.0,5.0176,0.0,29.0,29.0,29.0,1.0,2238572663-35822.jpg,2864903351-286874.jpg,A33U3GZXTFC4M4_2022-10-02_09h13.45.192.csv
30,3.0,left,right,0.0,2.8703,0.0,30.0,30.0,30.0,1.0,2238481928-19949.jpg,2981241419-145844.jpg,A33U3GZXTFC4M4_2022-10-02_09h13.45.192.csv
31,2.0,right,right,1.0,2.8672,0.0,31.0,31.0,31.0,1.0,2460547536-274181.jpg,2449442529-124446.jpg,A33U3GZXTFC4M4_2022-10-02_09h13.45.192.csv
32,1.0,left,right,0.0,3.4644,0.0,32.0,32.0,32.0,1.0,2901941401-292798.jpg,2898618327-366317.jpg,A33U3GZXTFC4M4_2022-10-02_09h13.45.192.csv
33,3.0,left,right,0.0,2.7581,0.0,33.0,33.0,33.0,1.0,2964213381-294060.jpg,2964213381-294061.jpg,A33U3GZXTFC4M4_2022-10-02_09h13.45.192.csv
34,2.0,left,right,0.0,2.4899,0.0,34.0,34.0,34.0,1.0,2238480677-317399.jpg,2238573546-258454.jpg,A33U3GZXTFC4M4_2022-10-02_09h13.45.192.csv
35,2.0,left,right,0.0,4.3082,0.0,35.0,35.0,35.0,1.0,2898617468-68274.jpg,2901943387-368037.jpg,A33U3GZXTFC4M4_2022-10-02_09h13.45.192.csv
36,1.0,left,right,0.0,2.7451,0.0,36.0,36.0,36.0,1.0,2238425482-313537.jpg,2238471391-240918.jpg,A33U3GZXTFC4M4_2022-10-02_09h13.45.192.csv
37,2.0,left,right,0.0,5.1,0.0,37.0,37.0,37.0,1.0,2868474407-362883.jpg,2981246400-220363.jpg,A33U3GZXTFC4M4_2022-10-02_09h13.45.192.csv
38,1.0,right,right,1.0,3.2463,0.0,38.0,38.0,38.0,1.0,2512876023-52283.jpg,2898633421-291973.jpg,A33U3GZXTFC4M4_2022-10-02_09h13.45.192.csv
39,3.0,right,right,1.0,5.7218,0.0,39.0,39.0,39.0,1.0,2898627427-366763.jpg,2883273443-68193.jpg,A33U3GZXTFC4M4_2022-10-02_09h13.45.192.csv
40,1.0,left,right,0.0,3.1006,0.0,40.0,40.0,40.0,1.0,2964223381-294447.jpg,2427874231-269884.jpg,A33U3GZXTFC4M4_2022-10-02_09h13.45.192.csv
41,3.0,right,right,1.0,2.7607,0.0,41.0,41.0,41.0,1.0,2237858942-299356.jpg,2452380832-348593.jpg,A33U3GZXTFC4M4_2022-10-02_09h13.45.192.csv
42,2.0,right,right,1.0,4.0532,0.0,42.0,42.0,42.0,1.0,2984628361-295995.jpg,2986451363-73598.jpg,A33U3GZXTFC4M4_2022-10-02_09h13.45.192.csv
43,3.0,left,right,0.0,3.3217,0.0,43.0,43.0,43.0,1.0,2986451363-73599.jpg,2238434559-90406.jpg,A33U3GZXTFC4M4_2022-10-02_09h13.45.192.csv
44,1.0,left,right,0.0,3.5575,0.0,44.0,44.0,44.0,1.0,2874307433-66280.jpg,2984615358-72439.jpg,A33U3GZXTFC4M4_2022-10-02_09h13.45.192.csv
45,1.0,right,right,1.0,2.7095,0.0,45.0,45.0,45.0,1.0,2237857458-1325.jpg,2874302418-65979.jpg,A33U3GZXTFC4M4_2022-10-02_09h13.45.192.csv
46,1.0,right,right,1.0,3.4761,0.0,46.0,46.0,46.0,1.0,2452380171-273112.jpg,2449442529-124445.jpg,A33U3GZXTFC4M4_2022-10-02_09h13.45.192.csv
47,2.0,right,right,1.0,3.9266,0.0,47.0,47.0,47.0,1.0,2901943411-292945.jpg,2898635428-69104.jpg,A33U3GZXTFC4M4_2022-10-02_09h13.45.192.csv
48,3.0,left,right,0.0,2.5052,0.0,48.0,48.0,48.0,1.0,2883268412-365898.jpg,2238436252-314037.jpg,A33U3GZXTFC4M4_2022-10-02_09h13.45.192.csv
49,1.0,right,right,1.0,2.501,0.0,49.0,49.0,49.0,1.0,2238516618-25604.jpg,2981241414-145842.jpg,A33U3GZXTFC4M4_2022-10-02_09h13.45.192.csv
50,1.0,left,right,0.0,3.2373,0.0,50.0,50.0,50.0,1.0,2446759803-49249.jpg,2446760601-272099.jpg,A33U3GZXTFC4M4_2022-10-02_09h13.45.192.csv
51,1.0,right,right,1.0,3.1187,0.0,51.0,51.0,51.0,1.0,2446761374-124213.jpg,2874301407-363895.jpg,A33U3GZXTFC4M4_2022-10-02_09h13.45.192.csv
52,3.0,right,right,1.0,3.3103,0.0,52.0,52.0,52.0,1.0,2864909447-362146.jpg,2460547467-349422.jpg,A33U3GZXTFC4M4_2022-10-02_09h13.45.192.csv
53,1.0,right,right,1.0,2.5102,0.0,53.0,53.0,53.0,1.0,2901946465-218350.jpg,2868475410-213219.jpg,A33U3GZXTFC4M4_2022-10-02_09h13.45.192.csv
54,3.0,left,right,0.0,2.7337,0.0,54.0,54.0,54.0,1.0,2864907432-362042.jpg,2989726338-74002.jpg,A33U3GZXTFC4M4_2022-10-02_09h13.45.192.csv
55,1.0,right,right,1.0,2.5105,0.0,55.0,55.0,55.0,1.0,2981240424-145795.jpg,2446758985-197609.jpg,A33U3GZXTFC4M4_2022-10-02_09h13.45.192.csv
56,3.0,right,right,1.0,3.839,0.0,56.0,56.0,56.0,1.0,2238480803-19737.jpg,2238481198-19822.jpg,A33U3GZXTFC4M4_2022-10-02_09h13.45.192.csv
57,1.0,left,right,0.0,3.2229,0.0,57.0,57.0,57.0,1.0,2460547467-349421.jpg,2898631394-142727.jpg,A33U3GZXTFC4M4_2022-10-02_09h13.45.192.csv
58,3.0,left,right,0.0,2.5564,0.0,58.0,58.0,58.0,1.0,2898635427-367120.jpg,2898621427-366486.jpg,A33U3GZXTFC4M4_2022-10-02_09h13.45.192.csv
59,3.0,left,right,0.0,2.9996,0.0,59.0,59.0,59.0,1.0,2964222378-71332.jpg,2981240427-370099.jpg,A33U3GZXTFC4M4_2022-10-02_09h13.45.192.csv
60,1.0,left,left,1.0,2.5864,0.0,0.0,0.0,0.0,1.0,2964223381-294447.jpg,2427874231-269884.jpg,A3POUEYN59J30P_2022-10-02_08h54.02.842.csv
61,3.0,left,left,1.0,0.2956,0.0,1.0,1.0,1.0,1.0,2238481198-19822.jpg,2238480803-19737.jpg,A3POUEYN59J30P_2022-10-02_08h54.02.842.csv
62,1.0,left,left,1.0,0.1978,0.0,2.0,2.0,2.0,1.0,2883256307-365057.jpg,2611628310-206388.jpg,A3POUEYN59J30P_2022-10-02_08h54.02.842.csv
63,1.0,right,left,0.0,0.2109,0.0,3.0,3.0,3.0,1.0,2452380171-273112.jpg,2449442529-124445.jpg,A3POUEYN59J30P_2022-10-02_08h54.02.842.csv
64,2.0,right,left,0.0,0.1029,0.0,4.0,4.0,4.0,1.0,2981244403-72215.jpg,2874299429-139694.jpg,A3POUEYN59J30P_2022-10-02_08h54.02.842.csv
65,2.0,right,left,0.0,0.2014,0.0,5.0,5.0,5.0,1.0,2868479517-363220.jpg,2898635427-367120.jpg,A3POUEYN59J30P_2022-10-02_08h54.02.842.csv
66,2.0,right,left,0.0,0.1052,0.0,6.0,6.0,6.0,1.0,2874314526-289684.jpg,2238560245-182099.jpg,A3POUEYN59J30P_2022-10-02_08h54.02.842.csv
67,1.0,right,left,0.0,0.1034,0.0,7.0,7.0,7.0,1.0,2901946465-218350.jpg,2868475410-213219.jpg,A3POUEYN59J30P_2022-10-02_08h54.02.842.csv
68,1.0,right,left,0.0,0.204,0.0,8.0,8.0,8.0,1.0,2512876023-52283.jpg,2898633421-291973.jpg,A3POUEYN59J30P_2022-10-02_08h54.02.842.csv
69,3.0,left,left,1.0,0.1057,0.0,9.0,9.0,9.0,1.0,2874307433-66280.jpg,2981231422-369714.jpg,A3POUEYN59J30P_2022-10-02_08h54.02.842.csv
70,1.0,left,left,1.0,0.1981,0.0,10.0,10.0,10.0,1.0,2901939379-143480.jpg,2901942428-69919.jpg,A3POUEYN59J30P_2022-10-02_08h54.02.842.csv
71,1.0,left,left,1.0,0.1104,0.0,11.0,11.0,11.0,1.0,2874302418-65978.jpg,2964224310-219528.jpg,A3POUEYN59J30P_2022-10-02_08h54.02.842.csv
72,3.0,left,left,1.0,0.1113,0.0,12.0,12.0,12.0,1.0,2901941401-292798.jpg,2898631468-68931.jpg,A3POUEYN59J30P_2022-10-02_08h54.02.842.csv
73,1.0,right,left,0.0,0.2051,0.0,13.0,13.0,13.0,1.0,2575963989-130576.jpg,2592379964-131054.jpg,A3POUEYN59J30P_2022-10-02_08h54.02.842.csv
74,3.0,right,left,0.0,0.1039,0.0,14.0,14.0,14.0,1.0,2901947448-70314.jpg,2883268471-290842.jpg,A3POUEYN59J30P_2022-10-02_08h54.02.842.csv
75,1.0,right,left,0.0,0.1983,0.0,15.0,15.0,15.0,1.0,2446759803-49251.jpg,2449442529-124446.jpg,A3POUEYN59J30P_2022-10-02_08h54.02.842.csv
76,2.0,left,right,0.0,0.6895,0.0,16.0,16.0,16.0,1.0,2898618444-142233.jpg,2238555262-330312.jpg,A3POUEYN59J30P_2022-10-02_08h54.02.842.csv
77,2.0,left,right,0.0,0.1979,0.0,17.0,17.0,17.0,1.0,2592380177-354629.jpg,2579432534-130704.jpg,A3POUEYN59J30P_2022-10-02_08h54.02.842.csv
78,3.0,right,right,1.0,0.1059,0.0,18.0,18.0,18.0,1.0,2898619327-366362.jpg,2964216465-219242.jpg,A3POUEYN59J30P_2022-10-02_08h54.02.842.csv
79,2.0,left,right,0.0,0.1042,0.0,19.0,19.0,19.0,1.0,2981241414-145842.jpg,2874301404-139813.jpg,A3POUEYN59J30P_2022-10-02_08h54.02.842.csv
80,3.0,right,right,1.0,0.1031,0.0,20.0,20.0,20.0,1.0,2864909447-362146.jpg,2460547467-349422.jpg,A3POUEYN59J30P_2022-10-02_08h54.02.842.csv
81,2.0,right,left,0.0,0.8761,0.0,21.0,21.0,21.0,1.0,2883268412-365899.jpg,2864910426-287204.jpg,A3POUEYN59J30P_2022-10-02_08h54.02.842.csv
82,3.0,left,right,0.0,0.295,0.0,22.0,22.0,22.0,1.0,2874302418-65979.jpg,2238578544-111698.jpg,A3POUEYN59J30P_2022-10-02_08h54.02.842.csv
83,2.0,left,left,1.0,0.3033,0.0,23.0,23.0,23.0,1.0,2964213381-294060.jpg,2458348012-349114.jpg,A3POUEYN59J30P_2022-10-02_08h54.02.842.csv
84,1.0,left,right,0.0,0.205,0.0,24.0,24.0,24.0,1.0,2898635428-69104.jpg,2446759803-49250.jpg,A3POUEYN59J30P_2022-10-02_08h54.02.842.csv
85,1.0,right,right,1.0,0.2022,0.0,25.0,25.0,25.0,1.0,2964218374-144968.jpg,2964218374-144967.jpg,A3POUEYN59J30P_2022-10-02_08h54.02.842.csv
86,1.0,left,left,1.0,0.0082,0.0,26.0,26.0,26.0,1.0,2452380832-348593.jpg,2238328478-11678.jpg,A3POUEYN59J30P_2022-10-02_08h54.02.842.csv
87,2.0,right,right,1.0,0.1046,0.0,27.0,27.0,27.0,1.0,2446758985-197610.jpg,2901939379-143479.jpg,A3POUEYN59J30P_2022-10-02_08h54.02.842.csv
88,3.0,left,right,0.0,0.2062,0.0,28.0,28.0,28.0,1.0,2901947423-70311.jpg,2238577590-185467.jpg,A3POUEYN59J30P_2022-10-02_08h54.02.842.csv
89,2.0,right,left,0.0,0.1026,0.0,29.0,29.0,29.0,1.0,2898632385-217138.jpg,2452381505-199546.jpg,A3POUEYN59J30P_2022-10-02_08h54.02.842.csv
90,3.0,left,right,0.0,0.1959,0.0,30.0,30.0,30.0,1.0,2883273443-68193.jpg,2898627427-366763.jpg,A3POUEYN59J30P_2022-10-02_08h54.02.842.csv
91,3.0,right,right,1.0,0.2938,0.0,31.0,31.0,31.0,1.0,2964220333-71258.jpg,2238580740-186218.jpg,A3POUEYN59J30P_2022-10-02_08h54.02.842.csv
92,1.0,left,left,1.0,0.102,0.0,32.0,32.0,32.0,1.0,2460547467-349421.jpg,2898631394-142727.jpg,A3POUEYN59J30P_2022-10-02_08h54.02.842.csv
93,3.0,left,right,0.0,0.103,0.0,33.0,33.0,33.0,1.0,2874301407-363895.jpg,2901947323-70275.jpg,A3POUEYN59J30P_2022-10-02_08h54.02.842.csv
94,2.0,left,right,0.0,0.201,0.0,34.0,34.0,34.0,1.0,2512875899-126682.jpg,2592380177-354628.jpg,A3POUEYN59J30P_2022-10-02_08h54.02.842.csv
95,1.0,right,left,0.0,0.1058,0.0,35.0,35.0,35.0,1.0,2898626385-216899.jpg,2986451363-73599.jpg,A3POUEYN59J30P_2022-10-02_08h54.02.842.csv
96,2.0,left,right,0.0,0.109,0.0,36.0,36.0,36.0,1.0,2446758985-197609.jpg,2864909447-362144.jpg,A3POUEYN59J30P_2022-10-02_08h54.02.842.csv
97,2.0,right,left,0.0,0.293,0.0,37.0,37.0,37.0,1.0,2981236443-71859.jpg,2898624426-291546.jpg,A3POUEYN59J30P_2022-10-02_08h54.02.842.csv
98,3.0,left,right,0.0,0.3075,0.0,38.0,38.0,38.0,1.0,2238572663-35822.jpg,2864903351-286874.jpg,A3POUEYN59J30P_2022-10-02_08h54.02.842.csv
99,2.0,left,left,1.0,0.1113,0.0,39.0,39.0,39.0,1.0,2238480677-317399.jpg,2238573546-258454.jpg,A3POUEYN59J30P_2022-10-02_08h54.02.842.csv
100,2.0,left,right,0.0,0.1957,0.0,40.0,40.0,40.0,1.0,2898618390-216538.jpg,2901939327-367670.jpg,A3POUEYN59J30P_2022-10-02_08h54.02.842.csv
101,3.0,right,left,0.0,0.5804,0.0,41.0,41.0,41.0,1.0,2964207374-144577.jpg,2898617468-68274.jpg,A3POUEYN59J30P_2022-10-02_08h54.02.842.csv
102,1.0,right,right,1.0,0.2016,0.0,42.0,42.0,42.0,1.0,2981240424-145794.jpg,2964222378-71332.jpg,A3POUEYN59J30P_2022-10-02_08h54.02.842.csv
103,1.0,left,left,1.0,0.2042,0.0,43.0,43.0,43.0,1.0,2874303365-214262.jpg,2274829821-263682.jpg,A3POUEYN59J30P_2022-10-02_08h54.02.842.csv
104,2.0,right,right,1.0,0.2014,0.0,44.0,44.0,44.0,1.0,2901942443-69923.jpg,2874299429-139695.jpg,A3POUEYN59J30P_2022-10-02_08h54.02.842.csv
105,2.0,left,left,1.0,0.3003,0.0,45.0,45.0,45.0,1.0,2868474407-362883.jpg,2981246400-220363.jpg,A3POUEYN59J30P_2022-10-02_08h54.02.842.csv
106,3.0,right,right,1.0,0.2024,0.0,46.0,46.0,46.0,1.0,2901942443-69925.jpg,2986451363-73598.jpg,A3POUEYN59J30P_2022-10-02_08h54.02.842.csv
107,3.0,right,left,0.0,0.2992,0.0,47.0,47.0,47.0,1.0,2238531493-28260.jpg,2575120738-55529.jpg,A3POUEYN59J30P_2022-10-02_08h54.02.842.csv
108,2.0,right,right,1.0,0.1993,0.0,48.0,48.0,48.0,1.0,2864901386-286797.jpg,2592380177-354626.jpg,A3POUEYN59J30P_2022-10-02_08h54.02.842.csv
109,3.0,right,right,1.0,0.2843,0.0,49.0,49.0,49.0,1.0,2238481198-19821.jpg,2901952513-70703.jpg,A3POUEYN59J30P_2022-10-02_08h54.02.842.csv
110,3.0,left,left,1.0,0.0078,0.0,50.0,50.0,50.0,1.0,2864907432-362042.jpg,2989726338-74002.jpg,A3POUEYN59J30P_2022-10-02_08h54.02.842.csv
111,1.0,right,right,1.0,0.2085,0.0,51.0,51.0,51.0,1.0,2237944827-301472.jpg,2898634397-367080.jpg,A3POUEYN59J30P_2022-10-02_08h54.02.842.csv
112,1.0,left,left,1.0,0.2053,0.0,52.0,52.0,52.0,1.0,2458347385-199723.jpg,2238480434-93829.jpg,A3POUEYN59J30P_2022-10-02_08h54.02.842.csv
113,3.0,right,right,1.0,0.1049,0.0,53.0,53.0,53.0,1.0,2901941438-69835.jpg,2460547508-51571.jpg,A3POUEYN59J30P_2022-10-02_08h54.02.842.csv
114,1.0,right,left,0.0,0.3017,0.0,54.0,54.0,54.0,1.0,2238471391-240918.jpg,2238425482-313537.jpg,A3POUEYN59J30P_2022-10-02_08h54.02.842.csv
115,3.0,right,right,1.0,0.1047,0.0,55.0,55.0,55.0,1.0,2901951392-368654.jpg,2446759803-49249.jpg,A3POUEYN59J30P_2022-10-02_08h54.02.842.csv
116,2.0,left,left,1.0,0.3013,0.0,56.0,56.0,56.0,1.0,2238428357-313623.jpg,2984615361-295509.jpg,A3POUEYN59J30P_2022-10-02_08h54.02.842.csv
117,2.0,right,right,1.0,0.2014,0.0,57.0,57.0,57.0,1.0,2864900357-361688.jpg,2238481928-19949.jpg,A3POUEYN59J30P_2022-10-02_08h54.02.842.csv
118,1.0,left,left,1.0,0.2028,0.0,58.0,58.0,58.0,1.0,2981231403-71642.jpg,2579432519-130698.jpg,A3POUEYN59J30P_2022-10-02_08h54.02.842.csv
119,3.0,right,right,1.0,0.2058,0.0,59.0,59.0,59.0,1.0,2238436252-314037.jpg,2883268412-365898.jpg,A3POUEYN59J30P_2022-10-02_08h54.02.842.csv
120,2.0,left,left,1.0,3.019,0.0,0.0,0.0,0.0,1.0,2874302418-65978.jpg,2238481198-19823.jpg,A208F2PSMBFG0R_2022-10-02_14h41.24.716.csv
121,1.0,left,right,0.0,2.289,0.0,1.0,1.0,1.0,1.0,2238481928-19949.jpg,2883264367-365620.jpg,A208F2PSMBFG0R_2022-10-02_14h41.24.716.csv
122,1.0,right,right,1.0,2.015,0.0,2.0,2.0,2.0,1.0,2883266388-67750.jpg,2874299429-139695.jpg,A208F2PSMBFG0R_2022-10-02_14h41.24.716.csv
123,1.0,left,left,1.0,1.927,0.0,3.0,3.0,3.0,1.0,2458347385-199723.jpg,2238480434-93829.jpg,A208F2PSMBFG0R_2022-10-02_14h41.24.716.csv
124,2.0,left,left,1.0,1.981,0.0,4.0,4.0,4.0,1.0,2238481198-19822.jpg,2901946436-293242.jpg,A208F2PSMBFG0R_2022-10-02_14h41.24.716.csv
125,3.0,right,right,1.0,1.732,0.0,5.0,5.0,5.0,1.0,2901948383-70363.jpg,2868474407-362883.jpg,A208F2PSMBFG0R_2022-10-02_14h41.24.716.csv
126,2.0,left,left,1.0,1.651,0.0,6.0,6.0,6.0,1.0,2901939379-143480.jpg,2981229442-369621.jpg,A208F2PSMBFG0R_2022-10-02_14h41.24.716.csv
127,2.0,left,left,1.0,2.251,0.0,7.0,7.0,7.0,1.0,2981231403-71642.jpg,2874305405-214397.jpg,A208F2PSMBFG0R_2022-10-02_14h41.24.716.csv
128,1.0,left,left,1.0,1.693,0.0,8.0,8.0,8.0,1.0,2964216465-219242.jpg,2238544191-252422.jpg,A208F2PSMBFG0R_2022-10-02_14h41.24.716.csv
129,3.0,left,left,1.0,1.414,0.0,9.0,9.0,9.0,1.0,2901939379-143479.jpg,2964216376-294181.jpg,A208F2PSMBFG0R_2022-10-02_14h41.24.716.csv
130,1.0,left,left,1.0,1.683,0.0,10.0,10.0,10.0,1.0,2898618390-216538.jpg,2237856148-989.jpg,A208F2PSMBFG0R_2022-10-02_14h41.24.716.csv
131,1.0,right,left,0.0,1.817,0.0,11.0,11.0,11.0,1.0,2864902304-137862.jpg,2864910426-287204.jpg,A208F2PSMBFG0R_2022-10-02_14h41.24.716.csv
132,2.0,right,right,1.0,3.269,0.0,12.0,12.0,12.0,1.0,2238480803-19739.jpg,2868475410-213219.jpg,A208F2PSMBFG0R_2022-10-02_14h41.24.716.csv
133,1.0,left,left,1.0,1.432,0.0,13.0,13.0,13.0,1.0,2964213381-294060.jpg,2981244394-145974.jpg,A208F2PSMBFG0R_2022-10-02_14h41.24.716.csv
134,3.0,right,right,1.0,1.579,0.0,14.0,14.0,14.0,1.0,2898625336-291572.jpg,2898635428-69104.jpg,A208F2PSMBFG0R_2022-10-02_14h41.24.716.csv
135,3.0,right,right,1.0,1.757,0.0,15.0,15.0,15.0,1.0,2898633480-217190.jpg,2238425482-313537.jpg,A208F2PSMBFG0R_2022-10-02_14h41.24.716.csv
136,1.0,left,left,1.0,2.231,0.0,16.0,16.0,16.0,1.0,2874299429-139694.jpg,2986447306-296584.jpg,A208F2PSMBFG0R_2022-10-02_14h41.24.716.csv
137,1.0,right,right,1.0,1.584,0.0,17.0,17.0,17.0,1.0,2898618440-216545.jpg,2460547467-349422.jpg,A208F2PSMBFG0R_2022-10-02_14h41.24.716.csv
138,1.0,right,right,1.0,1.386,0.0,18.0,18.0,18.0,1.0,2898631394-142727.jpg,2460547467-349421.jpg,A208F2PSMBFG0R_2022-10-02_14h41.24.716.csv
139,3.0,left,left,1.0,1.391,0.0,19.0,19.0,19.0,1.0,2898618444-142233.jpg,2898618444-142232.jpg,A208F2PSMBFG0R_2022-10-02_14h41.24.716.csv
140,1.0,left,left,1.0,1.363,0.0,20.0,20.0,20.0,1.0,2446758985-197609.jpg,2981240424-145795.jpg,A208F2PSMBFG0R_2022-10-02_14h41.24.716.csv
141,2.0,right,left,0.0,1.394,0.0,21.0,21.0,21.0,1.0,2898618440-216547.jpg,2446759803-49249.jpg,A208F2PSMBFG0R_2022-10-02_14h41.24.716.csv
142,1.0,left,left,1.0,1.442,0.0,22.0,22.0,22.0,1.0,2901952513-70703.jpg,2864907361-287062.jpg,A208F2PSMBFG0R_2022-10-02_14h41.24.716.csv
143,3.0,left,left,1.0,4.367,0.0,23.0,23.0,23.0,1.0,2901947423-70311.jpg,2238577590-185467.jpg,A208F2PSMBFG0R_2022-10-02_14h41.24.716.csv
144,1.0,right,left,0.0,1.751,0.0,24.0,24.0,24.0,1.0,2237944827-301472.jpg,2898634397-367080.jpg,A208F2PSMBFG0R_2022-10-02_14h41.24.716.csv
145,1.0,right,right,1.0,1.979,0.0,25.0,25.0,25.0,1.0,2898633421-291974.jpg,2592380177-354629.jpg,A208F2PSMBFG0R_2022-10-02_14h41.24.716.csv
146,3.0,left,left,1.0,1.508,0.0,26.0,26.0,26.0,1.0,2874303365-214262.jpg,2864911457-362260.jpg,A208F2PSMBFG0R_2022-10-02_14h41.24.716.csv
147,3.0,left,left,1.0,1.875,0.0,27.0,27.0,27.0,1.0,2874302418-65979.jpg,2238578544-111698.jpg,A208F2PSMBFG0R_2022-10-02_14h41.24.716.csv
148,3.0,right,right,1.0,2.089,0.0,28.0,28.0,28.0,1.0,2981231446-294732.jpg,2964218374-144967.jpg,A208F2PSMBFG0R_2022-10-02_14h41.24.716.csv
149,2.0,right,left,0.0,1.543,0.0,29.0,29.0,29.0,1.0,2460547508-51572.jpg,2883273443-68193.jpg,A208F2PSMBFG0R_2022-10-02_14h41.24.716.csv
150,2.0,left,left,1.0,1.939,0.0,30.0,30.0,30.0,1.0,2460547508-51571.jpg,2981232437-369759.jpg,A208F2PSMBFG0R_2022-10-02_14h41.24.716.csv
151,3.0,right,right,1.0,1.663,0.0,31.0,31.0,31.0,1.0,2981231422-369714.jpg,2874307433-66280.jpg,A208F2PSMBFG0R_2022-10-02_14h41.24.716.csv
152,2.0,right,right,1.0,1.931,0.0,32.0,32.0,32.0,1.0,2874314526-289684.jpg,2238560245-182099.jpg,A208F2PSMBFG0R_2022-10-02_14h41.24.716.csv
153,2.0,right,right,1.0,1.456,0.0,33.0,33.0,33.0,1.0,2981243412-370222.jpg,2901941401-292798.jpg,A208F2PSMBFG0R_2022-10-02_14h41.24.716.csv
154,3.0,left,left,1.0,2.019,0.0,34.0,34.0,34.0,1.0,2452380832-348593.jpg,2237858942-299356.jpg,A208F2PSMBFG0R_2022-10-02_14h41.24.716.csv
155,2.0,left,left,1.0,1.525,0.0,35.0,35.0,35.0,1.0,2898624426-291546.jpg,2981236443-71859.jpg,A208F2PSMBFG0R_2022-10-02_14h41.24.716.csv
156,2.0,left,right,0.0,1.848,0.0,36.0,36.0,36.0,1.0,2238572663-35822.jpg,2238571930-184143.jpg,A208F2PSMBFG0R_2022-10-02_14h41.24.716.csv
157,3.0,right,right,1.0,1.709,0.0,37.0,37.0,37.0,1.0,2898621427-366486.jpg,2898635427-367120.jpg,A208F2PSMBFG0R_2022-10-02_14h41.24.716.csv
158,3.0,left,right,0.0,1.802,0.0,38.0,38.0,38.0,1.0,2986451363-73599.jpg,2238434559-90406.jpg,A208F2PSMBFG0R_2022-10-02_14h41.24.716.csv
159,3.0,right,right,1.0,2.729,0.0,39.0,39.0,39.0,1.0,2986447332-371497.jpg,2512875899-126682.jpg,A208F2PSMBFG0R_2022-10-02_14h41.24.716.csv
160,2.0,right,right,1.0,1.336,0.0,40.0,40.0,40.0,1.0,2238479053-19457.jpg,2592379964-131054.jpg,A208F2PSMBFG0R_2022-10-02_14h41.24.716.csv
161,3.0,right,right,1.0,1.597,0.0,41.0,41.0,41.0,1.0,2238480278-19661.jpg,2238480677-317399.jpg,A208F2PSMBFG0R_2022-10-02_14h41.24.716.csv
162,2.0,left,left,1.0,1.885,0.0,42.0,42.0,42.0,1.0,2449442529-124445.jpg,2986408373-73286.jpg,A208F2PSMBFG0R_2022-10-02_14h41.24.716.csv
163,3.0,left,right,0.0,1.528,0.0,43.0,43.0,43.0,1.0,2452381505-199546.jpg,2994401319-148290.jpg,A208F2PSMBFG0R_2022-10-02_14h41.24.716.csv
164,2.0,left,left,1.0,1.479,0.0,44.0,44.0,44.0,1.0,2592380177-354626.jpg,2864901386-286797.jpg,A208F2PSMBFG0R_2022-10-02_14h41.24.716.csv
165,1.0,left,left,1.0,2.098,0.0,45.0,45.0,45.0,1.0,2964223381-294447.jpg,2427874231-269884.jpg,A208F2PSMBFG0R_2022-10-02_14h41.24.716.csv
166,1.0,right,right,1.0,1.243,0.0,46.0,46.0,46.0,1.0,2901946439-144040.jpg,2898617468-68274.jpg,A208F2PSMBFG0R_2022-10-02_14h41.24.716.csv
167,2.0,left,right,0.0,1.549,0.0,47.0,47.0,47.0,1.0,2883268471-290842.jpg,2883255450-215310.jpg,A208F2PSMBFG0R_2022-10-02_14h41.24.716.csv
168,3.0,left,left,1.0,1.628,0.0,48.0,48.0,48.0,1.0,2964222378-71332.jpg,2981240427-370099.jpg,A208F2PSMBFG0R_2022-10-02_14h41.24.716.csv
169,2.0,left,left,1.0,1.694,0.0,49.0,49.0,49.0,1.0,2898633421-291973.jpg,2575118671-277663.jpg,A208F2PSMBFG0R_2022-10-02_14h41.24.716.csv
170,3.0,left,left,1.0,1.537,0.0,50.0,50.0,50.0,1.0,2864907432-362042.jpg,2989726338-74002.jpg,A208F2PSMBFG0R_2022-10-02_14h41.24.716.csv
171,1.0,left,left,1.0,1.413,0.0,51.0,51.0,51.0,1.0,2981241414-145842.jpg,2238516618-25604.jpg,A208F2PSMBFG0R_2022-10-02_14h41.24.716.csv
172,2.0,left,left,1.0,1.428,0.0,52.0,52.0,52.0,1.0,2883268412-365898.jpg,2984615361-295510.jpg,A208F2PSMBFG0R_2022-10-02_14h41.24.716.csv
173,2.0,right,left,0.0,1.957,0.0,53.0,53.0,53.0,1.0,2964210336-293945.jpg,2883256307-365057.jpg,A208F2PSMBFG0R_2022-10-02_14h41.24.716.csv
174,3.0,left,left,1.0,1.578,0.0,54.0,54.0,54.0,1.0,2449442529-124446.jpg,2460547536-274178.jpg,A208F2PSMBFG0R_2022-10-02_14h41.24.716.csv
175,2.0,right,left,0.0,1.659,0.0,55.0,55.0,55.0,1.0,2575120738-55528.jpg,2575120738-55529.jpg,A208F2PSMBFG0R_2022-10-02_14h41.24.716.csv
176,3.0,right,right,1.0,1.677,0.0,56.0,56.0,56.0,1.0,2986408339-146952.jpg,2238428357-313623.jpg,A208F2PSMBFG0R_2022-10-02_14h41.24.716.csv
177,1.0,right,right,1.0,1.833,0.0,57.0,57.0,57.0,1.0,2237857458-1324.jpg,2986451363-73598.jpg,A208F2PSMBFG0R_2022-10-02_14h41.24.716.csv
178,1.0,left,left,1.0,1.585,0.0,58.0,58.0,58.0,1.0,2874301407-363895.jpg,2446761374-124213.jpg,A208F2PSMBFG0R_2022-10-02_14h41.24.716.csv
179,1.0,right,right,1.0,1.851,0.0,59.0,59.0,59.0,1.0,2238550816-254000.jpg,2238580740-186218.jpg,A208F2PSMBFG0R_2022-10-02_14h41.24.716.csv
180,1.0,left,left,1.0,7.685,0.0,0.0,0.0,0.0,1.0,2238425482-313537.jpg,2238471391-240918.jpg,A1AD2BDQYTTJIL_2022-10-02_11h09.56.388.csv
181,1.0,right,right,1.0,2.855,0.0,1.0,1.0,1.0,1.0,2864901420-212147.jpg,2864907432-362042.jpg,A1AD2BDQYTTJIL_2022-10-02_11h09.56.388.csv
182,1.0,right,right,1.0,5.9,0.0,2.0,2.0,2.0,1.0,2446759803-49251.jpg,2449442529-124446.jpg,A1AD2BDQYTTJIL_2022-10-02_11h09.56.388.csv
183,2.0,right,right,1.0,2.544,0.0,3.0,3.0,3.0,1.0,2238573447-333826.jpg,2901947423-70311.jpg,A1AD2BDQYTTJIL_2022-10-02_11h09.56.388.csv
184,2.0,right,right,1.0,2.933,0.0,4.0,4.0,4.0,1.0,2592380177-354628.jpg,2512875899-126682.jpg,A1AD2BDQYTTJIL_2022-10-02_11h09.56.388.csv
185,1.0,right,right,1.0,2.886,0.0,5.0,5.0,5.0,1.0,2986447306-296584.jpg,2874299429-139694.jpg,A1AD2BDQYTTJIL_2022-10-02_11h09.56.388.csv
186,2.0,left,right,0.0,6.005,0.0,6.0,6.0,6.0,1.0,2868474407-362883.jpg,2981246400-220363.jpg,A1AD2BDQYTTJIL_2022-10-02_11h09.56.388.csv
187,2.0,right,right,1.0,7.87,0.0,7.0,7.0,7.0,1.0,2446759306-271734.jpg,2964218374-144967.jpg,A1AD2BDQYTTJIL_2022-10-02_11h09.56.388.csv
188,2.0,right,left,0.0,7.339,0.0,8.0,8.0,8.0,1.0,2874305405-214397.jpg,2981231403-71642.jpg,A1AD2BDQYTTJIL_2022-10-02_11h09.56.388.csv
189,3.0,right,left,0.0,2.933,0.0,9.0,9.0,9.0,1.0,2898632385-217139.jpg,2901939379-143480.jpg,A1AD2BDQYTTJIL_2022-10-02_11h09.56.388.csv
190,3.0,right,right,1.0,3.519,0.0,10.0,10.0,10.0,1.0,2238578544-111698.jpg,2874302418-65979.jpg,A1AD2BDQYTTJIL_2022-10-02_11h09.56.388.csv
191,3.0,left,left,1.0,7.705,0.0,11.0,11.0,11.0,1.0,2901941401-292798.jpg,2898631468-68931.jpg,A1AD2BDQYTTJIL_2022-10-02_11h09.56.388.csv
192,3.0,right,left,0.0,2.54,0.0,12.0,12.0,12.0,1.0,2238531493-28260.jpg,2575120738-55529.jpg,A1AD2BDQYTTJIL_2022-10-02_11h09.56.388.csv
193,3.0,right,right,1.0,4.34,0.0,13.0,13.0,13.0,1.0,2981240427-370099.jpg,2964222378-71332.jpg,A1AD2BDQYTTJIL_2022-10-02_11h09.56.388.csv
194,1.0,left,right,0.0,2.118,0.0,14.0,14.0,14.0,1.0,2964213381-294060.jpg,2981244394-145974.jpg,A1AD2BDQYTTJIL_2022-10-02_11h09.56.388.csv
195,1.0,left,right,0.0,1.465,0.0,15.0,15.0,15.0,1.0,2986451363-73599.jpg,2898626385-216899.jpg,A1AD2BDQYTTJIL_2022-10-02_11h09.56.388.csv
196,2.0,left,left,1.0,2.477,0.0,16.0,16.0,16.0,1.0,2460547508-51571.jpg,2981232437-369759.jpg,A1AD2BDQYTTJIL_2022-10-02_11h09.56.388.csv
197,3.0,left,right,0.0,1.83,0.0,17.0,17.0,17.0,1.0,2898635428-69104.jpg,2898625336-291572.jpg,A1AD2BDQYTTJIL_2022-10-02_11h09.56.388.csv
198,2.0,right,left,0.0,2.233,0.0,18.0,18.0,18.0,1.0,2864909447-362144.jpg,2446758985-197609.jpg,A1AD2BDQYTTJIL_2022-10-02_11h09.56.388.csv
199,1.0,left,left,1.0,1.373,0.0,19.0,19.0,19.0,1.0,2868475410-213219.jpg,2901946465-218350.jpg,A1AD2BDQYTTJIL_2022-10-02_11h09.56.388.csv
200,1.0,left,left,1.0,1.75,0.0,20.0,20.0,20.0,1.0,2452380832-348593.jpg,2238328478-11678.jpg,A1AD2BDQYTTJIL_2022-10-02_11h09.56.388.csv
201,3.0,right,left,0.0,1.968,0.0,21.0,21.0,21.0,1.0,2864903351-286874.jpg,2238572663-35822.jpg,A1AD2BDQYTTJIL_2022-10-02_11h09.56.388.csv
202,1.0,right,left,0.0,2.145,0.0,22.0,22.0,22.0,1.0,2864902304-137862.jpg,2864910426-287204.jpg,A1AD2BDQYTTJIL_2022-10-02_11h09.56.388.csv
203,3.0,right,left,0.0,2.265,0.0,23.0,23.0,23.0,1.0,2964216376-294181.jpg,2901939379-143479.jpg,A1AD2BDQYTTJIL_2022-10-02_11h09.56.388.csv
204,1.0,left,left,1.0,5.459,0.0,24.0,24.0,24.0,1.0,2458347385-199723.jpg,2238480434-93829.jpg,A1AD2BDQYTTJIL_2022-10-02_11h09.56.388.csv
205,1.0,right,right,1.0,1.586,0.0,25.0,25.0,25.0,1.0,2446761374-124213.jpg,2874301407-363895.jpg,A1AD2BDQYTTJIL_2022-10-02_11h09.56.388.csv
206,1.0,right,left,0.0,1.888,0.0,26.0,26.0,26.0,1.0,2862691449-137104.jpg,2238481198-19822.jpg,A1AD2BDQYTTJIL_2022-10-02_11h09.56.388.csv
207,3.0,left,left,1.0,2.091,0.0,27.0,27.0,27.0,1.0,2874303365-214262.jpg,2864911457-362260.jpg,A1AD2BDQYTTJIL_2022-10-02_11h09.56.388.csv
208,2.0,right,right,1.0,2.245,0.0,28.0,28.0,28.0,1.0,2238479053-19457.jpg,2592379964-131054.jpg,A1AD2BDQYTTJIL_2022-10-02_11h09.56.388.csv
209,2.0,right,left,0.0,5.697,0.0,29.0,29.0,29.0,1.0,2981246400-220365.jpg,2874307433-66280.jpg,A1AD2BDQYTTJIL_2022-10-02_11h09.56.388.csv
210,3.0,left,right,0.0,1.737,0.0,30.0,30.0,30.0,1.0,2592380177-354626.jpg,2238117096-228518.jpg,A1AD2BDQYTTJIL_2022-10-02_11h09.56.388.csv
211,3.0,right,right,1.0,1.571,0.0,31.0,31.0,31.0,1.0,2901947448-70314.jpg,2883268471-290842.jpg,A1AD2BDQYTTJIL_2022-10-02_11h09.56.388.csv
212,1.0,left,right,0.0,1.8,0.0,32.0,32.0,32.0,1.0,2898618444-142233.jpg,2898631359-142721.jpg,A1AD2BDQYTTJIL_2022-10-02_11h09.56.388.csv
213,2.0,left,right,0.0,1.974,0.0,33.0,33.0,33.0,1.0,2874299429-139695.jpg,2901942443-69923.jpg,A1AD2BDQYTTJIL_2022-10-02_11h09.56.388.csv
214,3.0,right,right,1.0,1.617,0.0,34.0,34.0,34.0,1.0,2994401319-148290.jpg,2452381505-199546.jpg,A1AD2BDQYTTJIL_2022-10-02_11h09.56.388.csv
215,2.0,right,right,1.0,4.441,0.0,35.0,35.0,35.0,1.0,2874301404-139813.jpg,2981241414-145842.jpg,A1AD2BDQYTTJIL_2022-10-02_11h09.56.388.csv
216,1.0,left,right,0.0,1.469,0.0,36.0,36.0,36.0,1.0,2898617468-68274.jpg,2901946439-144040.jpg,A1AD2BDQYTTJIL_2022-10-02_11h09.56.388.csv
217,3.0,right,left,0.0,1.464,0.0,37.0,37.0,37.0,1.0,2901951392-368654.jpg,2446759803-49249.jpg,A1AD2BDQYTTJIL_2022-10-02_11h09.56.388.csv
218,1.0,right,right,1.0,4.827,0.0,38.0,38.0,38.0,1.0,2238550816-254000.jpg,2238580740-186218.jpg,A1AD2BDQYTTJIL_2022-10-02_11h09.56.388.csv
219,3.0,left,left,1.0,1.864,0.0,39.0,39.0,39.0,1.0,2460547467-349421.jpg,2981235446-294901.jpg,A1AD2BDQYTTJIL_2022-10-02_11h09.56.388.csv
220,3.0,right,right,1.0,1.801,0.0,40.0,40.0,40.0,1.0,2238480980-168129.jpg,2238560245-182099.jpg,A1AD2BDQYTTJIL_2022-10-02_11h09.56.388.csv
221,3.0,left,right,0.0,1.339,0.0,41.0,41.0,41.0,1.0,2460547467-349422.jpg,2864909447-362146.jpg,A1AD2BDQYTTJIL_2022-10-02_11h09.56.388.csv
222,1.0,right,left,0.0,1.262,0.0,42.0,42.0,42.0,1.0,2512876023-52283.jpg,2898633421-291973.jpg,A1AD2BDQYTTJIL_2022-10-02_11h09.56.388.csv
223,2.0,right,left,0.0,2.22,0.0,43.0,43.0,43.0,1.0,2984615361-295509.jpg,2238428357-313623.jpg,A1AD2BDQYTTJIL_2022-10-02_11h09.56.388.csv
224,2.0,left,right,0.0,6.619,0.0,44.0,44.0,44.0,1.0,2238480677-317399.jpg,2238573546-258454.jpg,A1AD2BDQYTTJIL_2022-10-02_11h09.56.388.csv
225,2.0,left,right,0.0,16.449,0.0,45.0,45.0,45.0,1.0,2986451363-73598.jpg,2984628361-295995.jpg,A1AD2BDQYTTJIL_2022-10-02_11h09.56.388.csv
226,3.0,left,right,0.0,3.853,0.0,46.0,46.0,46.0,1.0,2964223381-294447.jpg,2898628438-68785.jpg,A1AD2BDQYTTJIL_2022-10-02_11h09.56.388.csv
227,3.0,left,right,0.0,1.613,0.0,47.0,47.0,47.0,1.0,2883273443-68193.jpg,2898627427-366763.jpg,A1AD2BDQYTTJIL_2022-10-02_11h09.56.388.csv
228,1.0,left,right,0.0,3.295,0.0,48.0,48.0,48.0,1.0,2874302418-65978.jpg,2964224310-219528.jpg,A1AD2BDQYTTJIL_2022-10-02_11h09.56.388.csv
229,1.0,left,right,0.0,2.995,0.0,49.0,49.0,49.0,1.0,2883268412-365898.jpg,2984626312-370849.jpg,A1AD2BDQYTTJIL_2022-10-02_11h09.56.388.csv
230,2.0,right,left,0.0,1.577,0.0,50.0,50.0,50.0,1.0,2901934408-69289.jpg,2898634397-367080.jpg,A1AD2BDQYTTJIL_2022-10-02_11h09.56.388.csv
231,1.0,right,left,0.0,1.845,0.0,51.0,51.0,51.0,1.0,2964221435-219434.jpg,2898635427-367120.jpg,A1AD2BDQYTTJIL_2022-10-02_11h09.56.388.csv
232,1.0,right,left,0.0,1.617,0.0,52.0,52.0,52.0,1.0,2611628310-206388.jpg,2883256307-365057.jpg,A1AD2BDQYTTJIL_2022-10-02_11h09.56.388.csv
233,2.0,left,left,1.0,4.622,0.0,53.0,53.0,53.0,1.0,2238481928-19949.jpg,2864900357-361688.jpg,A1AD2BDQYTTJIL_2022-10-02_11h09.56.388.csv
234,2.0,right,right,1.0,1.46,0.0,54.0,54.0,54.0,1.0,2986408373-73286.jpg,2449442529-124445.jpg,A1AD2BDQYTTJIL_2022-10-02_11h09.56.388.csv
235,3.0,left,right,0.0,2.177,0.0,55.0,55.0,55.0,1.0,2898618390-216538.jpg,2575120609-129862.jpg,A1AD2BDQYTTJIL_2022-10-02_11h09.56.388.csv
236,2.0,left,left,1.0,4.309,0.0,56.0,56.0,56.0,1.0,2592380177-354629.jpg,2579432534-130704.jpg,A1AD2BDQYTTJIL_2022-10-02_11h09.56.388.csv
237,2.0,right,left,0.0,4.61,0.0,57.0,57.0,57.0,1.0,2868469411-287540.jpg,2901952513-70703.jpg,A1AD2BDQYTTJIL_2022-10-02_11h09.56.388.csv
238,3.0,left,left,1.0,4.905,0.0,58.0,58.0,58.0,1.0,2898624426-291546.jpg,2981235446-294900.jpg,A1AD2BDQYTTJIL_2022-10-02_11h09.56.388.csv
239,2.0,right,right,1.0,1.469,0.0,59.0,59.0,59.0,1.0,2864900319-137787.jpg,2964216465-219242.jpg,A1AD2BDQYTTJIL_2022-10-02_11h09.56.388.csv
240,3.0,left,left,1.0,2.182,0.0,0.0,0.0,0.0,1.0,2512875899-126682.jpg,2986447332-371497.jpg,A22PT6K5XNIFLA_2022-10-02_09h30.03.536.csv
241,2.0,left,left,1.0,1.42,0.0,1.0,1.0,1.0,1.0,2964213381-294060.jpg,2458348012-349114.jpg,A22PT6K5XNIFLA_2022-10-02_09h30.03.536.csv
242,1.0,right,right,1.0,1.703,0.0,2.0,2.0,2.0,1.0,2898631359-142721.jpg,2898618444-142233.jpg,A22PT6K5XNIFLA_2022-10-02_09h30.03.536.csv
243,2.0,left,left,1.0,1.895,0.0,3.0,3.0,3.0,1.0,2449442529-124445.jpg,2986408373-73286.jpg,A22PT6K5XNIFLA_2022-10-02_09h30.03.536.csv
244,2.0,left,right,0.0,2.019,0.0,4.0,4.0,4.0,1.0,2238572663-35822.jpg,2238571930-184143.jpg,A22PT6K5XNIFLA_2022-10-02_09h30.03.536.csv
245,1.0,left,left,1.0,1.45,0.0,5.0,5.0,5.0,1.0,2449442529-124446.jpg,2446759803-49251.jpg,A22PT6K5XNIFLA_2022-10-02_09h30.03.536.csv
246,2.0,left,right,0.0,1.563,0.0,6.0,6.0,6.0,1.0,2964223381-294447.jpg,2901941438-69836.jpg,A22PT6K5XNIFLA_2022-10-02_09h30.03.536.csv
247,1.0,left,right,0.0,1.177,0.0,7.0,7.0,7.0,1.0,2460547467-349421.jpg,2898631394-142727.jpg,A22PT6K5XNIFLA_2022-10-02_09h30.03.536.csv
248,3.0,left,left,1.0,1.397,0.0,8.0,8.0,8.0,1.0,2238425482-313537.jpg,2898633480-217190.jpg,A22PT6K5XNIFLA_2022-10-02_09h30.03.536.csv
249,2.0,left,right,0.0,1.679,0.0,9.0,9.0,9.0,1.0,2981231403-71642.jpg,2874305405-214397.jpg,A22PT6K5XNIFLA_2022-10-02_09h30.03.536.csv
250,1.0,left,right,0.0,1.353,0.0,10.0,10.0,10.0,1.0,2964216465-219242.jpg,2238544191-252422.jpg,A22PT6K5XNIFLA_2022-10-02_09h30.03.536.csv
251,3.0,left,right,0.0,1.768,0.0,11.0,11.0,11.0,1.0,2986451363-73599.jpg,2238434559-90406.jpg,A22PT6K5XNIFLA_2022-10-02_09h30.03.536.csv
252,2.0,right,right,1.0,1.782,0.0,12.0,12.0,12.0,1.0,2981243412-370222.jpg,2901941401-292798.jpg,A22PT6K5XNIFLA_2022-10-02_09h30.03.536.csv
253,3.0,right,right,1.0,1.591,0.0,13.0,13.0,13.0,1.0,2868474407-362885.jpg,2868475410-213219.jpg,A22PT6K5XNIFLA_2022-10-02_09h30.03.536.csv
254,2.0,right,right,1.0,1.919,0.0,14.0,14.0,14.0,1.0,2901933382-367209.jpg,2964222378-71332.jpg,A22PT6K5XNIFLA_2022-10-02_09h30.03.536.csv
255,3.0,right,right,1.0,3.308,0.0,15.0,15.0,15.0,1.0,2238578544-111698.jpg,2874302418-65979.jpg,A22PT6K5XNIFLA_2022-10-02_09h30.03.536.csv
256,2.0,left,left,1.0,1.611,0.0,16.0,16.0,16.0,1.0,2898633421-291973.jpg,2575118671-277663.jpg,A22PT6K5XNIFLA_2022-10-02_09h30.03.536.csv
257,2.0,right,right,1.0,2.099,0.0,17.0,17.0,17.0,1.0,2901947423-70310.jpg,2864907432-362042.jpg,A22PT6K5XNIFLA_2022-10-02_09h30.03.536.csv
258,1.0,left,left,1.0,4.282,0.0,18.0,18.0,18.0,1.0,2883256307-365057.jpg,2611628310-206388.jpg,A22PT6K5XNIFLA_2022-10-02_09h30.03.536.csv
259,2.0,left,right,0.0,1.897,0.0,19.0,19.0,19.0,1.0,2452381505-199546.jpg,2898632385-217138.jpg,A22PT6K5XNIFLA_2022-10-02_09h30.03.536.csv
260,3.0,left,right,0.0,1.718,0.0,20.0,20.0,20.0,1.0,2874303365-214262.jpg,2864911457-362260.jpg,A22PT6K5XNIFLA_2022-10-02_09h30.03.536.csv
261,2.0,right,right,1.0,1.485,0.0,21.0,21.0,21.0,1.0,2901943411-292945.jpg,2898635428-69104.jpg,A22PT6K5XNIFLA_2022-10-02_09h30.03.536.csv
262,3.0,left,right,0.0,3.645,0.0,22.0,22.0,22.0,1.0,2868474407-362883.jpg,2901948383-70363.jpg,A22PT6K5XNIFLA_2022-10-02_09h30.03.536.csv
263,3.0,right,left,0.0,1.252,0.0,23.0,23.0,23.0,1.0,2238480278-19661.jpg,2238480677-317399.jpg,A22PT6K5XNIFLA_2022-10-02_09h30.03.536.csv
264,2.0,left,left,1.0,1.834,0.0,24.0,24.0,24.0,1.0,2238428357-313623.jpg,2984615361-295509.jpg,A22PT6K5XNIFLA_2022-10-02_09h30.03.536.csv
265,3.0,left,left,1.0,2.053,0.0,25.0,25.0,25.0,1.0,2575120738-55529.jpg,2238531493-28260.jpg,A22PT6K5XNIFLA_2022-10-02_09h30.03.536.csv
266,1.0,right,right,1.0,1.992,0.0,26.0,26.0,26.0,1.0,2452380166-273109.jpg,2460547508-51571.jpg,A22PT6K5XNIFLA_2022-10-02_09h30.03.536.csv
267,2.0,left,right,0.0,3.114,0.0,27.0,27.0,27.0,1.0,2592379964-131054.jpg,2238479053-19457.jpg,A22PT6K5XNIFLA_2022-10-02_09h30.03.536.csv
268,1.0,right,right,1.0,1.684,0.0,28.0,28.0,28.0,1.0,2446760601-272099.jpg,2446759803-49249.jpg,A22PT6K5XNIFLA_2022-10-02_09h30.03.536.csv
269,2.0,left,right,0.0,1.957,0.0,29.0,29.0,29.0,1.0,2592380177-354626.jpg,2864901386-286797.jpg,A22PT6K5XNIFLA_2022-10-02_09h30.03.536.csv
270,1.0,right,right,1.0,1.887,0.0,30.0,30.0,30.0,1.0,2238480434-93829.jpg,2458347385-199723.jpg,A22PT6K5XNIFLA_2022-10-02_09h30.03.536.csv
271,3.0,left,right,0.0,1.294,0.0,31.0,31.0,31.0,1.0,2981241414-145842.jpg,2427873848-47312.jpg,A22PT6K5XNIFLA_2022-10-02_09h30.03.536.csv
272,2.0,right,left,0.0,1.324,0.0,32.0,32.0,32.0,1.0,2901939327-367670.jpg,2898618390-216538.jpg,A22PT6K5XNIFLA_2022-10-02_09h30.03.536.csv
273,1.0,left,right,0.0,2.252,0.0,33.0,33.0,33.0,1.0,2874302418-65978.jpg,2964224310-219528.jpg,A22PT6K5XNIFLA_2022-10-02_09h30.03.536.csv
274,2.0,right,right,1.0,1.894,0.0,34.0,34.0,34.0,1.0,2901943387-368037.jpg,2898617468-68274.jpg,A22PT6K5XNIFLA_2022-10-02_09h30.03.536.csv
275,1.0,left,right,0.0,1.4,0.0,35.0,35.0,35.0,1.0,2874299429-139694.jpg,2986447306-296584.jpg,A22PT6K5XNIFLA_2022-10-02_09h30.03.536.csv
276,2.0,right,right,1.0,1.68,0.0,36.0,36.0,36.0,1.0,2460547508-51572.jpg,2883273443-68193.jpg,A22PT6K5XNIFLA_2022-10-02_09h30.03.536.csv
277,1.0,right,left,0.0,2.141,0.0,37.0,37.0,37.0,1.0,2860312398-62572.jpg,2901947423-70311.jpg,A22PT6K5XNIFLA_2022-10-02_09h30.03.536.csv
278,3.0,left,left,1.0,1.48,0.0,38.0,38.0,38.0,1.0,2898634397-367080.jpg,2964217461-294238.jpg,A22PT6K5XNIFLA_2022-10-02_09h30.03.536.csv
279,3.0,right,left,0.0,2.072,0.0,39.0,39.0,39.0,1.0,2964220333-71258.jpg,2238580740-186218.jpg,A22PT6K5XNIFLA_2022-10-02_09h30.03.536.csv
280,2.0,left,right,0.0,1.687,0.0,40.0,40.0,40.0,1.0,2964218374-144967.jpg,2446759306-271734.jpg,A22PT6K5XNIFLA_2022-10-02_09h30.03.536.csv
281,2.0,right,right,1.0,1.491,0.0,41.0,41.0,41.0,1.0,2981236443-71859.jpg,2898624426-291546.jpg,A22PT6K5XNIFLA_2022-10-02_09h30.03.536.csv
282,3.0,right,left,0.0,1.832,0.0,42.0,42.0,42.0,1.0,2901947448-70314.jpg,2883268471-290842.jpg,A22PT6K5XNIFLA_2022-10-02_09h30.03.536.csv
283,1.0,left,left,1.0,1.526,0.0,43.0,43.0,43.0,1.0,2238481198-19822.jpg,2862691449-137104.jpg,A22PT6K5XNIFLA_2022-10-02_09h30.03.536.csv
284,1.0,left,right,0.0,1.973,0.0,44.0,44.0,44.0,1.0,2460547467-349422.jpg,2898618440-216545.jpg,A22PT6K5XNIFLA_2022-10-02_09h30.03.536.csv
285,1.0,right,right,1.0,1.684,0.0,45.0,45.0,45.0,1.0,2883264367-365620.jpg,2238481928-19949.jpg,A22PT6K5XNIFLA_2022-10-02_09h30.03.536.csv
286,1.0,left,left,1.0,1.436,0.0,46.0,46.0,46.0,1.0,2986451363-73598.jpg,2237857458-1324.jpg,A22PT6K5XNIFLA_2022-10-02_09h30.03.536.csv
287,1.0,left,left,1.0,1.568,0.0,47.0,47.0,47.0,1.0,2883268412-365898.jpg,2984626312-370849.jpg,A22PT6K5XNIFLA_2022-10-02_09h30.03.536.csv
288,1.0,left,right,0.0,2.211,0.0,48.0,48.0,48.0,1.0,2874299429-139695.jpg,2883266388-67750.jpg,A22PT6K5XNIFLA_2022-10-02_09h30.03.536.csv
289,3.0,left,left,1.0,1.162,0.0,49.0,49.0,49.0,1.0,2898635427-367120.jpg,2898621427-366486.jpg,A22PT6K5XNIFLA_2022-10-02_09h30.03.536.csv
290,3.0,left,left,1.0,1.893,0.0,50.0,50.0,50.0,1.0,2901939379-143479.jpg,2964216376-294181.jpg,A22PT6K5XNIFLA_2022-10-02_09h30.03.536.csv
291,3.0,left,left,1.0,2.071,0.0,51.0,51.0,51.0,1.0,2238560245-182099.jpg,2238480980-168129.jpg,A22PT6K5XNIFLA_2022-10-02_09h30.03.536.csv
292,3.0,left,right,0.0,1.918,0.0,52.0,52.0,52.0,1.0,2452380832-348593.jpg,2237858942-299356.jpg,A22PT6K5XNIFLA_2022-10-02_09h30.03.536.csv
293,3.0,right,right,1.0,1.829,0.0,53.0,53.0,53.0,1.0,2981231422-369714.jpg,2874307433-66280.jpg,A22PT6K5XNIFLA_2022-10-02_09h30.03.536.csv
294,1.0,right,right,1.0,1.868,0.0,54.0,54.0,54.0,1.0,2981240424-145795.jpg,2446758985-197609.jpg,A22PT6K5XNIFLA_2022-10-02_09h30.03.536.csv
295,2.0,left,left,1.0,2.073,0.0,55.0,55.0,55.0,1.0,2864910426-287204.jpg,2883268412-365899.jpg,A22PT6K5XNIFLA_2022-10-02_09h30.03.536.csv
296,1.0,right,left,0.0,1.854,0.0,56.0,56.0,56.0,1.0,2864907361-287062.jpg,2901952513-70703.jpg,A22PT6K5XNIFLA_2022-10-02_09h30.03.536.csv
297,3.0,left,right,0.0,1.893,0.0,57.0,57.0,57.0,1.0,2901939379-143480.jpg,2898632385-217139.jpg,A22PT6K5XNIFLA_2022-10-02_09h30.03.536.csv
298,1.0,right,left,0.0,2.044,0.0,58.0,58.0,58.0,1.0,2446761374-124213.jpg,2874301407-363895.jpg,A22PT6K5XNIFLA_2022-10-02_09h30.03.536.csv
299,3.0,left,right,0.0,1.769,0.0,59.0,59.0,59.0,1.0,2592380177-354629.jpg,2512875587-350044.jpg,A22PT6K5XNIFLA_2022-10-02_09h30.03.536.csv
300,3.0,left,left,1.0,2.277,0.0,0.0,0.0,0.0,1.0,2901939379-143479.jpg,2964216376-294181.jpg,A2RZYTE48OHTMZ_2022-10-02_10h08.36.036.csv
301,1.0,left,left,1.0,1.63,0.0,1.0,1.0,1.0,1.0,2898624426-291546.jpg,2964218432-369263.jpg,A2RZYTE48OHTMZ_2022-10-02_10h08.36.036.csv
302,3.0,right,left,0.0,2.081,0.0,2.0,2.0,2.0,1.0,2238480980-168129.jpg,2238560245-182099.jpg,A2RZYTE48OHTMZ_2022-10-02_10h08.36.036.csv
303,1.0,right,right,1.0,1.763,0.0,3.0,3.0,3.0,1.0,2898626385-216899.jpg,2986451363-73599.jpg,A2RZYTE48OHTMZ_2022-10-02_10h08.36.036.csv
304,1.0,left,right,0.0,2.16,0.0,4.0,4.0,4.0,1.0,2868475410-213219.jpg,2901946465-218350.jpg,A2RZYTE48OHTMZ_2022-10-02_10h08.36.036.csv
305,3.0,right,left,0.0,1.614,0.0,5.0,5.0,5.0,1.0,2964217461-294238.jpg,2898634397-367080.jpg,A2RZYTE48OHTMZ_2022-10-02_10h08.36.036.csv
306,3.0,right,right,1.0,1.959,0.0,6.0,6.0,6.0,1.0,2864903351-286874.jpg,2238572663-35822.jpg,A2RZYTE48OHTMZ_2022-10-02_10h08.36.036.csv
307,1.0,right,left,0.0,2.365,0.0,7.0,7.0,7.0,1.0,2898631359-142721.jpg,2898618444-142233.jpg,A2RZYTE48OHTMZ_2022-10-02_10h08.36.036.csv
308,3.0,right,right,1.0,2.506,0.0,8.0,8.0,8.0,1.0,2964213381-294061.jpg,2964213381-294060.jpg,A2RZYTE48OHTMZ_2022-10-02_10h08.36.036.csv
309,1.0,right,left,0.0,2.718,0.0,9.0,9.0,9.0,1.0,2864902304-137862.jpg,2864910426-287204.jpg,A2RZYTE48OHTMZ_2022-10-02_10h08.36.036.csv
310,2.0,left,right,0.0,2.634,0.0,10.0,10.0,10.0,1.0,2238481198-19822.jpg,2901946436-293242.jpg,A2RZYTE48OHTMZ_2022-10-02_10h08.36.036.csv
311,1.0,left,left,1.0,2.542,0.0,11.0,11.0,11.0,1.0,2449442529-124445.jpg,2452380171-273112.jpg,A2RZYTE48OHTMZ_2022-10-02_10h08.36.036.csv
312,3.0,left,left,1.0,4.353,0.0,12.0,12.0,12.0,1.0,2460547467-349422.jpg,2864909447-362146.jpg,A2RZYTE48OHTMZ_2022-10-02_10h08.36.036.csv
313,2.0,right,right,1.0,2.986,0.0,13.0,13.0,13.0,1.0,2981243412-370222.jpg,2901941401-292798.jpg,A2RZYTE48OHTMZ_2022-10-02_10h08.36.036.csv
314,1.0,right,left,0.0,2.859,0.0,14.0,14.0,14.0,1.0,2964218374-144968.jpg,2964218374-144967.jpg,A2RZYTE48OHTMZ_2022-10-02_10h08.36.036.csv
315,3.0,left,right,0.0,1.963,0.0,15.0,15.0,15.0,1.0,2883268412-365898.jpg,2238436252-314037.jpg,A2RZYTE48OHTMZ_2022-10-02_10h08.36.036.csv
316,2.0,right,left,0.0,1.427,0.0,16.0,16.0,16.0,1.0,2864900357-361688.jpg,2238481928-19949.jpg,A2RZYTE48OHTMZ_2022-10-02_10h08.36.036.csv
317,3.0,right,right,1.0,1.606,0.0,17.0,17.0,17.0,1.0,2427873848-47312.jpg,2981241414-145842.jpg,A2RZYTE48OHTMZ_2022-10-02_10h08.36.036.csv
318,3.0,right,left,0.0,1.425,0.0,18.0,18.0,18.0,1.0,2901947323-70275.jpg,2874301407-363895.jpg,A2RZYTE48OHTMZ_2022-10-02_10h08.36.036.csv
319,1.0,right,right,1.0,1.215,0.0,19.0,19.0,19.0,1.0,2864907361-287062.jpg,2901952513-70703.jpg,A2RZYTE48OHTMZ_2022-10-02_10h08.36.036.csv
320,1.0,left,right,0.0,1.621,0.0,20.0,20.0,20.0,1.0,2512875899-126682.jpg,2460547536-274179.jpg,A2RZYTE48OHTMZ_2022-10-02_10h08.36.036.csv
321,2.0,left,left,1.0,2.239,0.0,21.0,21.0,21.0,1.0,2592380177-354629.jpg,2579432534-130704.jpg,A2RZYTE48OHTMZ_2022-10-02_10h08.36.036.csv
322,2.0,left,right,0.0,1.78,0.0,22.0,22.0,22.0,1.0,2868474407-362883.jpg,2981246400-220363.jpg,A2RZYTE48OHTMZ_2022-10-02_10h08.36.036.csv
323,1.0,right,right,1.0,1.935,0.0,23.0,23.0,23.0,1.0,2883266388-67750.jpg,2874299429-139695.jpg,A2RZYTE48OHTMZ_2022-10-02_10h08.36.036.csv
324,2.0,right,left,0.0,1.593,0.0,24.0,24.0,24.0,1.0,2575118671-277663.jpg,2898633421-291973.jpg,A2RZYTE48OHTMZ_2022-10-02_10h08.36.036.csv
325,1.0,left,right,0.0,1.729,0.0,25.0,25.0,25.0,1.0,2592379964-131054.jpg,2575963989-130576.jpg,A2RZYTE48OHTMZ_2022-10-02_10h08.36.036.csv
326,1.0,left,right,0.0,1.311,0.0,26.0,26.0,26.0,1.0,2452381505-199546.jpg,2901938432-367627.jpg,A2RZYTE48OHTMZ_2022-10-02_10h08.36.036.csv
327,1.0,left,right,0.0,2.319,0.0,27.0,27.0,27.0,1.0,2883256307-365057.jpg,2611628310-206388.jpg,A2RZYTE48OHTMZ_2022-10-02_10h08.36.036.csv
328,2.0,left,left,1.0,2.461,0.0,28.0,28.0,28.0,1.0,2898635427-367120.jpg,2868479517-363220.jpg,A2RZYTE48OHTMZ_2022-10-02_10h08.36.036.csv
329,3.0,left,left,1.0,1.418,0.0,29.0,29.0,29.0,1.0,2446759803-49249.jpg,2901951392-368654.jpg,A2RZYTE48OHTMZ_2022-10-02_10h08.36.036.csv
330,3.0,left,left,1.0,1.292,0.0,30.0,30.0,30.0,1.0,2446758985-197609.jpg,2898624426-291544.jpg,A2RZYTE48OHTMZ_2022-10-02_10h08.36.036.csv
331,3.0,right,right,1.0,0.36,0.0,31.0,31.0,31.0,1.0,2898633480-217190.jpg,2238425482-313537.jpg,A2RZYTE48OHTMZ_2022-10-02_10h08.36.036.csv
332,2.0,right,left,0.0,1.127,0.0,32.0,32.0,32.0,1.0,2864900319-137787.jpg,2964216465-219242.jpg,A2RZYTE48OHTMZ_2022-10-02_10h08.36.036.csv
333,3.0,right,right,1.0,1.597,0.0,33.0,33.0,33.0,1.0,2986408339-146952.jpg,2238428357-313623.jpg,A2RZYTE48OHTMZ_2022-10-02_10h08.36.036.csv
334,1.0,left,left,1.0,1.778,0.0,34.0,34.0,34.0,1.0,2874303365-214262.jpg,2274829821-263682.jpg,A2RZYTE48OHTMZ_2022-10-02_10h08.36.036.csv
335,2.0,right,right,1.0,1.233,0.0,35.0,35.0,35.0,1.0,2901933382-367209.jpg,2964222378-71332.jpg,A2RZYTE48OHTMZ_2022-10-02_10h08.36.036.csv
336,3.0,right,left,0.0,1.626,0.0,36.0,36.0,36.0,1.0,2883266367-365742.jpg,2874299429-139694.jpg,A2RZYTE48OHTMZ_2022-10-02_10h08.36.036.csv
337,1.0,left,right,0.0,1.299,0.0,37.0,37.0,37.0,1.0,2238480677-317399.jpg,2238481630-168218.jpg,A2RZYTE48OHTMZ_2022-10-02_10h08.36.036.csv
338,2.0,right,left,0.0,2.206,0.0,38.0,38.0,38.0,1.0,2238481198-19823.jpg,2874302418-65978.jpg,A2RZYTE48OHTMZ_2022-10-02_10h08.36.036.csv
339,2.0,right,right,1.0,4.755,0.0,39.0,39.0,39.0,1.0,2981229442-369621.jpg,2901939379-143480.jpg,A2RZYTE48OHTMZ_2022-10-02_10h08.36.036.csv
340,2.0,left,left,1.0,2.289,0.0,40.0,40.0,40.0,1.0,2238580740-186218.jpg,2238521193-26285.jpg,A2RZYTE48OHTMZ_2022-10-02_10h08.36.036.csv
341,2.0,left,right,0.0,1.986,0.0,41.0,41.0,41.0,1.0,2460547508-51571.jpg,2981232437-369759.jpg,A2RZYTE48OHTMZ_2022-10-02_10h08.36.036.csv
342,3.0,right,left,0.0,1.939,0.0,42.0,42.0,42.0,1.0,2238577590-185467.jpg,2901947423-70311.jpg,A2RZYTE48OHTMZ_2022-10-02_10h08.36.036.csv
343,3.0,left,right,0.0,2.987,0.0,43.0,43.0,43.0,1.0,2883273443-68193.jpg,2898627427-366763.jpg,A2RZYTE48OHTMZ_2022-10-02_10h08.36.036.csv
344,1.0,left,left,1.0,1.131,0.0,44.0,44.0,44.0,1.0,2964223381-294447.jpg,2427874231-269884.jpg,A2RZYTE48OHTMZ_2022-10-02_10h08.36.036.csv
345,2.0,left,left,1.0,2.696,0.0,45.0,45.0,45.0,1.0,2898635428-69104.jpg,2901943411-292945.jpg,A2RZYTE48OHTMZ_2022-10-02_10h08.36.036.csv
346,3.0,left,right,0.0,1.08,0.0,46.0,46.0,46.0,1.0,2575120738-55529.jpg,2238531493-28260.jpg,A2RZYTE48OHTMZ_2022-10-02_10h08.36.036.csv
347,2.0,left,left,1.0,1.857,0.0,47.0,47.0,47.0,1.0,2874307433-66280.jpg,2981246400-220365.jpg,A2RZYTE48OHTMZ_2022-10-02_10h08.36.036.csv
348,2.0,right,right,1.0,1.849,0.0,48.0,48.0,48.0,1.0,2460547536-274181.jpg,2449442529-124446.jpg,A2RZYTE48OHTMZ_2022-10-02_10h08.36.036.csv
349,1.0,left,left,1.0,2.972,0.0,49.0,49.0,49.0,1.0,2898617468-68274.jpg,2901946439-144040.jpg,A2RZYTE48OHTMZ_2022-10-02_10h08.36.036.csv
350,2.0,left,right,0.0,1.791,0.0,50.0,50.0,50.0,1.0,2864907432-362042.jpg,2901947423-70310.jpg,A2RZYTE48OHTMZ_2022-10-02_10h08.36.036.csv
351,2.0,right,left,0.0,1.779,0.0,51.0,51.0,51.0,1.0,2427874554-121863.jpg,2458347385-199723.jpg,A2RZYTE48OHTMZ_2022-10-02_10h08.36.036.csv
352,1.0,right,left,0.0,0.352,0.0,52.0,52.0,52.0,1.0,2238576792-334659.jpg,2592380177-354626.jpg,A2RZYTE48OHTMZ_2022-10-02_10h08.36.036.csv
353,2.0,left,left,1.0,1.092,0.0,53.0,53.0,53.0,1.0,2460547467-349421.jpg,2452380166-273110.jpg,A2RZYTE48OHTMZ_2022-10-02_10h08.36.036.csv
354,1.0,left,right,0.0,1.748,0.0,54.0,54.0,54.0,1.0,2883268471-290842.jpg,2883268471-290843.jpg,A2RZYTE48OHTMZ_2022-10-02_10h08.36.036.csv
355,3.0,left,left,1.0,1.668,0.0,55.0,55.0,55.0,1.0,2874302418-65979.jpg,2238578544-111698.jpg,A2RZYTE48OHTMZ_2022-10-02_10h08.36.036.csv
356,2.0,left,right,0.0,1.403,0.0,56.0,56.0,56.0,1.0,2452380832-348593.jpg,2238481813-19930.jpg,A2RZYTE48OHTMZ_2022-10-02_10h08.36.036.csv
357,3.0,right,left,0.0,1.507,0.0,57.0,57.0,57.0,1.0,2427873763-47290.jpg,2981231403-71642.jpg,A2RZYTE48OHTMZ_2022-10-02_10h08.36.036.csv
358,3.0,left,left,1.0,1.671,0.0,58.0,58.0,58.0,1.0,2898618390-216538.jpg,2575120609-129862.jpg,A2RZYTE48OHTMZ_2022-10-02_10h08.36.036.csv
359,1.0,right,right,1.0,1.412,0.0,59.0,59.0,59.0,1.0,2237857458-1324.jpg,2986451363-73598.jpg,A2RZYTE48OHTMZ_2022-10-02_10h08.36.036.csv
360,3.0,left,left,1.0,4.159,0.0,0.0,0.0,0.0,1.0,2238572663-35822.jpg,2864903351-286874.jpg,A2R2ZA0STNZX9S_2022-10-02_09h07.42.628.csv
361,1.0,left,left,1.0,2.281,0.0,1.0,1.0,1.0,1.0,2868475410-213219.jpg,2901946465-218350.jpg,A2R2ZA0STNZX9S_2022-10-02_09h07.42.628.csv
362,1.0,right,left,0.0,2.57,0.0,2.0,2.0,2.0,1.0,2460547536-274179.jpg,2512875899-126682.jpg,A2R2ZA0STNZX9S_2022-10-02_09h07.42.628.csv
363,1.0,left,left,1.0,1.21,0.0,3.0,3.0,3.0,1.0,2460547467-349422.jpg,2898618440-216545.jpg,A2R2ZA0STNZX9S_2022-10-02_09h07.42.628.csv
364,1.0,left,left,1.0,2.726,0.0,4.0,4.0,4.0,1.0,2449442529-124446.jpg,2446759803-49251.jpg,A2R2ZA0STNZX9S_2022-10-02_09h07.42.628.csv
365,2.0,right,right,1.0,2.277,0.0,5.0,5.0,5.0,1.0,2901942443-69923.jpg,2874299429-139695.jpg,A2R2ZA0STNZX9S_2022-10-02_09h07.42.628.csv
366,3.0,left,left,1.0,1.666,0.0,6.0,6.0,6.0,1.0,2898618390-216538.jpg,2575120609-129862.jpg,A2R2ZA0STNZX9S_2022-10-02_09h07.42.628.csv
367,3.0,left,left,1.0,2.394,0.0,7.0,7.0,7.0,1.0,2901939379-143480.jpg,2898632385-217139.jpg,A2R2ZA0STNZX9S_2022-10-02_09h07.42.628.csv
368,3.0,right,right,1.0,2.77,0.0,8.0,8.0,8.0,1.0,2864904453-63933.jpg,2883256307-365057.jpg,A2R2ZA0STNZX9S_2022-10-02_09h07.42.628.csv
369,3.0,left,left,1.0,1.885,0.0,9.0,9.0,9.0,1.0,2901947423-70311.jpg,2238577590-185467.jpg,A2R2ZA0STNZX9S_2022-10-02_09h07.42.628.csv
370,1.0,right,right,1.0,1.951,0.0,10.0,10.0,10.0,1.0,2862691449-137104.jpg,2238481198-19822.jpg,A2R2ZA0STNZX9S_2022-10-02_09h07.42.628.csv
371,3.0,left,right,0.0,2.068,0.0,11.0,11.0,11.0,1.0,2964223381-294447.jpg,2898628438-68785.jpg,A2R2ZA0STNZX9S_2022-10-02_09h07.42.628.csv
372,1.0,right,right,1.0,2.113,0.0,12.0,12.0,12.0,1.0,2238471391-240918.jpg,2238425482-313537.jpg,A2R2ZA0STNZX9S_2022-10-02_09h07.42.628.csv
373,2.0,right,left,0.0,1.97,0.0,13.0,13.0,13.0,1.0,2864901386-286797.jpg,2592380177-354626.jpg,A2R2ZA0STNZX9S_2022-10-02_09h07.42.628.csv
374,1.0,left,left,1.0,2.002,0.0,14.0,14.0,14.0,1.0,2446759803-49249.jpg,2446760601-272099.jpg,A2R2ZA0STNZX9S_2022-10-02_09h07.42.628.csv
375,3.0,right,right,1.0,1.844,0.0,15.0,15.0,15.0,1.0,2898633321-291943.jpg,2874302418-65978.jpg,A2R2ZA0STNZX9S_2022-10-02_09h07.42.628.csv
376,3.0,right,right,1.0,1.787,0.0,16.0,16.0,16.0,1.0,2238550049-105691.jpg,2898633421-291973.jpg,A2R2ZA0STNZX9S_2022-10-02_09h07.42.628.csv
377,2.0,left,right,0.0,1.681,0.0,17.0,17.0,17.0,1.0,2883273443-68193.jpg,2460547508-51572.jpg,A2R2ZA0STNZX9S_2022-10-02_09h07.42.628.csv
378,3.0,right,left,0.0,1.672,0.0,18.0,18.0,18.0,1.0,2427873848-47312.jpg,2981241414-145842.jpg,A2R2ZA0STNZX9S_2022-10-02_09h07.42.628.csv
379,2.0,right,right,1.0,2.392,0.0,19.0,19.0,19.0,1.0,2981246400-220363.jpg,2868474407-362883.jpg,A2R2ZA0STNZX9S_2022-10-02_09h07.42.628.csv
380,3.0,right,right,1.0,2.909,0.0,20.0,20.0,20.0,1.0,2981235446-294901.jpg,2460547467-349421.jpg,A2R2ZA0STNZX9S_2022-10-02_09h07.42.628.csv
381,1.0,left,left,1.0,2.174,0.0,21.0,21.0,21.0,1.0,2981231403-71642.jpg,2579432519-130698.jpg,A2R2ZA0STNZX9S_2022-10-02_09h07.42.628.csv
382,1.0,left,left,1.0,1.754,0.0,22.0,22.0,22.0,1.0,2898635427-367120.jpg,2964221435-219434.jpg,A2R2ZA0STNZX9S_2022-10-02_09h07.42.628.csv
383,2.0,right,right,1.0,1.985,0.0,23.0,23.0,23.0,1.0,2446758985-197610.jpg,2901939379-143479.jpg,A2R2ZA0STNZX9S_2022-10-02_09h07.42.628.csv
384,1.0,right,right,1.0,1.57,0.0,24.0,24.0,24.0,1.0,2898618327-366317.jpg,2901941401-292798.jpg,A2R2ZA0STNZX9S_2022-10-02_09h07.42.628.csv
385,1.0,left,left,1.0,1.796,0.0,25.0,25.0,25.0,1.0,2864907432-362042.jpg,2864901420-212147.jpg,A2R2ZA0STNZX9S_2022-10-02_09h07.42.628.csv
386,1.0,right,right,1.0,2.62,0.0,26.0,26.0,26.0,1.0,2964218374-144968.jpg,2964218374-144967.jpg,A2R2ZA0STNZX9S_2022-10-02_09h07.42.628.csv
387,2.0,right,right,1.0,1.861,0.0,27.0,27.0,27.0,1.0,2981236443-71859.jpg,2898624426-291546.jpg,A2R2ZA0STNZX9S_2022-10-02_09h07.42.628.csv
388,2.0,right,left,0.0,1.579,0.0,28.0,28.0,28.0,1.0,2901933382-367209.jpg,2964222378-71332.jpg,A2R2ZA0STNZX9S_2022-10-02_09h07.42.628.csv
389,2.0,left,left,1.0,1.597,0.0,29.0,29.0,29.0,1.0,2446758985-197609.jpg,2864909447-362144.jpg,A2R2ZA0STNZX9S_2022-10-02_09h07.42.628.csv
390,3.0,left,left,1.0,2.183,0.0,30.0,30.0,30.0,1.0,2592379964-131054.jpg,2592380272-354673.jpg,A2R2ZA0STNZX9S_2022-10-02_09h07.42.628.csv
391,1.0,left,left,1.0,1.612,0.0,31.0,31.0,31.0,1.0,2898634397-367080.jpg,2237944827-301472.jpg,A2R2ZA0STNZX9S_2022-10-02_09h07.42.628.csv
392,2.0,right,right,1.0,1.887,0.0,32.0,32.0,32.0,1.0,2981232437-369759.jpg,2460547508-51571.jpg,A2R2ZA0STNZX9S_2022-10-02_09h07.42.628.csv
393,2.0,left,right,0.0,1.296,0.0,33.0,33.0,33.0,1.0,2986451363-73598.jpg,2984628361-295995.jpg,A2R2ZA0STNZX9S_2022-10-02_09h07.42.628.csv
394,1.0,right,left,0.0,2.527,0.0,34.0,34.0,34.0,1.0,2901946439-144040.jpg,2898617468-68274.jpg,A2R2ZA0STNZX9S_2022-10-02_09h07.42.628.csv
395,3.0,right,left,0.0,1.632,0.0,35.0,35.0,35.0,1.0,2237858942-299356.jpg,2452380832-348593.jpg,A2R2ZA0STNZX9S_2022-10-02_09h07.42.628.csv
396,1.0,right,left,0.0,1.701,0.0,36.0,36.0,36.0,1.0,2984615358-72439.jpg,2874307433-66280.jpg,A2R2ZA0STNZX9S_2022-10-02_09h07.42.628.csv
397,2.0,right,right,1.0,1.462,0.0,37.0,37.0,37.0,1.0,2458348012-349114.jpg,2964213381-294060.jpg,A2R2ZA0STNZX9S_2022-10-02_09h07.42.628.csv
398,3.0,left,left,1.0,1.989,0.0,38.0,38.0,38.0,1.0,2874302418-65979.jpg,2238578544-111698.jpg,A2R2ZA0STNZX9S_2022-10-02_09h07.42.628.csv
399,3.0,left,right,0.0,1.972,0.0,39.0,39.0,39.0,1.0,2449442529-124445.jpg,2898632385-217137.jpg,A2R2ZA0STNZX9S_2022-10-02_09h07.42.628.csv
400,2.0,right,left,0.0,1.827,0.0,40.0,40.0,40.0,1.0,2238573546-258454.jpg,2238480677-317399.jpg,A2R2ZA0STNZX9S_2022-10-02_09h07.42.628.csv
401,2.0,left,left,1.0,1.852,0.0,41.0,41.0,41.0,1.0,2238580740-186218.jpg,2238521193-26285.jpg,A2R2ZA0STNZX9S_2022-10-02_09h07.42.628.csv
402,1.0,left,left,1.0,1.803,0.0,42.0,42.0,42.0,1.0,2458347385-199723.jpg,2238480434-93829.jpg,A2R2ZA0STNZX9S_2022-10-02_09h07.42.628.csv
403,1.0,left,left,1.0,1.803,0.0,43.0,43.0,43.0,1.0,2874301407-363895.jpg,2446761374-124213.jpg,A2R2ZA0STNZX9S_2022-10-02_09h07.42.628.csv
404,2.0,right,right,1.0,1.951,0.0,44.0,44.0,44.0,1.0,2575120738-55528.jpg,2575120738-55529.jpg,A2R2ZA0STNZX9S_2022-10-02_09h07.42.628.csv
405,1.0,left,left,1.0,1.774,0.0,45.0,45.0,45.0,1.0,2898618444-142233.jpg,2898631359-142721.jpg,A2R2ZA0STNZX9S_2022-10-02_09h07.42.628.csv
406,2.0,left,left,1.0,1.879,0.0,46.0,46.0,46.0,1.0,2898635428-69104.jpg,2901943411-292945.jpg,A2R2ZA0STNZX9S_2022-10-02_09h07.42.628.csv
407,3.0,right,left,0.0,2.077,0.0,47.0,47.0,47.0,1.0,2883266367-365742.jpg,2874299429-139694.jpg,A2R2ZA0STNZX9S_2022-10-02_09h07.42.628.csv
408,2.0,left,right,0.0,2.257,0.0,48.0,48.0,48.0,1.0,2986451363-73599.jpg,2860302315-210704.jpg,A2R2ZA0STNZX9S_2022-10-02_09h07.42.628.csv
409,3.0,right,left,0.0,1.53,0.0,49.0,49.0,49.0,1.0,2981241419-145844.jpg,2238481928-19949.jpg,A2R2ZA0STNZX9S_2022-10-02_09h07.42.628.csv
410,3.0,right,right,1.0,1.502,0.0,50.0,50.0,50.0,1.0,2238436252-314037.jpg,2883268412-365898.jpg,A2R2ZA0STNZX9S_2022-10-02_09h07.42.628.csv
411,3.0,left,left,1.0,1.577,0.0,51.0,51.0,51.0,1.0,2452381505-199546.jpg,2994401319-148290.jpg,A2R2ZA0STNZX9S_2022-10-02_09h07.42.628.csv
412,2.0,right,left,0.0,1.57,0.0,52.0,52.0,52.0,1.0,2874314526-289684.jpg,2238560245-182099.jpg,A2R2ZA0STNZX9S_2022-10-02_09h07.42.628.csv
413,1.0,right,left,0.0,1.57,0.0,53.0,53.0,53.0,1.0,2864902304-137862.jpg,2864910426-287204.jpg,A2R2ZA0STNZX9S_2022-10-02_09h07.42.628.csv
414,2.0,left,right,0.0,1.255,0.0,54.0,54.0,54.0,1.0,2883268471-290842.jpg,2883255450-215310.jpg,A2R2ZA0STNZX9S_2022-10-02_09h07.42.628.csv
415,3.0,right,right,1.0,1.967,0.0,55.0,55.0,55.0,1.0,2238481198-19821.jpg,2901952513-70703.jpg,A2R2ZA0STNZX9S_2022-10-02_09h07.42.628.csv
416,1.0,right,left,0.0,2.607,0.0,56.0,56.0,56.0,1.0,2898633421-291974.jpg,2592380177-354629.jpg,A2R2ZA0STNZX9S_2022-10-02_09h07.42.628.csv
417,3.0,left,right,0.0,1.519,0.0,57.0,57.0,57.0,1.0,2964216465-219242.jpg,2898619327-366362.jpg,A2R2ZA0STNZX9S_2022-10-02_09h07.42.628.csv
418,2.0,right,right,1.0,1.362,0.0,58.0,58.0,58.0,1.0,2984615361-295509.jpg,2238428357-313623.jpg,A2R2ZA0STNZX9S_2022-10-02_09h07.42.628.csv
419,2.0,right,right,1.0,2.028,0.0,59.0,59.0,59.0,1.0,2238563377-332054.jpg,2874303365-214262.jpg,A2R2ZA0STNZX9S_2022-10-02_09h07.42.628.csv
420,2.0,left,left,1.0,3.745,0.0,0.0,0.0,0.0,1.0,2449442529-124445.jpg,2986408373-73286.jpg,A34LSCB90T5KYE_2022-10-02_09h50.31.623.csv
421,2.0,left,left,1.0,2.2014,0.0,1.0,1.0,1.0,1.0,2898624426-291546.jpg,2981236443-71859.jpg,A34LSCB90T5KYE_2022-10-02_09h50.31.623.csv
422,2.0,left,left,1.0,1.3818,0.0,2.0,2.0,2.0,1.0,2898617468-68274.jpg,2901943387-368037.jpg,A34LSCB90T5KYE_2022-10-02_09h50.31.623.csv
423,3.0,right,right,1.0,1.0503,0.0,3.0,3.0,3.0,1.0,2981231446-294732.jpg,2964218374-144967.jpg,A34LSCB90T5KYE_2022-10-02_09h50.31.623.csv
424,3.0,right,right,1.0,2.0765,0.0,4.0,4.0,4.0,1.0,2901948383-70363.jpg,2868474407-362883.jpg,A34LSCB90T5KYE_2022-10-02_09h50.31.623.csv
425,1.0,left,right,0.0,2.4001,0.0,5.0,5.0,5.0,1.0,2901941401-292798.jpg,2898618327-366317.jpg,A34LSCB90T5KYE_2022-10-02_09h50.31.623.csv
426,1.0,left,left,1.0,2.188,0.0,6.0,6.0,6.0,1.0,2964216465-219242.jpg,2238544191-252422.jpg,A34LSCB90T5KYE_2022-10-02_09h50.31.623.csv
427,2.0,left,left,1.0,1.3431,0.0,7.0,7.0,7.0,1.0,2592379964-131054.jpg,2238479053-19457.jpg,A34LSCB90T5KYE_2022-10-02_09h50.31.623.csv
428,2.0,right,right,1.0,1.6031,0.0,8.0,8.0,8.0,1.0,2868479517-363220.jpg,2898635427-367120.jpg,A34LSCB90T5KYE_2022-10-02_09h50.31.623.csv
429,1.0,left,left,1.0,1.5337,0.0,9.0,9.0,9.0,1.0,2981231403-71642.jpg,2579432519-130698.jpg,A34LSCB90T5KYE_2022-10-02_09h50.31.623.csv
430,3.0,right,left,0.0,1.3859,0.0,10.0,10.0,10.0,1.0,2898628438-68785.jpg,2964223381-294447.jpg,A34LSCB90T5KYE_2022-10-02_09h50.31.623.csv
431,2.0,right,right,1.0,1.172,0.0,11.0,11.0,11.0,1.0,2868487415-213924.jpg,2460547467-349422.jpg,A34LSCB90T5KYE_2022-10-02_09h50.31.623.csv
432,3.0,left,right,0.0,1.4934,0.0,12.0,12.0,12.0,1.0,2238572663-35822.jpg,2864903351-286874.jpg,A34LSCB90T5KYE_2022-10-02_09h50.31.623.csv
433,3.0,left,right,0.0,1.8624,0.0,13.0,13.0,13.0,1.0,2901939379-143480.jpg,2898632385-217139.jpg,A34LSCB90T5KYE_2022-10-02_09h50.31.623.csv
434,2.0,right,right,1.0,0.9892,0.0,14.0,14.0,14.0,1.0,2575120738-55528.jpg,2575120738-55529.jpg,A34LSCB90T5KYE_2022-10-02_09h50.31.623.csv
435,1.0,left,left,1.0,2.0752,0.0,15.0,15.0,15.0,1.0,2238425482-313537.jpg,2238471391-240918.jpg,A34LSCB90T5KYE_2022-10-02_09h50.31.623.csv
436,3.0,right,left,0.0,1.3792,0.0,16.0,16.0,16.0,1.0,2981240427-370099.jpg,2964222378-71332.jpg,A34LSCB90T5KYE_2022-10-02_09h50.31.623.csv
437,1.0,right,right,1.0,1.3238,0.0,17.0,17.0,17.0,1.0,2460547467-349423.jpg,2901939379-143479.jpg,A34LSCB90T5KYE_2022-10-02_09h50.31.623.csv
438,3.0,left,left,1.0,0.9958,0.0,18.0,18.0,18.0,1.0,2452380832-348593.jpg,2237858942-299356.jpg,A34LSCB90T5KYE_2022-10-02_09h50.31.623.csv
439,2.0,right,right,1.0,1.4311,0.0,19.0,19.0,19.0,1.0,2460547536-274181.jpg,2449442529-124446.jpg,A34LSCB90T5KYE_2022-10-02_09h50.31.623.csv
440,3.0,left,left,1.0,1.4364,0.0,20.0,20.0,20.0,1.0,2592380177-354629.jpg,2512875587-350044.jpg,A34LSCB90T5KYE_2022-10-02_09h50.31.623.csv
441,3.0,left,right,0.0,1.5195,0.0,21.0,21.0,21.0,1.0,2446758985-197609.jpg,2898624426-291544.jpg,A34LSCB90T5KYE_2022-10-02_09h50.31.623.csv
442,2.0,left,left,1.0,1.0618,0.0,22.0,22.0,22.0,1.0,2883268471-290842.jpg,2883255450-215310.jpg,A34LSCB90T5KYE_2022-10-02_09h50.31.623.csv
443,1.0,left,right,0.0,3.2402,0.0,23.0,23.0,23.0,1.0,2874302418-65979.jpg,2237857458-1325.jpg,A34LSCB90T5KYE_2022-10-02_09h50.31.623.csv
444,3.0,right,right,1.0,0.9531,0.0,24.0,24.0,24.0,1.0,2898633321-291943.jpg,2874302418-65978.jpg,A34LSCB90T5KYE_2022-10-02_09h50.31.623.csv
445,2.0,right,right,1.0,1.1765,0.0,25.0,25.0,25.0,1.0,2901943411-292945.jpg,2898635428-69104.jpg,A34LSCB90T5KYE_2022-10-02_09h50.31.623.csv
446,1.0,right,right,1.0,2.1204,0.0,26.0,26.0,26.0,1.0,2898626385-216899.jpg,2986451363-73599.jpg,A34LSCB90T5KYE_2022-10-02_09h50.31.623.csv
447,3.0,left,right,0.0,1.222,0.0,27.0,27.0,27.0,1.0,2986451363-73598.jpg,2901942443-69925.jpg,A34LSCB90T5KYE_2022-10-02_09h50.31.623.csv
448,3.0,left,left,1.0,1.78,0.0,28.0,28.0,28.0,1.0,2981241414-145842.jpg,2427873848-47312.jpg,A34LSCB90T5KYE_2022-10-02_09h50.31.623.csv
449,2.0,right,left,0.0,1.9513,0.0,29.0,29.0,29.0,1.0,2874314526-289684.jpg,2238560245-182099.jpg,A34LSCB90T5KYE_2022-10-02_09h50.31.623.csv
450,3.0,right,right,1.0,1.6351,0.0,30.0,30.0,30.0,1.0,2238480278-19661.jpg,2238480677-317399.jpg,A34LSCB90T5KYE_2022-10-02_09h50.31.623.csv
451,1.0,right,right,1.0,0.8851,0.0,31.0,31.0,31.0,1.0,2981244394-145974.jpg,2964213381-294060.jpg,A34LSCB90T5KYE_2022-10-02_09h50.31.623.csv
452,2.0,right,left,0.0,2.1815,0.0,32.0,32.0,32.0,1.0,2981244403-72215.jpg,2874299429-139694.jpg,A34LSCB90T5KYE_2022-10-02_09h50.31.623.csv
453,2.0,right,left,0.0,1.2015,0.0,33.0,33.0,33.0,1.0,2460547508-51572.jpg,2883273443-68193.jpg,A34LSCB90T5KYE_2022-10-02_09h50.31.623.csv
454,1.0,left,right,0.0,0.9689,0.0,34.0,34.0,34.0,1.0,2460547508-51571.jpg,2452380166-273109.jpg,A34LSCB90T5KYE_2022-10-02_09h50.31.623.csv
455,3.0,right,right,1.0,1.5244,0.0,35.0,35.0,35.0,1.0,2238577590-185467.jpg,2901947423-70311.jpg,A34LSCB90T5KYE_2022-10-02_09h50.31.623.csv
456,1.0,right,left,0.0,2.0916,0.0,36.0,36.0,36.0,1.0,2984615358-72439.jpg,2874307433-66280.jpg,A34LSCB90T5KYE_2022-10-02_09h50.31.623.csv
457,2.0,left,left,1.0,1.0622,0.0,37.0,37.0,37.0,1.0,2238481928-19949.jpg,2864900357-361688.jpg,A34LSCB90T5KYE_2022-10-02_09h50.31.623.csv
458,3.0,right,left,0.0,2.3155,0.0,38.0,38.0,38.0,1.0,2964217461-294238.jpg,2898634397-367080.jpg,A34LSCB90T5KYE_2022-10-02_09h50.31.623.csv
459,1.0,left,left,1.0,1.5547,0.0,39.0,39.0,39.0,1.0,2874303365-214262.jpg,2274829821-263682.jpg,A34LSCB90T5KYE_2022-10-02_09h50.31.623.csv
460,2.0,right,right,1.0,0.9082,0.0,40.0,40.0,40.0,1.0,2901942443-69923.jpg,2874299429-139695.jpg,A34LSCB90T5KYE_2022-10-02_09h50.31.623.csv
461,3.0,left,right,0.0,1.4275,0.0,41.0,41.0,41.0,1.0,2883256307-365057.jpg,2864904453-63933.jpg,A34LSCB90T5KYE_2022-10-02_09h50.31.623.csv
462,2.0,left,right,0.0,1.0193,0.0,42.0,42.0,42.0,1.0,2898618390-216538.jpg,2901939327-367670.jpg,A34LSCB90T5KYE_2022-10-02_09h50.31.623.csv
463,1.0,left,left,1.0,1.2394,0.0,43.0,43.0,43.0,1.0,2592380177-354626.jpg,2238576792-334659.jpg,A34LSCB90T5KYE_2022-10-02_09h50.31.623.csv
464,3.0,left,left,1.0,1.4081,0.0,44.0,44.0,44.0,1.0,2898618444-142233.jpg,2898618444-142232.jpg,A34LSCB90T5KYE_2022-10-02_09h50.31.623.csv
465,1.0,right,right,1.0,1.5571,0.0,45.0,45.0,45.0,1.0,2446760601-272099.jpg,2446759803-49249.jpg,A34LSCB90T5KYE_2022-10-02_09h50.31.623.csv
466,1.0,right,right,1.0,1.1407,0.0,46.0,46.0,46.0,1.0,2864901420-212147.jpg,2864907432-362042.jpg,A34LSCB90T5KYE_2022-10-02_09h50.31.623.csv
467,3.0,left,left,1.0,1.0058,0.0,47.0,47.0,47.0,1.0,2238428357-313623.jpg,2986408339-146952.jpg,A34LSCB90T5KYE_2022-10-02_09h50.31.623.csv
468,1.0,left,left,1.0,1.2246,0.0,48.0,48.0,48.0,1.0,2460547467-349421.jpg,2898631394-142727.jpg,A34LSCB90T5KYE_2022-10-02_09h50.31.623.csv
469,1.0,right,right,1.0,1.2929,0.0,49.0,49.0,49.0,1.0,2864902304-137862.jpg,2864910426-287204.jpg,A34LSCB90T5KYE_2022-10-02_09h50.31.623.csv
470,3.0,left,left,1.0,1.6853,0.0,50.0,50.0,50.0,1.0,2868475410-213219.jpg,2868474407-362885.jpg,A34LSCB90T5KYE_2022-10-02_09h50.31.623.csv
471,2.0,left,left,1.0,0.8309,0.0,51.0,51.0,51.0,1.0,2238481198-19822.jpg,2901946436-293242.jpg,A34LSCB90T5KYE_2022-10-02_09h50.31.623.csv
472,1.0,left,right,0.0,2.0973,0.0,52.0,52.0,52.0,1.0,2512875899-126682.jpg,2460547536-274179.jpg,A34LSCB90T5KYE_2022-10-02_09h50.31.623.csv
473,1.0,right,right,1.0,1.3085,0.0,53.0,53.0,53.0,1.0,2238480434-93829.jpg,2458347385-199723.jpg,A34LSCB90T5KYE_2022-10-02_09h50.31.623.csv
474,2.0,left,left,1.0,1.412,0.0,54.0,54.0,54.0,1.0,2901952513-70703.jpg,2868469411-287540.jpg,A34LSCB90T5KYE_2022-10-02_09h50.31.623.csv
475,2.0,right,left,0.0,0.8273,0.0,55.0,55.0,55.0,1.0,2898632385-217138.jpg,2452381505-199546.jpg,A34LSCB90T5KYE_2022-10-02_09h50.31.623.csv
476,2.0,right,left,0.0,1.3211,0.0,56.0,56.0,56.0,1.0,2984615361-295510.jpg,2883268412-365898.jpg,A34LSCB90T5KYE_2022-10-02_09h50.31.623.csv
477,1.0,left,left,1.0,1.1214,0.0,57.0,57.0,57.0,1.0,2898633421-291973.jpg,2512876023-52283.jpg,A34LSCB90T5KYE_2022-10-02_09h50.31.623.csv
478,1.0,right,right,1.0,1.4591,0.0,58.0,58.0,58.0,1.0,2238550816-254000.jpg,2238580740-186218.jpg,A34LSCB90T5KYE_2022-10-02_09h50.31.623.csv
479,3.0,right,left,0.0,1.8147,0.0,59.0,59.0,59.0,1.0,2901947323-70275.jpg,2874301407-363895.jpg,A34LSCB90T5KYE_2022-10-02_09h50.31.623.csv
480,3.0,right,right,1.0,1.6713,0.0,0.0,0.0,0.0,1.0,2901942443-69925.jpg,2986451363-73598.jpg,A3AU8PZ6HHBCVT_2022-10-02_07h24.05.812.csv
481,2.0,right,right,1.0,1.0571,0.0,1.0,1.0,1.0,1.0,2446759306-271734.jpg,2964218374-144967.jpg,A3AU8PZ6HHBCVT_2022-10-02_07h24.05.812.csv
482,2.0,right,right,1.0,1.6379,0.0,2.0,2.0,2.0,1.0,2981229442-369621.jpg,2901939379-143480.jpg,A3AU8PZ6HHBCVT_2022-10-02_07h24.05.812.csv
483,2.0,left,left,1.0,1.06,0.0,3.0,3.0,3.0,1.0,2460547508-51571.jpg,2981232437-369759.jpg,A3AU8PZ6HHBCVT_2022-10-02_07h24.05.812.csv
484,3.0,right,right,1.0,0.9047,0.0,4.0,4.0,4.0,1.0,2238550049-105691.jpg,2898633421-291973.jpg,A3AU8PZ6HHBCVT_2022-10-02_07h24.05.812.csv
485,1.0,right,left,0.0,1.4003,0.0,5.0,5.0,5.0,1.0,2238481630-168218.jpg,2238480677-317399.jpg,A3AU8PZ6HHBCVT_2022-10-02_07h24.05.812.csv
486,3.0,right,right,1.0,1.1874,0.0,6.0,6.0,6.0,1.0,2901951392-368654.jpg,2446759803-49249.jpg,A3AU8PZ6HHBCVT_2022-10-02_07h24.05.812.csv
487,2.0,right,left,0.0,2.064,0.0,7.0,7.0,7.0,1.0,2460547536-274181.jpg,2449442529-124446.jpg,A3AU8PZ6HHBCVT_2022-10-02_07h24.05.812.csv
488,3.0,right,left,0.0,1.3756,0.0,8.0,8.0,8.0,1.0,2458347252-348911.jpg,2458347385-199723.jpg,A3AU8PZ6HHBCVT_2022-10-02_07h24.05.812.csv
489,2.0,right,right,1.0,1.9842,0.0,9.0,9.0,9.0,1.0,2238480648-19714.jpg,2874302418-65979.jpg,A3AU8PZ6HHBCVT_2022-10-02_07h24.05.812.csv
490,3.0,right,right,1.0,1.6559,0.0,10.0,10.0,10.0,1.0,2898625336-291572.jpg,2898635428-69104.jpg,A3AU8PZ6HHBCVT_2022-10-02_07h24.05.812.csv
491,3.0,left,right,0.0,2.4728,0.0,11.0,11.0,11.0,1.0,2964223381-294447.jpg,2898628438-68785.jpg,A3AU8PZ6HHBCVT_2022-10-02_07h24.05.812.csv
492,3.0,left,left,1.0,1.1839,0.0,12.0,12.0,12.0,1.0,2592380177-354626.jpg,2238117096-228518.jpg,A3AU8PZ6HHBCVT_2022-10-02_07h24.05.812.csv
493,2.0,right,left,0.0,1.3467,0.0,13.0,13.0,13.0,1.0,2901943387-368037.jpg,2898617468-68274.jpg,A3AU8PZ6HHBCVT_2022-10-02_07h24.05.812.csv
494,3.0,left,left,1.0,2.7994,0.0,14.0,14.0,14.0,1.0,2238572663-35822.jpg,2864903351-286874.jpg,A3AU8PZ6HHBCVT_2022-10-02_07h24.05.812.csv
495,1.0,right,right,1.0,1.8583,0.0,15.0,15.0,15.0,1.0,2981244394-145974.jpg,2964213381-294060.jpg,A3AU8PZ6HHBCVT_2022-10-02_07h24.05.812.csv
496,2.0,right,left,0.0,3.3827,0.0,16.0,16.0,16.0,1.0,2238521193-26285.jpg,2238580740-186218.jpg,A3AU8PZ6HHBCVT_2022-10-02_07h24.05.812.csv
497,3.0,left,left,1.0,1.9514,0.0,17.0,17.0,17.0,1.0,2449442529-124445.jpg,2898632385-217137.jpg,A3AU8PZ6HHBCVT_2022-10-02_07h24.05.812.csv
498,3.0,right,left,0.0,4.1108,0.0,18.0,18.0,18.0,1.0,2964217461-294238.jpg,2898634397-367080.jpg,A3AU8PZ6HHBCVT_2022-10-02_07h24.05.812.csv
499,1.0,right,right,1.0,1.5826,0.0,19.0,19.0,19.0,1.0,2862691449-137104.jpg,2238481198-19822.jpg,A3AU8PZ6HHBCVT_2022-10-02_07h24.05.812.csv
500,1.0,right,right,1.0,0.9258,0.0,20.0,20.0,20.0,1.0,2238499057-320266.jpg,2238428357-313623.jpg,A3AU8PZ6HHBCVT_2022-10-02_07h24.05.812.csv
501,2.0,left,right,0.0,1.477,0.0,21.0,21.0,21.0,1.0,2868474407-362883.jpg,2981246400-220363.jpg,A3AU8PZ6HHBCVT_2022-10-02_07h24.05.812.csv
502,2.0,left,left,1.0,1.4102,0.0,22.0,22.0,22.0,1.0,2238481928-19949.jpg,2864900357-361688.jpg,A3AU8PZ6HHBCVT_2022-10-02_07h24.05.812.csv
503,1.0,left,left,1.0,2.4665,0.0,23.0,23.0,23.0,1.0,2592380177-354629.jpg,2898633421-291974.jpg,A3AU8PZ6HHBCVT_2022-10-02_07h24.05.812.csv
504,3.0,right,left,0.0,5.1208,0.0,24.0,24.0,24.0,1.0,2427873763-47290.jpg,2981231403-71642.jpg,A3AU8PZ6HHBCVT_2022-10-02_07h24.05.812.csv
505,1.0,right,right,1.0,3.8185,0.0,25.0,25.0,25.0,1.0,2592380255-205553.jpg,2238560245-182099.jpg,A3AU8PZ6HHBCVT_2022-10-02_07h24.05.812.csv
506,2.0,left,right,0.0,5.7,0.0,26.0,26.0,26.0,1.0,2883268412-365898.jpg,2984615361-295510.jpg,A3AU8PZ6HHBCVT_2022-10-02_07h24.05.812.csv
507,1.0,left,right,0.0,0.9111,0.0,27.0,27.0,27.0,1.0,2874299429-139695.jpg,2883266388-67750.jpg,A3AU8PZ6HHBCVT_2022-10-02_07h24.05.812.csv
508,1.0,left,right,0.0,1.6956,0.0,28.0,28.0,28.0,1.0,2981241414-145842.jpg,2238516618-25604.jpg,A3AU8PZ6HHBCVT_2022-10-02_07h24.05.812.csv
509,2.0,right,right,1.0,1.8757,0.0,29.0,29.0,29.0,1.0,2981236443-71859.jpg,2898624426-291546.jpg,A3AU8PZ6HHBCVT_2022-10-02_07h24.05.812.csv
510,1.0,left,right,0.0,1.8157,0.0,30.0,30.0,30.0,1.0,2452381505-199546.jpg,2901938432-367627.jpg,A3AU8PZ6HHBCVT_2022-10-02_07h24.05.812.csv
511,1.0,left,left,1.0,1.9301,0.0,31.0,31.0,31.0,1.0,2986451363-73599.jpg,2898626385-216899.jpg,A3AU8PZ6HHBCVT_2022-10-02_07h24.05.812.csv
512,3.0,right,right,1.0,1.7917,0.0,32.0,32.0,32.0,1.0,2981235446-294901.jpg,2460547467-349421.jpg,A3AU8PZ6HHBCVT_2022-10-02_07h24.05.812.csv
513,2.0,left,left,1.0,1.1628,0.0,33.0,33.0,33.0,1.0,2238425482-313537.jpg,2238436322-314047.jpg,A3AU8PZ6HHBCVT_2022-10-02_07h24.05.812.csv
514,3.0,left,left,1.0,1.2769,0.0,34.0,34.0,34.0,1.0,2874302418-65978.jpg,2898633321-291943.jpg,A3AU8PZ6HHBCVT_2022-10-02_07h24.05.812.csv
515,1.0,left,left,1.0,1.8531,0.0,35.0,35.0,35.0,1.0,2901947423-70311.jpg,2860312398-62572.jpg,A3AU8PZ6HHBCVT_2022-10-02_07h24.05.812.csv
516,3.0,left,left,1.0,1.4227,0.0,36.0,36.0,36.0,1.0,2901952513-70703.jpg,2238481198-19821.jpg,A3AU8PZ6HHBCVT_2022-10-02_07h24.05.812.csv
517,1.0,right,left,0.0,4.5642,0.0,37.0,37.0,37.0,1.0,2460547467-349423.jpg,2901939379-143479.jpg,A3AU8PZ6HHBCVT_2022-10-02_07h24.05.812.csv
518,1.0,left,left,1.0,1.3395,0.0,38.0,38.0,38.0,1.0,2964222378-71332.jpg,2981240424-145794.jpg,A3AU8PZ6HHBCVT_2022-10-02_07h24.05.812.csv
519,1.0,right,right,1.0,2.648,0.0,39.0,39.0,39.0,1.0,2575963989-130576.jpg,2592379964-131054.jpg,A3AU8PZ6HHBCVT_2022-10-02_07h24.05.812.csv
520,1.0,right,left,0.0,1.2308,0.0,40.0,40.0,40.0,1.0,2964221435-219434.jpg,2898635427-367120.jpg,A3AU8PZ6HHBCVT_2022-10-02_07h24.05.812.csv
521,2.0,left,left,1.0,2.5114,0.0,41.0,41.0,41.0,1.0,2874303365-214262.jpg,2238563377-332054.jpg,A3AU8PZ6HHBCVT_2022-10-02_07h24.05.812.csv
522,3.0,right,right,1.0,1.3581,0.0,42.0,42.0,42.0,1.0,2898631468-68931.jpg,2901941401-292798.jpg,A3AU8PZ6HHBCVT_2022-10-02_07h24.05.812.csv
523,1.0,left,left,1.0,3.9716,0.0,43.0,43.0,43.0,1.0,2883273443-68193.jpg,2883254439-140940.jpg,A3AU8PZ6HHBCVT_2022-10-02_07h24.05.812.csv
524,2.0,left,left,1.0,1.4364,0.0,44.0,44.0,44.0,1.0,2874301407-363895.jpg,2986397322-371109.jpg,A3AU8PZ6HHBCVT_2022-10-02_07h24.05.812.csv
525,2.0,left,left,1.0,1.9167,0.0,45.0,45.0,45.0,1.0,2898618444-142233.jpg,2238555262-330312.jpg,A3AU8PZ6HHBCVT_2022-10-02_07h24.05.812.csv
526,3.0,left,right,0.0,1.2947,0.0,46.0,46.0,46.0,1.0,2964216465-219242.jpg,2898619327-366362.jpg,A3AU8PZ6HHBCVT_2022-10-02_07h24.05.812.csv
527,2.0,left,left,1.0,3.5447,0.0,47.0,47.0,47.0,1.0,2452380832-348593.jpg,2238481813-19930.jpg,A3AU8PZ6HHBCVT_2022-10-02_07h24.05.812.csv
528,3.0,right,right,1.0,0.8765,0.0,48.0,48.0,48.0,1.0,2868474407-362885.jpg,2868475410-213219.jpg,A3AU8PZ6HHBCVT_2022-10-02_07h24.05.812.csv
529,2.0,left,right,0.0,0.8875,0.0,49.0,49.0,49.0,1.0,2874299429-139694.jpg,2981244403-72215.jpg,A3AU8PZ6HHBCVT_2022-10-02_07h24.05.812.csv
530,3.0,right,left,0.0,2.0725,0.0,50.0,50.0,50.0,1.0,2864909447-362146.jpg,2460547467-349422.jpg,A3AU8PZ6HHBCVT_2022-10-02_07h24.05.812.csv
531,3.0,left,right,0.0,1.1111,0.0,51.0,51.0,51.0,1.0,2575120738-55529.jpg,2238531493-28260.jpg,A3AU8PZ6HHBCVT_2022-10-02_07h24.05.812.csv
532,3.0,right,right,1.0,1.7095,0.0,52.0,52.0,52.0,1.0,2864904453-63933.jpg,2883256307-365057.jpg,A3AU8PZ6HHBCVT_2022-10-02_07h24.05.812.csv
533,1.0,right,right,1.0,4.3781,0.0,53.0,53.0,53.0,1.0,2864901420-212147.jpg,2864907432-362042.jpg,A3AU8PZ6HHBCVT_2022-10-02_07h24.05.812.csv
534,1.0,left,right,0.0,1.385,0.0,54.0,54.0,54.0,1.0,2512875899-126682.jpg,2460547536-274179.jpg,A3AU8PZ6HHBCVT_2022-10-02_07h24.05.812.csv
535,1.0,right,right,1.0,1.2972,0.0,55.0,55.0,55.0,1.0,2883268471-290843.jpg,2883268471-290842.jpg,A3AU8PZ6HHBCVT_2022-10-02_07h24.05.812.csv
536,1.0,right,left,0.0,1.1263,0.0,56.0,56.0,56.0,1.0,2864902304-137862.jpg,2864910426-287204.jpg,A3AU8PZ6HHBCVT_2022-10-02_07h24.05.812.csv
537,2.0,right,left,0.0,1.885,0.0,57.0,57.0,57.0,1.0,2901939327-367670.jpg,2898618390-216538.jpg,A3AU8PZ6HHBCVT_2022-10-02_07h24.05.812.csv
538,2.0,left,right,0.0,2.0489,0.0,58.0,58.0,58.0,1.0,2446758985-197609.jpg,2864909447-362144.jpg,A3AU8PZ6HHBCVT_2022-10-02_07h24.05.812.csv
539,2.0,left,left,1.0,4.3864,0.0,59.0,59.0,59.0,1.0,2874307433-66280.jpg,2981246400-220365.jpg,A3AU8PZ6HHBCVT_2022-10-02_07h24.05.812.csv
540,3.0,left,right,0.0,3.344,0.0,0.0,0.0,0.0,1.0,2874307433-66280.jpg,2981231422-369714.jpg,AK52RXEJKR81A_2022-10-02_09h03.39.525.csv
541,2.0,left,left,1.0,1.968599999,0.0,1.0,1.0,1.0,1.0,2986451363-73598.jpg,2984628361-295995.jpg,AK52RXEJKR81A_2022-10-02_09h03.39.525.csv
542,2.0,left,right,0.0,3.524599999,0.0,2.0,2.0,2.0,1.0,2883256307-365057.jpg,2964210336-293945.jpg,AK52RXEJKR81A_2022-10-02_09h03.39.525.csv
543,2.0,left,right,0.0,1.8757,0.0,3.0,3.0,3.0,1.0,2864907432-362042.jpg,2901947423-70310.jpg,AK52RXEJKR81A_2022-10-02_09h03.39.525.csv
544,3.0,right,right,1.0,4.016700001,0.0,4.0,4.0,4.0,1.0,2898619327-366362.jpg,2964216465-219242.jpg,AK52RXEJKR81A_2022-10-02_09h03.39.525.csv
545,3.0,left,left,1.0,1.8813,0.0,5.0,5.0,5.0,1.0,2460547467-349422.jpg,2864909447-362146.jpg,AK52RXEJKR81A_2022-10-02_09h03.39.525.csv
546,2.0,right,left,0.0,2.4331,0.0,6.0,6.0,6.0,1.0,2901941438-69836.jpg,2964223381-294447.jpg,AK52RXEJKR81A_2022-10-02_09h03.39.525.csv
547,2.0,right,right,1.0,2.3522,0.0,7.0,7.0,7.0,1.0,2238436322-314047.jpg,2238425482-313537.jpg,AK52RXEJKR81A_2022-10-02_09h03.39.525.csv
548,2.0,right,right,1.0,1.6812,0.0,8.0,8.0,8.0,1.0,2238481813-19930.jpg,2452380832-348593.jpg,AK52RXEJKR81A_2022-10-02_09h03.39.525.csv
549,3.0,right,right,1.0,1.5953,0.0,9.0,9.0,9.0,1.0,2512875587-350044.jpg,2592380177-354629.jpg,AK52RXEJKR81A_2022-10-02_09h03.39.525.csv
550,2.0,left,left,1.0,2.616799999,0.0,10.0,10.0,10.0,1.0,2512875899-126682.jpg,2592380177-354628.jpg,AK52RXEJKR81A_2022-10-02_09h03.39.525.csv
551,2.0,left,left,1.0,2.062099999,0.0,11.0,11.0,11.0,1.0,2901952513-70703.jpg,2868469411-287540.jpg,AK52RXEJKR81A_2022-10-02_09h03.39.525.csv
552,1.0,left,left,1.0,1.594,0.0,12.0,12.0,12.0,1.0,2238428357-313623.jpg,2238499057-320266.jpg,AK52RXEJKR81A_2022-10-02_09h03.39.525.csv
553,1.0,right,left,0.0,2.707400001,0.0,13.0,13.0,13.0,1.0,2898631359-142721.jpg,2898618444-142233.jpg,AK52RXEJKR81A_2022-10-02_09h03.39.525.csv
554,3.0,left,left,1.0,2.3417,0.0,14.0,14.0,14.0,1.0,2874299429-139695.jpg,2446760917-347439.jpg,AK52RXEJKR81A_2022-10-02_09h03.39.525.csv
555,2.0,right,right,1.0,2.623599999,0.0,15.0,15.0,15.0,1.0,2981229442-369621.jpg,2901939379-143480.jpg,AK52RXEJKR81A_2022-10-02_09h03.39.525.csv
556,1.0,right,right,1.0,1.8321,0.0,16.0,16.0,16.0,1.0,2964218432-369263.jpg,2898624426-291546.jpg,AK52RXEJKR81A_2022-10-02_09h03.39.525.csv
557,3.0,right,right,1.0,1.4111,0.0,17.0,17.0,17.0,1.0,2575120609-129862.jpg,2898618390-216538.jpg,AK52RXEJKR81A_2022-10-02_09h03.39.525.csv
558,1.0,right,right,1.0,1.4053,0.0,18.0,18.0,18.0,1.0,2901946439-144040.jpg,2898617468-68274.jpg,AK52RXEJKR81A_2022-10-02_09h03.39.525.csv
559,3.0,left,left,1.0,3.7385,0.0,19.0,19.0,19.0,1.0,2238481198-19822.jpg,2238480803-19737.jpg,AK52RXEJKR81A_2022-10-02_09h03.39.525.csv
560,2.0,left,left,1.0,2.0407,0.0,20.0,20.0,20.0,1.0,2901939379-143479.jpg,2446758985-197610.jpg,AK52RXEJKR81A_2022-10-02_09h03.39.525.csv
561,2.0,left,left,1.0,3.462,0.0,21.0,21.0,21.0,1.0,2901947423-70311.jpg,2238573447-333826.jpg,AK52RXEJKR81A_2022-10-02_09h03.39.525.csv
562,1.0,left,left,1.0,4.8627,0.0,22.0,22.0,22.0,1.0,2238560245-182099.jpg,2592380255-205553.jpg,AK52RXEJKR81A_2022-10-02_09h03.39.525.csv
563,1.0,left,right,0.0,6.0452,0.0,23.0,23.0,23.0,1.0,2238481928-19949.jpg,2883264367-365620.jpg,AK52RXEJKR81A_2022-10-02_09h03.39.525.csv
564,2.0,right,right,1.0,1.598400001,0.0,24.0,24.0,24.0,1.0,2860302315-210704.jpg,2986451363-73599.jpg,AK52RXEJKR81A_2022-10-02_09h03.39.525.csv
565,3.0,right,right,1.0,3.3848,0.0,25.0,25.0,25.0,1.0,2901947323-70275.jpg,2874301407-363895.jpg,AK52RXEJKR81A_2022-10-02_09h03.39.525.csv
566,1.0,right,right,1.0,4.7727,0.0,26.0,26.0,26.0,1.0,2981240424-145795.jpg,2446758985-197609.jpg,AK52RXEJKR81A_2022-10-02_09h03.39.525.csv
567,1.0,left,right,0.0,2.3396,0.0,27.0,27.0,27.0,1.0,2883273443-68193.jpg,2883254439-140940.jpg,AK52RXEJKR81A_2022-10-02_09h03.39.525.csv
568,2.0,right,left,0.0,1.8553,0.0,28.0,28.0,28.0,1.0,2898632385-217138.jpg,2452381505-199546.jpg,AK52RXEJKR81A_2022-10-02_09h03.39.525.csv
569,3.0,right,right,1.0,2.5887,0.0,29.0,29.0,29.0,1.0,2592380272-354673.jpg,2592379964-131054.jpg,AK52RXEJKR81A_2022-10-02_09h03.39.525.csv
570,3.0,right,right,1.0,1.3168,0.0,30.0,30.0,30.0,1.0,2898621427-366486.jpg,2898635427-367120.jpg,AK52RXEJKR81A_2022-10-02_09h03.39.525.csv
571,2.0,right,left,0.0,2.7196,0.0,31.0,31.0,31.0,1.0,2238521193-26285.jpg,2238580740-186218.jpg,AK52RXEJKR81A_2022-10-02_09h03.39.525.csv
572,1.0,right,right,1.0,1.596200001,0.0,32.0,32.0,32.0,1.0,2238576792-334659.jpg,2592380177-354626.jpg,AK52RXEJKR81A_2022-10-02_09h03.39.525.csv
573,1.0,left,left,1.0,4.492599999,0.0,33.0,33.0,33.0,1.0,2874302418-65978.jpg,2964224310-219528.jpg,AK52RXEJKR81A_2022-10-02_09h03.39.525.csv
574,1.0,right,right,1.0,1.312799999,0.0,34.0,34.0,34.0,1.0,2460547732-349518.jpg,2868474407-362883.jpg,AK52RXEJKR81A_2022-10-02_09h03.39.525.csv
575,3.0,right,left,0.0,3.0876,0.0,35.0,35.0,35.0,1.0,2901947448-70314.jpg,2883268471-290842.jpg,AK52RXEJKR81A_2022-10-02_09h03.39.525.csv
576,3.0,left,right,0.0,2.6208,0.0,36.0,36.0,36.0,1.0,2964218374-144967.jpg,2981231446-294732.jpg,AK52RXEJKR81A_2022-10-02_09h03.39.525.csv
577,2.0,left,left,1.0,2.1526,0.0,37.0,37.0,37.0,1.0,2981241414-145842.jpg,2874301404-139813.jpg,AK52RXEJKR81A_2022-10-02_09h03.39.525.csv
578,2.0,right,left,0.0,1.756599999,0.0,38.0,38.0,38.0,1.0,2901934408-69289.jpg,2898634397-367080.jpg,AK52RXEJKR81A_2022-10-02_09h03.39.525.csv
579,2.0,left,left,1.0,4.2059,0.0,39.0,39.0,39.0,1.0,2874299429-139694.jpg,2981244403-72215.jpg,AK52RXEJKR81A_2022-10-02_09h03.39.525.csv
580,3.0,right,left,0.0,1.778,0.0,40.0,40.0,40.0,1.0,2238531493-28260.jpg,2575120738-55529.jpg,AK52RXEJKR81A_2022-10-02_09h03.39.525.csv
581,1.0,left,left,1.0,2.4403,0.0,41.0,41.0,41.0,1.0,2981231403-71642.jpg,2579432519-130698.jpg,AK52RXEJKR81A_2022-10-02_09h03.39.525.csv
582,2.0,right,right,1.0,1.689099999,0.0,42.0,42.0,42.0,1.0,2901933382-367209.jpg,2964222378-71332.jpg,AK52RXEJKR81A_2022-10-02_09h03.39.525.csv
583,3.0,left,left,1.0,1.4075,0.0,43.0,43.0,43.0,1.0,2446759803-49249.jpg,2901951392-368654.jpg,AK52RXEJKR81A_2022-10-02_09h03.39.525.csv
584,3.0,right,right,1.0,1.5022,0.0,44.0,44.0,44.0,1.0,2238578544-111698.jpg,2874302418-65979.jpg,AK52RXEJKR81A_2022-10-02_09h03.39.525.csv
585,2.0,left,left,1.0,1.7844,0.0,45.0,45.0,45.0,1.0,2458347385-199723.jpg,2427874554-121863.jpg,AK52RXEJKR81A_2022-10-02_09h03.39.525.csv
586,1.0,left,left,1.0,1.3132,0.0,46.0,46.0,46.0,1.0,2898633421-291973.jpg,2512876023-52283.jpg,AK52RXEJKR81A_2022-10-02_09h03.39.525.csv
587,1.0,right,left,0.0,1.598099999,0.0,47.0,47.0,47.0,1.0,2452380166-273109.jpg,2460547508-51571.jpg,AK52RXEJKR81A_2022-10-02_09h03.39.525.csv
588,2.0,left,left,1.0,1.314,0.0,48.0,48.0,48.0,1.0,2874303365-214262.jpg,2238563377-332054.jpg,AK52RXEJKR81A_2022-10-02_09h03.39.525.csv
589,3.0,right,left,0.0,1.691900001,0.0,49.0,49.0,49.0,1.0,2868474407-362885.jpg,2868475410-213219.jpg,AK52RXEJKR81A_2022-10-02_09h03.39.525.csv
590,1.0,right,left,0.0,1.5993,0.0,50.0,50.0,50.0,1.0,2446759803-49251.jpg,2449442529-124446.jpg,AK52RXEJKR81A_2022-10-02_09h03.39.525.csv
591,3.0,left,left,1.0,1.7795,0.0,51.0,51.0,51.0,1.0,2864910426-287204.jpg,2901939433-69672.jpg,AK52RXEJKR81A_2022-10-02_09h03.39.525.csv
592,3.0,right,right,1.0,1.409099999,0.0,52.0,52.0,52.0,1.0,2864903351-286874.jpg,2238572663-35822.jpg,AK52RXEJKR81A_2022-10-02_09h03.39.525.csv
593,1.0,right,right,1.0,2.0633,0.0,53.0,53.0,53.0,1.0,2984626312-370849.jpg,2883268412-365898.jpg,AK52RXEJKR81A_2022-10-02_09h03.39.525.csv
594,3.0,right,left,0.0,1.595,0.0,54.0,54.0,54.0,1.0,2898632385-217137.jpg,2449442529-124445.jpg,AK52RXEJKR81A_2022-10-02_09h03.39.525.csv
595,1.0,left,left,1.0,1.8525,0.0,55.0,55.0,55.0,1.0,2238480677-317399.jpg,2238481630-168218.jpg,AK52RXEJKR81A_2022-10-02_09h03.39.525.csv
596,1.0,left,left,1.0,1.4983,0.0,56.0,56.0,56.0,1.0,2898635428-69104.jpg,2446759803-49250.jpg,AK52RXEJKR81A_2022-10-02_09h03.39.525.csv
597,1.0,left,left,1.0,1.3153,0.0,57.0,57.0,57.0,1.0,2460547467-349421.jpg,2898631394-142727.jpg,AK52RXEJKR81A_2022-10-02_09h03.39.525.csv
598,3.0,right,right,1.0,1.4153,0.0,58.0,58.0,58.0,1.0,2964213381-294061.jpg,2964213381-294060.jpg,AK52RXEJKR81A_2022-10-02_09h03.39.525.csv
599,1.0,right,left,0.0,1.8549,0.0,59.0,59.0,59.0,1.0,2898618327-366317.jpg,2901941401-292798.jpg,AK52RXEJKR81A_2022-10-02_09h03.39.525.csv
600,1.0,left,left,1.0,3.148,0.0,0.0,0.0,0.0,1.0,2898635427-367120.jpg,2964221435-219434.jpg,A19NX9CQGX6XI8_2022-10-02_10h26.21.843.csv
601,1.0,left,left,1.0,1.180599999,0.0,1.0,1.0,1.0,1.0,2986451363-73599.jpg,2898626385-216899.jpg,A19NX9CQGX6XI8_2022-10-02_10h26.21.843.csv
602,3.0,left,left,1.0,1.5826,0.0,2.0,2.0,2.0,1.0,2874299429-139695.jpg,2446760917-347439.jpg,A19NX9CQGX6XI8_2022-10-02_10h26.21.843.csv
603,1.0,right,left,0.0,1.3545,0.0,3.0,3.0,3.0,1.0,2238328478-11678.jpg,2452380832-348593.jpg,A19NX9CQGX6XI8_2022-10-02_10h26.21.843.csv
604,2.0,left,right,0.0,1.1821,0.0,4.0,4.0,4.0,1.0,2238481928-19949.jpg,2864900357-361688.jpg,A19NX9CQGX6XI8_2022-10-02_10h26.21.843.csv
605,3.0,right,right,1.0,1.0864,0.0,5.0,5.0,5.0,1.0,2901939433-69672.jpg,2864910426-287204.jpg,A19NX9CQGX6XI8_2022-10-02_10h26.21.843.csv
606,2.0,left,left,1.0,1.097,0.0,6.0,6.0,6.0,1.0,2446758985-197609.jpg,2864909447-362144.jpg,A19NX9CQGX6XI8_2022-10-02_10h26.21.843.csv
607,1.0,left,left,1.0,1.083,0.0,7.0,7.0,7.0,1.0,2964216465-219242.jpg,2238544191-252422.jpg,A19NX9CQGX6XI8_2022-10-02_10h26.21.843.csv
608,1.0,right,left,0.0,1.1932,0.0,8.0,8.0,8.0,1.0,2446761374-124213.jpg,2874301407-363895.jpg,A19NX9CQGX6XI8_2022-10-02_10h26.21.843.csv
609,2.0,left,left,1.0,0.987400001,0.0,9.0,9.0,9.0,1.0,2460547467-349422.jpg,2868487415-213924.jpg,A19NX9CQGX6XI8_2022-10-02_10h26.21.843.csv
610,3.0,right,right,1.0,0.992599999,0.0,10.0,10.0,10.0,1.0,2883266367-365742.jpg,2874299429-139694.jpg,A19NX9CQGX6XI8_2022-10-02_10h26.21.843.csv
611,3.0,left,right,0.0,1.0908,0.0,11.0,11.0,11.0,1.0,2238480677-317399.jpg,2238480278-19661.jpg,A19NX9CQGX6XI8_2022-10-02_10h26.21.843.csv
612,1.0,left,left,1.0,1.1822,0.0,12.0,12.0,12.0,1.0,2449442529-124446.jpg,2446759803-49251.jpg,A19NX9CQGX6XI8_2022-10-02_10h26.21.843.csv
613,3.0,right,left,0.0,1.383,0.0,13.0,13.0,13.0,1.0,2981240427-370099.jpg,2964222378-71332.jpg,A19NX9CQGX6XI8_2022-10-02_10h26.21.843.csv
614,1.0,right,left,0.0,1.059400001,0.0,14.0,14.0,14.0,1.0,2901938432-367627.jpg,2452381505-199546.jpg,A19NX9CQGX6XI8_2022-10-02_10h26.21.843.csv
615,2.0,left,left,1.0,1.263900001,0.0,15.0,15.0,15.0,1.0,2898633421-291973.jpg,2575118671-277663.jpg,A19NX9CQGX6XI8_2022-10-02_10h26.21.843.csv
616,3.0,right,right,1.0,1.2854,0.0,16.0,16.0,16.0,1.0,2864904453-63933.jpg,2883256307-365057.jpg,A19NX9CQGX6XI8_2022-10-02_10h26.21.843.csv
617,2.0,left,right,0.0,1.2843,0.0,17.0,17.0,17.0,1.0,2238481198-19822.jpg,2901946436-293242.jpg,A19NX9CQGX6XI8_2022-10-02_10h26.21.843.csv
618,2.0,right,left,0.0,1.1838,0.0,18.0,18.0,18.0,1.0,2579432534-130704.jpg,2592380177-354629.jpg,A19NX9CQGX6XI8_2022-10-02_10h26.21.843.csv
619,3.0,right,right,1.0,1.458099999,0.0,19.0,19.0,19.0,1.0,2592380272-354673.jpg,2592379964-131054.jpg,A19NX9CQGX6XI8_2022-10-02_10h26.21.843.csv
620,3.0,right,left,0.0,1.186400001,0.0,20.0,20.0,20.0,1.0,2901942443-69925.jpg,2986451363-73598.jpg,A19NX9CQGX6XI8_2022-10-02_10h26.21.843.csv
621,3.0,left,right,0.0,0.7945,0.0,21.0,21.0,21.0,1.0,2981231403-71642.jpg,2427873763-47290.jpg,A19NX9CQGX6XI8_2022-10-02_10h26.21.843.csv
622,1.0,left,right,0.0,1.0848,0.0,22.0,22.0,22.0,1.0,2874302418-65979.jpg,2237857458-1325.jpg,A19NX9CQGX6XI8_2022-10-02_10h26.21.843.csv
623,3.0,right,left,0.0,0.9858,0.0,23.0,23.0,23.0,1.0,2901947448-70314.jpg,2883268471-290842.jpg,A19NX9CQGX6XI8_2022-10-02_10h26.21.843.csv
624,1.0,right,left,0.0,1.185700001,0.0,24.0,24.0,24.0,1.0,2864906345-212360.jpg,2575120738-55529.jpg,A19NX9CQGX6XI8_2022-10-02_10h26.21.843.csv
625,2.0,right,right,1.0,1.1932,0.0,25.0,25.0,25.0,1.0,2238436322-314047.jpg,2238425482-313537.jpg,A19NX9CQGX6XI8_2022-10-02_10h26.21.843.csv
626,2.0,left,left,1.0,1.3767,0.0,26.0,26.0,26.0,1.0,2460547467-349421.jpg,2452380166-273110.jpg,A19NX9CQGX6XI8_2022-10-02_10h26.21.843.csv
627,2.0,right,right,1.0,1.484900001,0.0,27.0,27.0,27.0,1.0,2901939327-367670.jpg,2898618390-216538.jpg,A19NX9CQGX6XI8_2022-10-02_10h26.21.843.csv
628,1.0,right,right,1.0,1.1814,0.0,28.0,28.0,28.0,1.0,2592380255-205553.jpg,2238560245-182099.jpg,A19NX9CQGX6XI8_2022-10-02_10h26.21.843.csv
629,2.0,left,left,1.0,0.9876,0.0,29.0,29.0,29.0,1.0,2238580740-186218.jpg,2238521193-26285.jpg,A19NX9CQGX6XI8_2022-10-02_10h26.21.843.csv
630,1.0,right,left,0.0,1.0033,0.0,30.0,30.0,30.0,1.0,2238576792-334659.jpg,2592380177-354626.jpg,A19NX9CQGX6XI8_2022-10-02_10h26.21.843.csv
631,2.0,left,right,0.0,1.1172,0.0,31.0,31.0,31.0,1.0,2868475410-213219.jpg,2238480803-19739.jpg,A19NX9CQGX6XI8_2022-10-02_10h26.21.843.csv
632,3.0,right,left,0.0,1.0082,0.0,32.0,32.0,32.0,1.0,2964217461-294238.jpg,2898634397-367080.jpg,A19NX9CQGX6XI8_2022-10-02_10h26.21.843.csv
633,1.0,right,left,0.0,1.1133,0.0,33.0,33.0,33.0,1.0,2964224310-219528.jpg,2874302418-65978.jpg,A19NX9CQGX6XI8_2022-10-02_10h26.21.843.csv
634,3.0,left,right,0.0,0.712,0.0,34.0,34.0,34.0,1.0,2901952513-70703.jpg,2238481198-19821.jpg,A19NX9CQGX6XI8_2022-10-02_10h26.21.843.csv
635,3.0,right,left,0.0,0.801400001,0.0,35.0,35.0,35.0,1.0,2901951392-368654.jpg,2446759803-49249.jpg,A19NX9CQGX6XI8_2022-10-02_10h26.21.843.csv
636,1.0,left,right,0.0,0.695,0.0,36.0,36.0,36.0,1.0,2981241414-145842.jpg,2238516618-25604.jpg,A19NX9CQGX6XI8_2022-10-02_10h26.21.843.csv
637,3.0,left,right,0.0,0.889299999,0.0,37.0,37.0,37.0,1.0,2460547508-51571.jpg,2901941438-69835.jpg,A19NX9CQGX6XI8_2022-10-02_10h26.21.843.csv
638,1.0,right,left,0.0,0.7045,0.0,38.0,38.0,38.0,1.0,2883254439-140940.jpg,2883273443-68193.jpg,A19NX9CQGX6XI8_2022-10-02_10h26.21.843.csv
639,1.0,left,left,1.0,0.8908,0.0,39.0,39.0,39.0,1.0,2964218374-144967.jpg,2964218374-144968.jpg,A19NX9CQGX6XI8_2022-10-02_10h26.21.843.csv
640,1.0,right,right,1.0,0.8925,0.0,40.0,40.0,40.0,1.0,2981244394-145974.jpg,2964213381-294060.jpg,A19NX9CQGX6XI8_2022-10-02_10h26.21.843.csv
641,3.0,left,left,1.0,0.6962,0.0,41.0,41.0,41.0,1.0,2458347385-199723.jpg,2458347252-348911.jpg,A19NX9CQGX6XI8_2022-10-02_10h26.21.843.csv
642,2.0,left,left,1.0,0.994700001,0.0,42.0,42.0,42.0,1.0,2238572663-35822.jpg,2238571930-184143.jpg,A19NX9CQGX6XI8_2022-10-02_10h26.21.843.csv
643,2.0,left,left,1.0,0.8891,0.0,43.0,43.0,43.0,1.0,2874307433-66280.jpg,2981246400-220365.jpg,A19NX9CQGX6XI8_2022-10-02_10h26.21.843.csv
644,3.0,left,left,1.0,0.839599999,0.0,44.0,44.0,44.0,1.0,2864907432-362042.jpg,2989726338-74002.jpg,A19NX9CQGX6XI8_2022-10-02_10h26.21.843.csv
645,3.0,right,left,0.0,0.8604,0.0,45.0,45.0,45.0,1.0,2964207374-144577.jpg,2898617468-68274.jpg,A19NX9CQGX6XI8_2022-10-02_10h26.21.843.csv
646,1.0,right,right,1.0,0.697700001,0.0,46.0,46.0,46.0,1.0,2860312398-62572.jpg,2901947423-70311.jpg,A19NX9CQGX6XI8_2022-10-02_10h26.21.843.csv
647,3.0,left,right,0.0,0.7926,0.0,47.0,47.0,47.0,1.0,2901939379-143479.jpg,2964216376-294181.jpg,A19NX9CQGX6XI8_2022-10-02_10h26.21.843.csv
648,2.0,left,right,0.0,0.7924,0.0,48.0,48.0,48.0,1.0,2238428357-313623.jpg,2984615361-295509.jpg,A19NX9CQGX6XI8_2022-10-02_10h26.21.843.csv
649,1.0,right,right,1.0,0.8912,0.0,49.0,49.0,49.0,1.0,2898631359-142721.jpg,2898618444-142233.jpg,A19NX9CQGX6XI8_2022-10-02_10h26.21.843.csv
650,3.0,left,right,0.0,0.981599999,0.0,50.0,50.0,50.0,1.0,2898624426-291546.jpg,2981235446-294900.jpg,A19NX9CQGX6XI8_2022-10-02_10h26.21.843.csv
651,2.0,left,left,1.0,0.6994,0.0,51.0,51.0,51.0,1.0,2901941401-292798.jpg,2981243412-370222.jpg,A19NX9CQGX6XI8_2022-10-02_10h26.21.843.csv
652,2.0,right,left,0.0,0.595700001,0.0,52.0,52.0,52.0,1.0,2984615361-295510.jpg,2883268412-365898.jpg,A19NX9CQGX6XI8_2022-10-02_10h26.21.843.csv
653,1.0,right,left,0.0,0.694099999,0.0,53.0,53.0,53.0,1.0,2901942428-69919.jpg,2901939379-143480.jpg,A19NX9CQGX6XI8_2022-10-02_10h26.21.843.csv
654,3.0,left,left,1.0,0.986,0.0,54.0,54.0,54.0,1.0,2898635428-69104.jpg,2898625336-291572.jpg,A19NX9CQGX6XI8_2022-10-02_10h26.21.843.csv
655,1.0,right,right,1.0,0.889099999,0.0,55.0,55.0,55.0,1.0,2452380171-273112.jpg,2449442529-124445.jpg,A19NX9CQGX6XI8_2022-10-02_10h26.21.843.csv
656,2.0,left,right,0.0,0.7937,0.0,56.0,56.0,56.0,1.0,2874303365-214262.jpg,2238563377-332054.jpg,A19NX9CQGX6XI8_2022-10-02_10h26.21.843.csv
657,2.0,left,right,0.0,0.793900001,0.0,57.0,57.0,57.0,1.0,2868474407-362883.jpg,2981246400-220363.jpg,A19NX9CQGX6XI8_2022-10-02_10h26.21.843.csv
658,2.0,right,right,1.0,0.7939,0.0,58.0,58.0,58.0,1.0,2592380177-354628.jpg,2512875899-126682.jpg,A19NX9CQGX6XI8_2022-10-02_10h26.21.843.csv
659,2.0,right,left,0.0,0.694,0.0,59.0,59.0,59.0,1.0,2901941438-69836.jpg,2964223381-294447.jpg,A19NX9CQGX6XI8_2022-10-02_10h26.21.843.csv
660,1.0,right,right,1.0,4.8443,0.0,0.0,0.0,0.0,1.0,2864902304-137862.jpg,2864910426-287204.jpg,A1PHDT66U6IK4Q_2022-10-02_08h50.16.968.csv
661,1.0,left,left,1.0,2.3451,0.0,1.0,1.0,1.0,1.0,2868474407-362883.jpg,2460547732-349518.jpg,A1PHDT66U6IK4Q_2022-10-02_08h50.16.968.csv
662,1.0,left,left,1.0,2.782,0.0,2.0,2.0,2.0,1.0,2238572663-35822.jpg,2238584894-113161.jpg,A1PHDT66U6IK4Q_2022-10-02_08h50.16.968.csv
663,1.0,left,left,1.0,4.4785,0.0,3.0,3.0,3.0,1.0,2898635427-367120.jpg,2964221435-219434.jpg,A1PHDT66U6IK4Q_2022-10-02_08h50.16.968.csv
664,1.0,right,right,1.0,5.835,0.0,4.0,4.0,4.0,1.0,2579432519-130698.jpg,2981231403-71642.jpg,A1PHDT66U6IK4Q_2022-10-02_08h50.16.968.csv
665,2.0,left,left,1.0,1.6452,0.0,5.0,5.0,5.0,1.0,2964213381-294060.jpg,2458348012-349114.jpg,A1PHDT66U6IK4Q_2022-10-02_08h50.16.968.csv
666,3.0,left,left,1.0,2.6659,0.0,6.0,6.0,6.0,1.0,2874299429-139694.jpg,2883266367-365742.jpg,A1PHDT66U6IK4Q_2022-10-02_08h50.16.968.csv
667,2.0,left,left,1.0,2.0508,0.0,7.0,7.0,7.0,1.0,2452381505-199546.jpg,2898632385-217138.jpg,A1PHDT66U6IK4Q_2022-10-02_08h50.16.968.csv
668,1.0,left,right,0.0,5.2871,0.0,8.0,8.0,8.0,1.0,2898618444-142233.jpg,2898631359-142721.jpg,A1PHDT66U6IK4Q_2022-10-02_08h50.16.968.csv
669,3.0,right,left,0.0,7.2446,0.0,9.0,9.0,9.0,1.0,2898625336-291572.jpg,2898635428-69104.jpg,A1PHDT66U6IK4Q_2022-10-02_08h50.16.968.csv
670,1.0,right,right,1.0,3.5428,0.0,10.0,10.0,10.0,1.0,2964218432-369263.jpg,2898624426-291546.jpg,A1PHDT66U6IK4Q_2022-10-02_08h50.16.968.csv
671,2.0,left,left,1.0,1.2739,0.0,11.0,11.0,11.0,1.0,2986451363-73598.jpg,2984628361-295995.jpg,A1PHDT66U6IK4Q_2022-10-02_08h50.16.968.csv
672,1.0,left,left,1.0,1.2423,0.0,12.0,12.0,12.0,1.0,2238428357-313623.jpg,2238499057-320266.jpg,A1PHDT66U6IK4Q_2022-10-02_08h50.16.968.csv
673,1.0,left,left,1.0,3.1718,0.0,13.0,13.0,13.0,1.0,2883268471-290842.jpg,2883268471-290843.jpg,A1PHDT66U6IK4Q_2022-10-02_08h50.16.968.csv
674,1.0,right,right,1.0,3.2066,0.0,14.0,14.0,14.0,1.0,2460547536-274179.jpg,2512875899-126682.jpg,A1PHDT66U6IK4Q_2022-10-02_08h50.16.968.csv
675,3.0,left,left,1.0,1.3245,0.0,15.0,15.0,15.0,1.0,2964222378-71332.jpg,2981240427-370099.jpg,A1PHDT66U6IK4Q_2022-10-02_08h50.16.968.csv
676,3.0,left,left,1.0,3.6668,0.0,16.0,16.0,16.0,1.0,2446759803-49249.jpg,2901951392-368654.jpg,A1PHDT66U6IK4Q_2022-10-02_08h50.16.968.csv
677,1.0,left,left,1.0,1.5917,0.0,17.0,17.0,17.0,1.0,2238560245-182099.jpg,2592380255-205553.jpg,A1PHDT66U6IK4Q_2022-10-02_08h50.16.968.csv
678,2.0,left,left,1.0,1.6818,0.0,18.0,18.0,18.0,1.0,2460547467-349422.jpg,2868487415-213924.jpg,A1PHDT66U6IK4Q_2022-10-02_08h50.16.968.csv
679,1.0,left,left,1.0,1.1338,0.0,19.0,19.0,19.0,1.0,2238480677-317399.jpg,2238481630-168218.jpg,A1PHDT66U6IK4Q_2022-10-02_08h50.16.968.csv
680,3.0,right,right,1.0,2.7742,0.0,20.0,20.0,20.0,1.0,2981231446-294732.jpg,2964218374-144967.jpg,A1PHDT66U6IK4Q_2022-10-02_08h50.16.968.csv
681,3.0,right,right,1.0,1.9805,0.0,21.0,21.0,21.0,1.0,2238117096-228518.jpg,2592380177-354626.jpg,A1PHDT66U6IK4Q_2022-10-02_08h50.16.968.csv
682,2.0,left,left,1.0,1.4874,0.0,22.0,22.0,22.0,1.0,2460547467-349421.jpg,2452380166-273110.jpg,A1PHDT66U6IK4Q_2022-10-02_08h50.16.968.csv
683,3.0,right,right,1.0,4.2252,0.0,23.0,23.0,23.0,1.0,2981231422-369714.jpg,2874307433-66280.jpg,A1PHDT66U6IK4Q_2022-10-02_08h50.16.968.csv
684,3.0,right,right,1.0,6.3235,0.0,24.0,24.0,24.0,1.0,2898631468-68931.jpg,2901941401-292798.jpg,A1PHDT66U6IK4Q_2022-10-02_08h50.16.968.csv
685,1.0,right,right,1.0,1.7924,0.0,25.0,25.0,25.0,1.0,2238480434-93829.jpg,2458347385-199723.jpg,A1PHDT66U6IK4Q_2022-10-02_08h50.16.968.csv
686,3.0,left,left,1.0,1.7308,0.0,26.0,26.0,26.0,1.0,2883268412-365898.jpg,2238436252-314037.jpg,A1PHDT66U6IK4Q_2022-10-02_08h50.16.968.csv
687,2.0,left,left,1.0,1.4127,0.0,27.0,27.0,27.0,1.0,2449442529-124445.jpg,2986408373-73286.jpg,A1PHDT66U6IK4Q_2022-10-02_08h50.16.968.csv
688,2.0,right,right,1.0,2.6032,0.0,28.0,28.0,28.0,1.0,2901943387-368037.jpg,2898617468-68274.jpg,A1PHDT66U6IK4Q_2022-10-02_08h50.16.968.csv
689,1.0,right,right,1.0,2.9303,0.0,29.0,29.0,29.0,1.0,2237857458-1325.jpg,2874302418-65979.jpg,A1PHDT66U6IK4Q_2022-10-02_08h50.16.968.csv
690,3.0,left,left,1.0,2.4134,0.0,30.0,30.0,30.0,1.0,2238481928-19949.jpg,2981241419-145844.jpg,A1PHDT66U6IK4Q_2022-10-02_08h50.16.968.csv
691,2.0,right,right,1.0,4.7493,0.0,31.0,31.0,31.0,1.0,2981229442-369621.jpg,2901939379-143480.jpg,A1PHDT66U6IK4Q_2022-10-02_08h50.16.968.csv
692,3.0,right,right,1.0,2.3722,0.0,32.0,32.0,32.0,1.0,2238531493-28260.jpg,2575120738-55529.jpg,A1PHDT66U6IK4Q_2022-10-02_08h50.16.968.csv
693,3.0,left,left,1.0,2.7568,0.0,33.0,33.0,33.0,1.0,2874301407-363895.jpg,2901947323-70275.jpg,A1PHDT66U6IK4Q_2022-10-02_08h50.16.968.csv
694,3.0,left,right,0.0,8.1966,0.0,34.0,34.0,34.0,1.0,2864907432-362042.jpg,2989726338-74002.jpg,A1PHDT66U6IK4Q_2022-10-02_08h50.16.968.csv
695,1.0,left,left,1.0,6.1938,0.0,35.0,35.0,35.0,1.0,2964223381-294447.jpg,2427874231-269884.jpg,A1PHDT66U6IK4Q_2022-10-02_08h50.16.968.csv
696,2.0,right,right,1.0,2.0463,0.0,36.0,36.0,36.0,1.0,2575118671-277663.jpg,2898633421-291973.jpg,A1PHDT66U6IK4Q_2022-10-02_08h50.16.968.csv
697,2.0,left,left,1.0,4.0073,0.0,37.0,37.0,37.0,1.0,2874299429-139695.jpg,2901942443-69923.jpg,A1PHDT66U6IK4Q_2022-10-02_08h50.16.968.csv
698,1.0,left,left,1.0,4.5685,0.0,38.0,38.0,38.0,1.0,2986451363-73599.jpg,2898626385-216899.jpg,A1PHDT66U6IK4Q_2022-10-02_08h50.16.968.csv
699,3.0,left,left,1.0,4.8783,0.0,39.0,39.0,39.0,1.0,2868475410-213219.jpg,2868474407-362885.jpg,A1PHDT66U6IK4Q_2022-10-02_08h50.16.968.csv
700,2.0,right,right,1.0,1.3962,0.0,40.0,40.0,40.0,1.0,2901939327-367670.jpg,2898618390-216538.jpg,A1PHDT66U6IK4Q_2022-10-02_08h50.16.968.csv
701,1.0,right,right,1.0,2.5208,0.0,41.0,41.0,41.0,1.0,2860312398-62572.jpg,2901947423-70311.jpg,A1PHDT66U6IK4Q_2022-10-02_08h50.16.968.csv
702,3.0,right,left,0.0,2.5759,0.0,42.0,42.0,42.0,1.0,2898619327-366362.jpg,2964216465-219242.jpg,A1PHDT66U6IK4Q_2022-10-02_08h50.16.968.csv
703,2.0,left,right,0.0,2.8366,0.0,43.0,43.0,43.0,1.0,2449442529-124446.jpg,2460547536-274181.jpg,A1PHDT66U6IK4Q_2022-10-02_08h50.16.968.csv
704,2.0,right,right,1.0,1.5618,0.0,44.0,44.0,44.0,1.0,2579432534-130704.jpg,2592380177-354629.jpg,A1PHDT66U6IK4Q_2022-10-02_08h50.16.968.csv
705,3.0,left,left,1.0,3.7959,0.0,45.0,45.0,45.0,1.0,2883256307-365057.jpg,2864904453-63933.jpg,A1PHDT66U6IK4Q_2022-10-02_08h50.16.968.csv
706,1.0,left,right,0.0,6.7676,0.0,46.0,46.0,46.0,1.0,2460547508-51571.jpg,2452380166-273109.jpg,A1PHDT66U6IK4Q_2022-10-02_08h50.16.968.csv
707,3.0,left,left,1.0,1.1414,0.0,47.0,47.0,47.0,1.0,2901952513-70703.jpg,2238481198-19821.jpg,A1PHDT66U6IK4Q_2022-10-02_08h50.16.968.csv
708,2.0,right,right,1.0,1.3388,0.0,48.0,48.0,48.0,1.0,2238479053-19457.jpg,2592379964-131054.jpg,A1PHDT66U6IK4Q_2022-10-02_08h50.16.968.csv
709,2.0,left,left,1.0,6.0426,0.0,49.0,49.0,49.0,1.0,2898634397-367080.jpg,2901934408-69289.jpg,A1PHDT66U6IK4Q_2022-10-02_08h50.16.968.csv
710,2.0,left,left,1.0,4.5499,0.0,50.0,50.0,50.0,1.0,2901939379-143479.jpg,2446758985-197610.jpg,A1PHDT66U6IK4Q_2022-10-02_08h50.16.968.csv
711,3.0,right,left,0.0,6.3336,0.0,51.0,51.0,51.0,1.0,2898624426-291544.jpg,2446758985-197609.jpg,A1PHDT66U6IK4Q_2022-10-02_08h50.16.968.csv
712,3.0,left,left,1.0,2.3894,0.0,52.0,52.0,52.0,1.0,2981241414-145842.jpg,2427873848-47312.jpg,A1PHDT66U6IK4Q_2022-10-02_08h50.16.968.csv
713,2.0,left,left,1.0,4.4241,0.0,53.0,53.0,53.0,1.0,2874303365-214262.jpg,2238563377-332054.jpg,A1PHDT66U6IK4Q_2022-10-02_08h50.16.968.csv
714,2.0,right,right,1.0,1.1689,0.0,54.0,54.0,54.0,1.0,2238481198-19823.jpg,2874302418-65978.jpg,A1PHDT66U6IK4Q_2022-10-02_08h50.16.968.csv
715,3.0,left,left,1.0,1.7496,0.0,55.0,55.0,55.0,1.0,2238580740-186218.jpg,2964220333-71258.jpg,A1PHDT66U6IK4Q_2022-10-02_08h50.16.968.csv
716,2.0,right,left,0.0,4.1339,0.0,56.0,56.0,56.0,1.0,2901946436-293242.jpg,2238481198-19822.jpg,A1PHDT66U6IK4Q_2022-10-02_08h50.16.968.csv
717,2.0,left,right,0.0,8.7486,0.0,57.0,57.0,57.0,1.0,2883273443-68193.jpg,2460547508-51572.jpg,A1PHDT66U6IK4Q_2022-10-02_08h50.16.968.csv
718,1.0,right,right,1.0,1.0127,0.0,58.0,58.0,58.0,1.0,2238328478-11678.jpg,2452380832-348593.jpg,A1PHDT66U6IK4Q_2022-10-02_08h50.16.968.csv
719,1.0,left,left,1.0,1.4695,0.0,59.0,59.0,59.0,1.0,2238425482-313537.jpg,2238471391-240918.jpg,A1PHDT66U6IK4Q_2022-10-02_08h50.16.968.csv
720,3.0,right,right,1.0,1.4384,0.0,0.0,0.0,0.0,1.0,2981235446-294901.jpg,2460547467-349421.jpg,A6GDXK2BWJTVH_2022-10-02_08h53.38.170.csv
