,index,test_encoding_response.keys,test_encoding_response.corr,trials.thisTrialN,target_image,pair,layer,correct,test_encoding_response.rt,key_resp_end.keys,subject
0,20,,1.0,0.0,2460547467-349422.jpg,2898618440-216545.jpg,1.0,,,,A2AESV6JRC0TC0
1,21,,1.0,1.0,2864907432-362042.jpg,2864901420-212147.jpg,1.0,,,,A2AESV6JRC0TC0
2,22,,1.0,2.0,2592380177-354629.jpg,2898633421-291974.jpg,1.0,,,,A2AESV6JRC0TC0
3,23,,1.0,3.0,2874302418-65978.jpg,2898633321-291943.jpg,3.0,,,,A2AESV6JRC0TC0
4,24,,1.0,4.0,2898635428-69104.jpg,2901943411-292945.jpg,2.0,,,,A2AESV6JRC0TC0
5,25,,1.0,5.0,2874299429-139695.jpg,2901942443-69923.jpg,2.0,,,,A2AESV6JRC0TC0
6,26,,1.0,6.0,2901952513-70703.jpg,2238481198-19821.jpg,3.0,,,,A2AESV6JRC0TC0
7,27,,1.0,7.0,2986451363-73599.jpg,2860302315-210704.jpg,2.0,,,,A2AESV6JRC0TC0
8,28,,1.0,8.0,2868475410-213219.jpg,2901946465-218350.jpg,1.0,,,,A2AESV6JRC0TC0
9,29,right,1.0,9.0,right.jpg,,,right,0.899,,A2AESV6JRC0TC0
10,30,,1.0,10.0,2449442529-124446.jpg,2446759803-49251.jpg,1.0,,,,A2AESV6JRC0TC0
11,31,,1.0,11.0,2874299429-139694.jpg,2883266367-365742.jpg,3.0,,,,A2AESV6JRC0TC0
12,32,,1.0,12.0,2901941401-292798.jpg,2898618327-366317.jpg,1.0,,,,A2AESV6JRC0TC0
13,33,,1.0,13.0,2901939379-143480.jpg,2898632385-217139.jpg,3.0,,,,A2AESV6JRC0TC0
14,34,,1.0,14.0,2874303365-214262.jpg,2238563377-332054.jpg,2.0,,,,A2AESV6JRC0TC0
15,35,,1.0,15.0,2898617468-68274.jpg,2901946439-144040.jpg,1.0,,,,A2AESV6JRC0TC0
16,36,,1.0,16.0,2575120738-55529.jpg,2575120738-55528.jpg,2.0,,,,A2AESV6JRC0TC0
17,37,,1.0,17.0,2981241414-145842.jpg,2427873848-47312.jpg,3.0,,,,A2AESV6JRC0TC0
18,38,,1.0,18.0,2238572663-35822.jpg,2864903351-286874.jpg,3.0,,,,A2AESV6JRC0TC0
19,39,,1.0,19.0,2458347385-199723.jpg,2238480434-93829.jpg,1.0,,,,A2AESV6JRC0TC0
20,40,,1.0,20.0,2901947423-70311.jpg,2238577590-185467.jpg,3.0,,,,A2AESV6JRC0TC0
21,41,left,1.0,21.0,left.jpg,,,left,2.592,,A2AESV6JRC0TC0
22,42,,1.0,22.0,2460547467-349421.jpg,2981235446-294901.jpg,3.0,,,,A2AESV6JRC0TC0
23,43,,1.0,23.0,2898634397-367080.jpg,2237944827-301472.jpg,1.0,,,,A2AESV6JRC0TC0
24,44,,1.0,24.0,2238480677-317399.jpg,2238573546-258454.jpg,2.0,,,,A2AESV6JRC0TC0
25,45,,1.0,25.0,2238481198-19822.jpg,2862691449-137104.jpg,1.0,,,,A2AESV6JRC0TC0
26,46,,1.0,26.0,2883268412-365898.jpg,2238436252-314037.jpg,3.0,,,,A2AESV6JRC0TC0
27,47,,1.0,27.0,2898618444-142233.jpg,2898631359-142721.jpg,1.0,,,,A2AESV6JRC0TC0
28,48,,1.0,28.0,2883256307-365057.jpg,2864904453-63933.jpg,3.0,,,,A2AESV6JRC0TC0
29,49,,1.0,29.0,2592380177-354626.jpg,2864901386-286797.jpg,2.0,,,,A2AESV6JRC0TC0
30,50,left,1.0,30.0,left.jpg,,,left,1.077,,A2AESV6JRC0TC0
31,51,,1.0,31.0,2874302418-65979.jpg,2238578544-111698.jpg,3.0,,,,A2AESV6JRC0TC0
32,52,,1.0,32.0,2898633421-291973.jpg,2238550049-105691.jpg,3.0,,,,A2AESV6JRC0TC0
33,53,,1.0,33.0,2446759803-49249.jpg,2446760601-272099.jpg,1.0,,,,A2AESV6JRC0TC0
34,54,,1.0,34.0,2868474407-362883.jpg,2981246400-220363.jpg,2.0,,,,A2AESV6JRC0TC0
35,55,,1.0,35.0,2874301407-363895.jpg,2446761374-124213.jpg,1.0,,,,A2AESV6JRC0TC0
36,56,,1.0,36.0,2898635427-367120.jpg,2964221435-219434.jpg,1.0,,,,A2AESV6JRC0TC0
37,57,,1.0,37.0,2874307433-66280.jpg,2984615358-72439.jpg,1.0,,,,A2AESV6JRC0TC0
38,58,,1.0,38.0,2238428357-313623.jpg,2984615361-295509.jpg,2.0,,,,A2AESV6JRC0TC0
39,59,,1.0,39.0,2452381505-199546.jpg,2994401319-148290.jpg,3.0,,,,A2AESV6JRC0TC0
40,60,,1.0,40.0,2986451363-73598.jpg,2984628361-295995.jpg,2.0,,,,A2AESV6JRC0TC0
41,61,,1.0,41.0,2446758985-197609.jpg,2864909447-362144.jpg,2.0,,,,A2AESV6JRC0TC0
42,62,,1.0,42.0,2901939379-143479.jpg,2446758985-197610.jpg,2.0,,,,A2AESV6JRC0TC0
43,63,,1.0,43.0,2864910426-287204.jpg,2864902304-137862.jpg,1.0,,,,A2AESV6JRC0TC0
44,64,,0.0,44.0,left.jpg,,,left,,,A2AESV6JRC0TC0
45,65,,1.0,45.0,2452380832-348593.jpg,2237858942-299356.jpg,3.0,,,,A2AESV6JRC0TC0
46,66,,1.0,46.0,2964216465-219242.jpg,2898619327-366362.jpg,3.0,,,,A2AESV6JRC0TC0
47,67,,1.0,47.0,2238481928-19949.jpg,2981241419-145844.jpg,3.0,,,,A2AESV6JRC0TC0
48,68,,1.0,48.0,2898624426-291546.jpg,2981236443-71859.jpg,2.0,,,,A2AESV6JRC0TC0
49,69,,1.0,49.0,2964213381-294060.jpg,2458348012-349114.jpg,2.0,,,,A2AESV6JRC0TC0
50,70,,1.0,50.0,2238580740-186218.jpg,2238521193-26285.jpg,2.0,,,,A2AESV6JRC0TC0
51,71,,1.0,51.0,2964218374-144967.jpg,2964218374-144968.jpg,1.0,,,,A2AESV6JRC0TC0
52,72,,0.0,52.0,right.jpg,,,right,,,A2AESV6JRC0TC0
53,73,,1.0,53.0,2964222378-71332.jpg,2901933382-367209.jpg,2.0,,,,A2AESV6JRC0TC0
54,74,,1.0,54.0,2592379964-131054.jpg,2592380272-354673.jpg,3.0,,,,A2AESV6JRC0TC0
55,75,,1.0,55.0,2883273443-68193.jpg,2460547508-51572.jpg,2.0,,,,A2AESV6JRC0TC0
56,76,,1.0,56.0,2883268471-290842.jpg,2883255450-215310.jpg,2.0,,,,A2AESV6JRC0TC0
57,77,,1.0,57.0,2512875899-126682.jpg,2460547536-274179.jpg,1.0,,,,A2AESV6JRC0TC0
58,78,,1.0,58.0,2981231403-71642.jpg,2579432519-130698.jpg,1.0,,,,A2AESV6JRC0TC0
59,79,,1.0,59.0,2964223381-294447.jpg,2898628438-68785.jpg,3.0,,,,A2AESV6JRC0TC0
60,80,,1.0,60.0,2238560245-182099.jpg,2874314526-289684.jpg,2.0,,,,A2AESV6JRC0TC0
61,81,,1.0,61.0,2460547508-51571.jpg,2981232437-369759.jpg,2.0,,,,A2AESV6JRC0TC0
62,82,,1.0,62.0,2238425482-313537.jpg,2238471391-240918.jpg,1.0,,,,A2AESV6JRC0TC0
63,83,,1.0,63.0,2449442529-124445.jpg,2898632385-217137.jpg,3.0,,,,A2AESV6JRC0TC0
64,84,,1.0,64.0,2898618390-216538.jpg,2575120609-129862.jpg,3.0,,,,A2AESV6JRC0TC0
65,20,,1.0,0.0,2898618444-142233.jpg,2898631359-142721.jpg,1.0,,,,AOI6OCXVWYBX1
66,21,,1.0,1.0,2868475410-213219.jpg,2238480803-19739.jpg,2.0,,,,AOI6OCXVWYBX1
67,22,,1.0,2.0,2898618390-216538.jpg,2901939327-367670.jpg,2.0,,,,AOI6OCXVWYBX1
68,23,,1.0,3.0,2592379964-131054.jpg,2592380272-354673.jpg,3.0,,,,AOI6OCXVWYBX1
69,24,,1.0,4.0,2981231403-71642.jpg,2427873763-47290.jpg,3.0,,,,AOI6OCXVWYBX1
70,25,,1.0,5.0,2901941401-292798.jpg,2981243412-370222.jpg,2.0,,,,AOI6OCXVWYBX1
71,26,,1.0,6.0,2449442529-124446.jpg,2446759803-49251.jpg,1.0,,,,AOI6OCXVWYBX1
72,27,,1.0,7.0,2964213381-294060.jpg,2981244394-145974.jpg,1.0,,,,AOI6OCXVWYBX1
73,28,right,1.0,8.0,right.jpg,,,right,0.873,,AOI6OCXVWYBX1
74,29,,1.0,9.0,2874301407-363895.jpg,2446761374-124213.jpg,1.0,,,,AOI6OCXVWYBX1
75,30,,1.0,10.0,2874303365-214262.jpg,2238563377-332054.jpg,2.0,,,,AOI6OCXVWYBX1
76,31,,1.0,11.0,2964216465-219242.jpg,2238544191-252422.jpg,1.0,,,,AOI6OCXVWYBX1
77,32,,1.0,12.0,2964223381-294447.jpg,2901941438-69836.jpg,2.0,,,,AOI6OCXVWYBX1
78,33,,1.0,13.0,2238572663-35822.jpg,2238571930-184143.jpg,2.0,,,,AOI6OCXVWYBX1
79,34,,1.0,14.0,2964222378-71332.jpg,2981240427-370099.jpg,3.0,,,,AOI6OCXVWYBX1
80,35,,1.0,15.0,2883256307-365057.jpg,2864904453-63933.jpg,3.0,,,,AOI6OCXVWYBX1
81,36,,1.0,16.0,2238580740-186218.jpg,2238521193-26285.jpg,2.0,,,,AOI6OCXVWYBX1
82,37,,1.0,17.0,2874302418-65978.jpg,2964224310-219528.jpg,1.0,,,,AOI6OCXVWYBX1
83,38,,1.0,18.0,2460547467-349421.jpg,2452380166-273110.jpg,2.0,,,,AOI6OCXVWYBX1
84,39,,1.0,19.0,2883268471-290842.jpg,2901947448-70314.jpg,3.0,,,,AOI6OCXVWYBX1
85,40,,1.0,20.0,2898635428-69104.jpg,2898625336-291572.jpg,3.0,,,,AOI6OCXVWYBX1
86,41,,1.0,21.0,2874299429-139695.jpg,2446760917-347439.jpg,3.0,,,,AOI6OCXVWYBX1
87,42,right,1.0,22.0,right.jpg,,,right,1.0455,,AOI6OCXVWYBX1
88,43,,1.0,23.0,2238425482-313537.jpg,2238436322-314047.jpg,2.0,,,,AOI6OCXVWYBX1
89,44,,1.0,24.0,2575120738-55529.jpg,2864906345-212360.jpg,1.0,,,,AOI6OCXVWYBX1
90,45,,1.0,25.0,2592380177-354626.jpg,2238576792-334659.jpg,1.0,,,,AOI6OCXVWYBX1
91,46,,1.0,26.0,2460547467-349422.jpg,2868487415-213924.jpg,2.0,,,,AOI6OCXVWYBX1
92,47,,1.0,27.0,2964218374-144967.jpg,2964218374-144968.jpg,1.0,,,,AOI6OCXVWYBX1
93,48,,1.0,28.0,2864907432-362042.jpg,2989726338-74002.jpg,3.0,,,,AOI6OCXVWYBX1
94,49,,1.0,29.0,2874299429-139694.jpg,2883266367-365742.jpg,3.0,,,,AOI6OCXVWYBX1
95,50,,0.0,30.0,right.jpg,,,right,,,AOI6OCXVWYBX1
96,51,,1.0,31.0,2458347385-199723.jpg,2458347252-348911.jpg,3.0,,,,AOI6OCXVWYBX1
97,52,,1.0,32.0,2981241414-145842.jpg,2238516618-25604.jpg,1.0,,,,AOI6OCXVWYBX1
98,53,,1.0,33.0,2512875899-126682.jpg,2592380177-354628.jpg,2.0,,,,AOI6OCXVWYBX1
99,54,,1.0,34.0,2901939379-143479.jpg,2964216376-294181.jpg,3.0,,,,AOI6OCXVWYBX1
100,55,,1.0,35.0,2883268412-365898.jpg,2984615361-295510.jpg,2.0,,,,AOI6OCXVWYBX1
101,56,,1.0,36.0,2901947423-70311.jpg,2860312398-62572.jpg,1.0,,,,AOI6OCXVWYBX1
102,57,,1.0,37.0,2986451363-73598.jpg,2901942443-69925.jpg,3.0,,,,AOI6OCXVWYBX1
103,58,,1.0,38.0,2901952513-70703.jpg,2238481198-19821.jpg,3.0,,,,AOI6OCXVWYBX1
104,59,,1.0,39.0,2449442529-124445.jpg,2452380171-273112.jpg,1.0,,,,AOI6OCXVWYBX1
105,60,,1.0,40.0,2898633421-291973.jpg,2575118671-277663.jpg,2.0,,,,AOI6OCXVWYBX1
106,61,,1.0,41.0,2898635427-367120.jpg,2964221435-219434.jpg,1.0,,,,AOI6OCXVWYBX1
107,62,,1.0,42.0,2238481928-19949.jpg,2864900357-361688.jpg,2.0,,,,AOI6OCXVWYBX1
108,63,,0.0,43.0,right.jpg,,,right,,,AOI6OCXVWYBX1
109,64,,1.0,44.0,2452380832-348593.jpg,2238328478-11678.jpg,1.0,,,,AOI6OCXVWYBX1
110,65,,1.0,45.0,2898624426-291546.jpg,2981235446-294900.jpg,3.0,,,,AOI6OCXVWYBX1
111,66,right,0.0,46.0,left.jpg,,,left,1.7408,,AOI6OCXVWYBX1
112,67,,1.0,47.0,2592380177-354629.jpg,2579432534-130704.jpg,2.0,,,,AOI6OCXVWYBX1
113,68,,1.0,48.0,2238560245-182099.jpg,2592380255-205553.jpg,1.0,,,,AOI6OCXVWYBX1
114,69,,1.0,49.0,2460547508-51571.jpg,2901941438-69835.jpg,3.0,,,,AOI6OCXVWYBX1
115,70,,1.0,50.0,2898617468-68274.jpg,2964207374-144577.jpg,3.0,,,,AOI6OCXVWYBX1
116,71,,1.0,51.0,2986451363-73599.jpg,2898626385-216899.jpg,1.0,,,,AOI6OCXVWYBX1
117,72,,1.0,52.0,2874302418-65979.jpg,2237857458-1325.jpg,1.0,,,,AOI6OCXVWYBX1
118,73,,1.0,53.0,2874307433-66280.jpg,2981246400-220365.jpg,2.0,,,,AOI6OCXVWYBX1
119,74,,1.0,54.0,2446758985-197609.jpg,2864909447-362144.jpg,2.0,,,,AOI6OCXVWYBX1
120,75,,1.0,55.0,2238480677-317399.jpg,2238480278-19661.jpg,3.0,,,,AOI6OCXVWYBX1
121,76,,1.0,56.0,2452381505-199546.jpg,2901938432-367627.jpg,1.0,,,,AOI6OCXVWYBX1
122,77,,1.0,57.0,2898634397-367080.jpg,2964217461-294238.jpg,3.0,,,,AOI6OCXVWYBX1
123,78,,1.0,58.0,2864910426-287204.jpg,2901939433-69672.jpg,3.0,,,,AOI6OCXVWYBX1
124,79,,1.0,59.0,2868474407-362883.jpg,2981246400-220363.jpg,2.0,,,,AOI6OCXVWYBX1
125,80,,1.0,60.0,2883273443-68193.jpg,2883254439-140940.jpg,1.0,,,,AOI6OCXVWYBX1
126,81,,1.0,61.0,2238481198-19822.jpg,2901946436-293242.jpg,2.0,,,,AOI6OCXVWYBX1
127,82,,1.0,62.0,2446759803-49249.jpg,2901951392-368654.jpg,3.0,,,,AOI6OCXVWYBX1
128,83,,1.0,63.0,2901939379-143480.jpg,2901942428-69919.jpg,1.0,,,,AOI6OCXVWYBX1
129,84,,1.0,64.0,2238428357-313623.jpg,2984615361-295509.jpg,2.0,,,,AOI6OCXVWYBX1
130,20,,1.0,0.0,2864907432-362042.jpg,2989726338-74002.jpg,3.0,,,,A34WEYAH462CBS
131,21,,1.0,1.0,2874302418-65979.jpg,2238578544-111698.jpg,3.0,,,,A34WEYAH462CBS
132,22,,1.0,2.0,2238560245-182099.jpg,2874314526-289684.jpg,2.0,,,,A34WEYAH462CBS
133,23,,1.0,3.0,2898633421-291973.jpg,2238550049-105691.jpg,3.0,,,,A34WEYAH462CBS
134,24,,1.0,4.0,2883256307-365057.jpg,2864904453-63933.jpg,3.0,,,,A34WEYAH462CBS
135,25,,1.0,5.0,2512875899-126682.jpg,2460547536-274179.jpg,1.0,,,,A34WEYAH462CBS
136,26,,1.0,6.0,2452380832-348593.jpg,2238481813-19930.jpg,2.0,,,,A34WEYAH462CBS
137,27,,1.0,7.0,2446758985-197609.jpg,2864909447-362144.jpg,2.0,,,,A34WEYAH462CBS
138,28,,1.0,8.0,2238480677-317399.jpg,2238573546-258454.jpg,2.0,,,,A34WEYAH462CBS
139,29,,1.0,9.0,2592380177-354626.jpg,2238576792-334659.jpg,1.0,,,,A34WEYAH462CBS
140,30,,1.0,10.0,2452381505-199546.jpg,2901938432-367627.jpg,1.0,,,,A34WEYAH462CBS
141,31,,1.0,11.0,2883268412-365898.jpg,2238436252-314037.jpg,3.0,,,,A34WEYAH462CBS
142,32,,1.0,12.0,2898635427-367120.jpg,2868479517-363220.jpg,2.0,,,,A34WEYAH462CBS
143,33,left,1.0,13.0,left.jpg,,,left,1.6611,,A34WEYAH462CBS
144,34,,1.0,14.0,2460547467-349422.jpg,2864909447-362146.jpg,3.0,,,,A34WEYAH462CBS
145,35,,1.0,15.0,2874299429-139695.jpg,2883266388-67750.jpg,1.0,,,,A34WEYAH462CBS
146,36,,1.0,16.0,2446759803-49249.jpg,2446760601-272099.jpg,1.0,,,,A34WEYAH462CBS
147,37,,1.0,17.0,2868474407-362883.jpg,2981246400-220363.jpg,2.0,,,,A34WEYAH462CBS
148,38,,1.0,18.0,2864910426-287204.jpg,2883268412-365899.jpg,2.0,,,,A34WEYAH462CBS
149,39,,1.0,19.0,2986451363-73598.jpg,2237857458-1324.jpg,1.0,,,,A34WEYAH462CBS
150,40,,1.0,20.0,2874307433-66280.jpg,2984615358-72439.jpg,1.0,,,,A34WEYAH462CBS
151,41,right,1.0,21.0,right.jpg,,,right,0.9164,,A34WEYAH462CBS
152,42,,1.0,22.0,2964213381-294060.jpg,2981244394-145974.jpg,1.0,,,,A34WEYAH462CBS
153,43,,1.0,23.0,2981231403-71642.jpg,2874305405-214397.jpg,2.0,,,,A34WEYAH462CBS
154,44,,1.0,24.0,2898617468-68274.jpg,2901943387-368037.jpg,2.0,,,,A34WEYAH462CBS
155,45,,1.0,25.0,2449442529-124446.jpg,2446759803-49251.jpg,1.0,,,,A34WEYAH462CBS
156,46,,1.0,26.0,2575120738-55529.jpg,2575120738-55528.jpg,2.0,,,,A34WEYAH462CBS
157,47,,1.0,27.0,2868475410-213219.jpg,2868474407-362885.jpg,3.0,,,,A34WEYAH462CBS
158,48,,1.0,28.0,2964223381-294447.jpg,2898628438-68785.jpg,3.0,,,,A34WEYAH462CBS
159,49,,1.0,29.0,2238572663-35822.jpg,2238571930-184143.jpg,2.0,,,,A34WEYAH462CBS
160,50,right,1.0,30.0,right.jpg,,,right,0.915,,A34WEYAH462CBS
161,51,,1.0,31.0,2964222378-71332.jpg,2981240427-370099.jpg,3.0,,,,A34WEYAH462CBS
162,52,,1.0,32.0,2964218374-144967.jpg,2964218374-144968.jpg,1.0,,,,A34WEYAH462CBS
163,53,,1.0,33.0,2901952513-70703.jpg,2238481198-19821.jpg,3.0,,,,A34WEYAH462CBS
164,54,,1.0,34.0,2460547508-51571.jpg,2981232437-369759.jpg,2.0,,,,A34WEYAH462CBS
165,55,,1.0,35.0,2981241414-145842.jpg,2427873848-47312.jpg,3.0,,,,A34WEYAH462CBS
166,56,,1.0,36.0,2898624426-291546.jpg,2981235446-294900.jpg,3.0,,,,A34WEYAH462CBS
167,57,,1.0,37.0,2238580740-186218.jpg,2238550816-254000.jpg,1.0,,,,A34WEYAH462CBS
168,58,,1.0,38.0,2238428357-313623.jpg,2238499057-320266.jpg,1.0,,,,A34WEYAH462CBS
169,59,,1.0,39.0,2460547467-349421.jpg,2898631394-142727.jpg,1.0,,,,A34WEYAH462CBS
170,60,,1.0,40.0,2592380177-354629.jpg,2579432534-130704.jpg,2.0,,,,A34WEYAH462CBS
171,61,,1.0,41.0,2898634397-367080.jpg,2964217461-294238.jpg,3.0,,,,A34WEYAH462CBS
172,62,right,1.0,42.0,right.jpg,,,right,0.9217,,A34WEYAH462CBS
173,63,,1.0,43.0,2883268471-290842.jpg,2883268471-290843.jpg,1.0,,,,A34WEYAH462CBS
174,64,,1.0,44.0,2449442529-124445.jpg,2452380171-273112.jpg,1.0,,,,A34WEYAH462CBS
175,65,,1.0,45.0,2874299429-139694.jpg,2981244403-72215.jpg,2.0,,,,A34WEYAH462CBS
176,66,,1.0,46.0,2901939379-143479.jpg,2446758985-197610.jpg,2.0,,,,A34WEYAH462CBS
177,67,,1.0,47.0,2874302418-65978.jpg,2964224310-219528.jpg,1.0,,,,A34WEYAH462CBS
178,68,right,1.0,48.0,right.jpg,,,right,0.8257,,A34WEYAH462CBS
179,69,,1.0,49.0,2592379964-131054.jpg,2575963989-130576.jpg,1.0,,,,A34WEYAH462CBS
180,70,,1.0,50.0,2964216465-219242.jpg,2898619327-366362.jpg,3.0,,,,A34WEYAH462CBS
181,71,,1.0,51.0,2238481928-19949.jpg,2981241419-145844.jpg,3.0,,,,A34WEYAH462CBS
182,72,,1.0,52.0,2901939379-143480.jpg,2981229442-369621.jpg,2.0,,,,A34WEYAH462CBS
183,73,,1.0,53.0,2874303365-214262.jpg,2864911457-362260.jpg,3.0,,,,A34WEYAH462CBS
184,74,,1.0,54.0,2901947423-70311.jpg,2238573447-333826.jpg,2.0,,,,A34WEYAH462CBS
185,75,,1.0,55.0,2458347385-199723.jpg,2238480434-93829.jpg,1.0,,,,A34WEYAH462CBS
186,76,,1.0,56.0,2883273443-68193.jpg,2460547508-51572.jpg,2.0,,,,A34WEYAH462CBS
187,77,,1.0,57.0,2986451363-73599.jpg,2860302315-210704.jpg,2.0,,,,A34WEYAH462CBS
188,78,,1.0,58.0,2874301407-363895.jpg,2901947323-70275.jpg,3.0,,,,A34WEYAH462CBS
189,79,,1.0,59.0,2898635428-69104.jpg,2901943411-292945.jpg,2.0,,,,A34WEYAH462CBS
190,80,,1.0,60.0,2898618444-142233.jpg,2898618444-142232.jpg,3.0,,,,A34WEYAH462CBS
191,81,,1.0,61.0,2898618390-216538.jpg,2237856148-989.jpg,1.0,,,,A34WEYAH462CBS
192,82,,1.0,62.0,2238481198-19822.jpg,2238480803-19737.jpg,3.0,,,,A34WEYAH462CBS
193,83,,1.0,63.0,2901941401-292798.jpg,2898631468-68931.jpg,3.0,,,,A34WEYAH462CBS
194,84,,1.0,64.0,2238425482-313537.jpg,2238471391-240918.jpg,1.0,,,,A34WEYAH462CBS
195,20,,1.0,0.0,2898624426-291546.jpg,2981236443-71859.jpg,2.0,,,,A1R3VQ1011VATX
196,21,,1.0,1.0,2238572663-35822.jpg,2238571930-184143.jpg,2.0,,,,A1R3VQ1011VATX
197,22,,1.0,2.0,2964213381-294060.jpg,2964213381-294061.jpg,3.0,,,,A1R3VQ1011VATX
198,23,,1.0,3.0,2592380177-354626.jpg,2864901386-286797.jpg,2.0,,,,A1R3VQ1011VATX
199,24,,1.0,4.0,2449442529-124446.jpg,2460547536-274178.jpg,3.0,,,,A1R3VQ1011VATX
200,25,,1.0,5.0,2964218374-144967.jpg,2446759306-271734.jpg,2.0,,,,A1R3VQ1011VATX
201,26,left,1.0,6.0,left.jpg,,,left,1.4649,,A1R3VQ1011VATX
202,27,,1.0,7.0,2874302418-65979.jpg,2238480648-19714.jpg,2.0,,,,A1R3VQ1011VATX
203,28,,1.0,8.0,2986451363-73598.jpg,2901942443-69925.jpg,3.0,,,,A1R3VQ1011VATX
204,29,,1.0,9.0,2452381505-199546.jpg,2898632385-217138.jpg,2.0,,,,A1R3VQ1011VATX
205,30,,1.0,10.0,2864907432-362042.jpg,2989726338-74002.jpg,3.0,,,,A1R3VQ1011VATX
206,31,,1.0,11.0,2460547508-51571.jpg,2452380166-273109.jpg,1.0,,,,A1R3VQ1011VATX
207,32,,1.0,12.0,2964222378-71332.jpg,2981240424-145794.jpg,1.0,,,,A1R3VQ1011VATX
208,33,,1.0,13.0,2986451363-73599.jpg,2898626385-216899.jpg,1.0,,,,A1R3VQ1011VATX
209,34,,1.0,14.0,2238480677-317399.jpg,2238573546-258454.jpg,2.0,,,,A1R3VQ1011VATX
210,35,,1.0,15.0,2874303365-214262.jpg,2274829821-263682.jpg,1.0,,,,A1R3VQ1011VATX
211,36,,1.0,16.0,2901939379-143479.jpg,2446758985-197610.jpg,2.0,,,,A1R3VQ1011VATX
212,37,,1.0,17.0,2874302418-65978.jpg,2238481198-19823.jpg,2.0,,,,A1R3VQ1011VATX
213,38,,1.0,18.0,2452380832-348593.jpg,2237858942-299356.jpg,3.0,,,,A1R3VQ1011VATX
214,39,,1.0,19.0,2901941401-292798.jpg,2898618327-366317.jpg,1.0,,,,A1R3VQ1011VATX
215,40,,1.0,20.0,2868475410-213219.jpg,2868474407-362885.jpg,3.0,,,,A1R3VQ1011VATX
216,41,left,1.0,21.0,left.jpg,,,left,1.1702,,A1R3VQ1011VATX
217,42,,1.0,22.0,2898635427-367120.jpg,2964221435-219434.jpg,1.0,,,,A1R3VQ1011VATX
218,43,,1.0,23.0,2964216465-219242.jpg,2898619327-366362.jpg,3.0,,,,A1R3VQ1011VATX
219,44,,1.0,24.0,2901947423-70311.jpg,2238577590-185467.jpg,3.0,,,,A1R3VQ1011VATX
220,45,,1.0,25.0,2449442529-124445.jpg,2898632385-217137.jpg,3.0,,,,A1R3VQ1011VATX
221,46,,1.0,26.0,2238481198-19822.jpg,2862691449-137104.jpg,1.0,,,,A1R3VQ1011VATX
222,47,,1.0,27.0,2592380177-354629.jpg,2898633421-291974.jpg,1.0,,,,A1R3VQ1011VATX
223,48,,1.0,28.0,2868474407-362883.jpg,2901948383-70363.jpg,3.0,,,,A1R3VQ1011VATX
224,49,,1.0,29.0,2883268471-290842.jpg,2901947448-70314.jpg,3.0,,,,A1R3VQ1011VATX
225,50,,1.0,30.0,2898635428-69104.jpg,2446759803-49250.jpg,1.0,,,,A1R3VQ1011VATX
226,51,,1.0,31.0,2901939379-143480.jpg,2898632385-217139.jpg,3.0,,,,A1R3VQ1011VATX
227,52,,1.0,32.0,2898634397-367080.jpg,2964217461-294238.jpg,3.0,,,,A1R3VQ1011VATX
228,53,left,1.0,33.0,left.jpg,,,left,1.1591,,A1R3VQ1011VATX
229,54,,1.0,34.0,2238481928-19949.jpg,2864900357-361688.jpg,2.0,,,,A1R3VQ1011VATX
230,55,,1.0,35.0,2238580740-186218.jpg,2238550816-254000.jpg,1.0,,,,A1R3VQ1011VATX
231,56,,1.0,36.0,2864910426-287204.jpg,2883268412-365899.jpg,2.0,,,,A1R3VQ1011VATX
232,57,,1.0,37.0,2883256307-365057.jpg,2964210336-293945.jpg,2.0,,,,A1R3VQ1011VATX
233,58,left,1.0,38.0,left.jpg,,,left,1.5008,,A1R3VQ1011VATX
234,59,,1.0,39.0,2901952513-70703.jpg,2864907361-287062.jpg,1.0,,,,A1R3VQ1011VATX
235,60,,1.0,40.0,2446759803-49249.jpg,2901951392-368654.jpg,3.0,,,,A1R3VQ1011VATX
236,61,,1.0,41.0,2898618390-216538.jpg,2901939327-367670.jpg,2.0,,,,A1R3VQ1011VATX
237,62,,1.0,42.0,2238560245-182099.jpg,2592380255-205553.jpg,1.0,,,,A1R3VQ1011VATX
238,63,,1.0,43.0,2883273443-68193.jpg,2883254439-140940.jpg,1.0,,,,A1R3VQ1011VATX
239,64,,1.0,44.0,2458347385-199723.jpg,2427874554-121863.jpg,2.0,,,,A1R3VQ1011VATX
240,65,,1.0,45.0,2883268412-365898.jpg,2238436252-314037.jpg,3.0,,,,A1R3VQ1011VATX
241,66,right,1.0,46.0,right.jpg,,,right,2.3748,,A1R3VQ1011VATX
242,67,,1.0,47.0,2981241414-145842.jpg,2874301404-139813.jpg,2.0,,,,A1R3VQ1011VATX
243,68,,1.0,48.0,2981231403-71642.jpg,2874305405-214397.jpg,2.0,,,,A1R3VQ1011VATX
244,69,,1.0,49.0,2575120738-55529.jpg,2575120738-55528.jpg,2.0,,,,A1R3VQ1011VATX
245,70,,1.0,50.0,2446758985-197609.jpg,2981240424-145795.jpg,1.0,,,,A1R3VQ1011VATX
246,71,,1.0,51.0,2874301407-363895.jpg,2446761374-124213.jpg,1.0,,,,A1R3VQ1011VATX
247,72,,1.0,52.0,2874299429-139695.jpg,2446760917-347439.jpg,3.0,,,,A1R3VQ1011VATX
248,73,,1.0,53.0,2898618444-142233.jpg,2898631359-142721.jpg,1.0,,,,A1R3VQ1011VATX
249,74,,1.0,54.0,2898617468-68274.jpg,2964207374-144577.jpg,3.0,,,,A1R3VQ1011VATX
250,75,,1.0,55.0,2460547467-349421.jpg,2981235446-294901.jpg,3.0,,,,A1R3VQ1011VATX
251,76,,1.0,56.0,2874307433-66280.jpg,2984615358-72439.jpg,1.0,,,,A1R3VQ1011VATX
252,77,,1.0,57.0,2874299429-139694.jpg,2883266367-365742.jpg,3.0,,,,A1R3VQ1011VATX
253,78,,1.0,58.0,2238425482-313537.jpg,2238471391-240918.jpg,1.0,,,,A1R3VQ1011VATX
254,79,,1.0,59.0,2238428357-313623.jpg,2238499057-320266.jpg,1.0,,,,A1R3VQ1011VATX
255,80,,1.0,60.0,2592379964-131054.jpg,2592380272-354673.jpg,3.0,,,,A1R3VQ1011VATX
256,81,,1.0,61.0,2898633421-291973.jpg,2575118671-277663.jpg,2.0,,,,A1R3VQ1011VATX
257,82,,1.0,62.0,2460547467-349422.jpg,2868487415-213924.jpg,2.0,,,,A1R3VQ1011VATX
258,83,,1.0,63.0,2964223381-294447.jpg,2427874231-269884.jpg,1.0,,,,A1R3VQ1011VATX
259,84,,1.0,64.0,2512875899-126682.jpg,2592380177-354628.jpg,2.0,,,,A1R3VQ1011VATX
260,20,,1.0,0.0,2446758985-197609.jpg,2864909447-362144.jpg,2.0,,,,A3R2EH58I8Q4YI
261,21,,1.0,1.0,2460547467-349422.jpg,2864909447-362146.jpg,3.0,,,,A3R2EH58I8Q4YI
262,22,,1.0,2.0,2874302418-65979.jpg,2237857458-1325.jpg,1.0,,,,A3R2EH58I8Q4YI
263,23,,1.0,3.0,2868475410-213219.jpg,2238480803-19739.jpg,2.0,,,,A3R2EH58I8Q4YI
264,24,,1.0,4.0,2964218374-144967.jpg,2446759306-271734.jpg,2.0,,,,A3R2EH58I8Q4YI
265,25,,1.0,5.0,2901939379-143480.jpg,2981229442-369621.jpg,2.0,,,,A3R2EH58I8Q4YI
266,26,left,1.0,6.0,left.jpg,,,left,0.9631,,A3R2EH58I8Q4YI
267,27,,1.0,7.0,2883256307-365057.jpg,2864904453-63933.jpg,3.0,,,,A3R2EH58I8Q4YI
268,28,,1.0,8.0,2238560245-182099.jpg,2238480980-168129.jpg,3.0,,,,A3R2EH58I8Q4YI
269,29,,1.0,9.0,2874303365-214262.jpg,2274829821-263682.jpg,1.0,,,,A3R2EH58I8Q4YI
270,30,,1.0,10.0,2964216465-219242.jpg,2898619327-366362.jpg,3.0,,,,A3R2EH58I8Q4YI
271,31,,1.0,11.0,2238572663-35822.jpg,2864903351-286874.jpg,3.0,,,,A3R2EH58I8Q4YI
272,32,,1.0,12.0,2238425482-313537.jpg,2898633480-217190.jpg,3.0,,,,A3R2EH58I8Q4YI
273,33,,1.0,13.0,2898635427-367120.jpg,2868479517-363220.jpg,2.0,,,,A3R2EH58I8Q4YI
274,34,,1.0,14.0,2898635428-69104.jpg,2446759803-49250.jpg,1.0,,,,A3R2EH58I8Q4YI
275,35,,1.0,15.0,2883268471-290842.jpg,2883255450-215310.jpg,2.0,,,,A3R2EH58I8Q4YI
276,36,,0.0,16.0,right.jpg,,,right,,,A3R2EH58I8Q4YI
277,37,,1.0,17.0,2460547508-51571.jpg,2901941438-69835.jpg,3.0,,,,A3R2EH58I8Q4YI
278,38,,1.0,18.0,2874307433-66280.jpg,2984615358-72439.jpg,1.0,,,,A3R2EH58I8Q4YI
279,39,,1.0,19.0,2898624426-291546.jpg,2981235446-294900.jpg,3.0,,,,A3R2EH58I8Q4YI
280,40,,1.0,20.0,2874301407-363895.jpg,2986397322-371109.jpg,2.0,,,,A3R2EH58I8Q4YI
281,41,,1.0,21.0,2898634397-367080.jpg,2237944827-301472.jpg,1.0,,,,A3R2EH58I8Q4YI
282,42,,1.0,22.0,2898618444-142233.jpg,2898631359-142721.jpg,1.0,,,,A3R2EH58I8Q4YI
283,43,,1.0,23.0,2901939379-143479.jpg,2964216376-294181.jpg,3.0,,,,A3R2EH58I8Q4YI
284,44,,1.0,24.0,2986451363-73598.jpg,2237857458-1324.jpg,1.0,,,,A3R2EH58I8Q4YI
285,45,,1.0,25.0,2452380832-348593.jpg,2238481813-19930.jpg,2.0,,,,A3R2EH58I8Q4YI
286,46,,1.0,26.0,2238428357-313623.jpg,2238499057-320266.jpg,1.0,,,,A3R2EH58I8Q4YI
287,47,left,1.0,27.0,left.jpg,,,left,2.7209,,A3R2EH58I8Q4YI
288,48,,1.0,28.0,2238481198-19822.jpg,2862691449-137104.jpg,1.0,,,,A3R2EH58I8Q4YI
289,49,,1.0,29.0,2981231403-71642.jpg,2427873763-47290.jpg,3.0,,,,A3R2EH58I8Q4YI
290,50,,1.0,30.0,2901941401-292798.jpg,2981243412-370222.jpg,2.0,,,,A3R2EH58I8Q4YI
291,51,,1.0,31.0,2238481928-19949.jpg,2883264367-365620.jpg,1.0,,,,A3R2EH58I8Q4YI
292,52,,1.0,32.0,2883268412-365898.jpg,2984626312-370849.jpg,1.0,,,,A3R2EH58I8Q4YI
293,53,,1.0,33.0,2238580740-186218.jpg,2238521193-26285.jpg,2.0,,,,A3R2EH58I8Q4YI
294,54,,1.0,34.0,2898617468-68274.jpg,2901946439-144040.jpg,1.0,,,,A3R2EH58I8Q4YI
295,55,,1.0,35.0,2592380177-354626.jpg,2238117096-228518.jpg,3.0,,,,A3R2EH58I8Q4YI
296,56,,1.0,36.0,2986451363-73599.jpg,2898626385-216899.jpg,1.0,,,,A3R2EH58I8Q4YI
297,57,,1.0,37.0,2874299429-139694.jpg,2981244403-72215.jpg,2.0,,,,A3R2EH58I8Q4YI
298,58,,1.0,38.0,2575120738-55529.jpg,2864906345-212360.jpg,1.0,,,,A3R2EH58I8Q4YI
299,59,right,1.0,39.0,right.jpg,,,right,1.4264,,A3R2EH58I8Q4YI
300,60,,1.0,40.0,2449442529-124446.jpg,2460547536-274178.jpg,3.0,,,,A3R2EH58I8Q4YI
301,61,,1.0,41.0,2592379964-131054.jpg,2592380272-354673.jpg,3.0,,,,A3R2EH58I8Q4YI
302,62,,1.0,42.0,2238480677-317399.jpg,2238480278-19661.jpg,3.0,,,,A3R2EH58I8Q4YI
303,63,,1.0,43.0,2864910426-287204.jpg,2864902304-137862.jpg,1.0,,,,A3R2EH58I8Q4YI
304,64,,1.0,44.0,2901947423-70311.jpg,2238573447-333826.jpg,2.0,,,,A3R2EH58I8Q4YI
305,65,,1.0,45.0,2460547467-349421.jpg,2981235446-294901.jpg,3.0,,,,A3R2EH58I8Q4YI
306,66,,1.0,46.0,2446759803-49249.jpg,2898618440-216547.jpg,2.0,,,,A3R2EH58I8Q4YI
307,67,,1.0,47.0,2458347385-199723.jpg,2427874554-121863.jpg,2.0,,,,A3R2EH58I8Q4YI
308,68,left,1.0,48.0,left.jpg,,,left,1.5452,,A3R2EH58I8Q4YI
309,69,,1.0,49.0,2964223381-294447.jpg,2898628438-68785.jpg,3.0,,,,A3R2EH58I8Q4YI
310,70,,1.0,50.0,2874302418-65978.jpg,2898633321-291943.jpg,3.0,,,,A3R2EH58I8Q4YI
311,71,,1.0,51.0,2874299429-139695.jpg,2901942443-69923.jpg,2.0,,,,A3R2EH58I8Q4YI
312,72,,1.0,52.0,2898633421-291973.jpg,2575118671-277663.jpg,2.0,,,,A3R2EH58I8Q4YI
313,73,,1.0,53.0,2964213381-294060.jpg,2458348012-349114.jpg,2.0,,,,A3R2EH58I8Q4YI
314,74,,1.0,54.0,2901952513-70703.jpg,2864907361-287062.jpg,1.0,,,,A3R2EH58I8Q4YI
315,75,,1.0,55.0,2864907432-362042.jpg,2901947423-70310.jpg,2.0,,,,A3R2EH58I8Q4YI
316,76,,1.0,56.0,2883273443-68193.jpg,2460547508-51572.jpg,2.0,,,,A3R2EH58I8Q4YI
317,77,,1.0,57.0,2898618390-216538.jpg,2237856148-989.jpg,1.0,,,,A3R2EH58I8Q4YI
318,78,,1.0,58.0,2964222378-71332.jpg,2981240427-370099.jpg,3.0,,,,A3R2EH58I8Q4YI
319,79,,1.0,59.0,2452381505-199546.jpg,2994401319-148290.jpg,3.0,,,,A3R2EH58I8Q4YI
320,80,,1.0,60.0,2868474407-362883.jpg,2901948383-70363.jpg,3.0,,,,A3R2EH58I8Q4YI
321,81,,1.0,61.0,2981241414-145842.jpg,2874301404-139813.jpg,2.0,,,,A3R2EH58I8Q4YI
322,82,,1.0,62.0,2449442529-124445.jpg,2452380171-273112.jpg,1.0,,,,A3R2EH58I8Q4YI
323,83,,1.0,63.0,2592380177-354629.jpg,2898633421-291974.jpg,1.0,,,,A3R2EH58I8Q4YI
324,84,,1.0,64.0,2512875899-126682.jpg,2460547536-274179.jpg,1.0,,,,A3R2EH58I8Q4YI
325,20,,1.0,0.0,2874302418-65979.jpg,2238480648-19714.jpg,2.0,,,,AE3GUAQKXSNQ4
326,21,,1.0,1.0,2883268412-365898.jpg,2238436252-314037.jpg,3.0,,,,AE3GUAQKXSNQ4
327,22,,1.0,2.0,2898635428-69104.jpg,2446759803-49250.jpg,1.0,,,,AE3GUAQKXSNQ4
328,23,,1.0,3.0,2238481928-19949.jpg,2981241419-145844.jpg,3.0,,,,AE3GUAQKXSNQ4
329,24,,1.0,4.0,2238572663-35822.jpg,2238584894-113161.jpg,1.0,,,,AE3GUAQKXSNQ4
330,25,,1.0,5.0,2874303365-214262.jpg,2864911457-362260.jpg,3.0,,,,AE3GUAQKXSNQ4
331,26,,1.0,6.0,2964218374-144967.jpg,2964218374-144968.jpg,1.0,,,,AE3GUAQKXSNQ4
332,27,left,1.0,7.0,left.jpg,,,left,0.4428,,AE3GUAQKXSNQ4
333,28,,1.0,8.0,2898618444-142233.jpg,2238555262-330312.jpg,2.0,,,,AE3GUAQKXSNQ4
334,29,,1.0,9.0,2898633421-291973.jpg,2512876023-52283.jpg,1.0,,,,AE3GUAQKXSNQ4
335,30,,1.0,10.0,2874302418-65978.jpg,2238481198-19823.jpg,2.0,,,,AE3GUAQKXSNQ4
336,31,,1.0,11.0,2452381505-199546.jpg,2994401319-148290.jpg,3.0,,,,AE3GUAQKXSNQ4
337,32,,1.0,12.0,2452380832-348593.jpg,2238481813-19930.jpg,2.0,,,,AE3GUAQKXSNQ4
338,33,,1.0,13.0,2981231403-71642.jpg,2579432519-130698.jpg,1.0,,,,AE3GUAQKXSNQ4
339,34,,1.0,14.0,2460547467-349421.jpg,2898631394-142727.jpg,1.0,,,,AE3GUAQKXSNQ4
340,35,,1.0,15.0,2874299429-139695.jpg,2883266388-67750.jpg,1.0,,,,AE3GUAQKXSNQ4
341,36,,1.0,16.0,2901939379-143480.jpg,2898632385-217139.jpg,3.0,,,,AE3GUAQKXSNQ4
342,37,right,1.0,17.0,right.jpg,,,right,0.6845,,AE3GUAQKXSNQ4
343,38,,1.0,18.0,2460547467-349422.jpg,2898618440-216545.jpg,1.0,,,,AE3GUAQKXSNQ4
344,39,,1.0,19.0,2986451363-73598.jpg,2237857458-1324.jpg,1.0,,,,AE3GUAQKXSNQ4
345,40,,1.0,20.0,2981241414-145842.jpg,2238516618-25604.jpg,1.0,,,,AE3GUAQKXSNQ4
346,41,,1.0,21.0,2512875899-126682.jpg,2460547536-274179.jpg,1.0,,,,AE3GUAQKXSNQ4
347,42,,1.0,22.0,2868474407-362883.jpg,2981246400-220363.jpg,2.0,,,,AE3GUAQKXSNQ4
348,43,,1.0,23.0,2458347385-199723.jpg,2427874554-121863.jpg,2.0,,,,AE3GUAQKXSNQ4
349,44,,1.0,24.0,2864910426-287204.jpg,2883268412-365899.jpg,2.0,,,,AE3GUAQKXSNQ4
350,45,,1.0,25.0,2901952513-70703.jpg,2238481198-19821.jpg,3.0,,,,AE3GUAQKXSNQ4
351,46,right,1.0,26.0,right.jpg,,,right,1.3726,,AE3GUAQKXSNQ4
352,47,,1.0,27.0,2883256307-365057.jpg,2864904453-63933.jpg,3.0,,,,AE3GUAQKXSNQ4
353,48,,1.0,28.0,2898634397-367080.jpg,2237944827-301472.jpg,1.0,,,,AE3GUAQKXSNQ4
354,49,,1.0,29.0,2883268471-290842.jpg,2883255450-215310.jpg,2.0,,,,AE3GUAQKXSNQ4
355,50,,1.0,30.0,2446759803-49249.jpg,2901951392-368654.jpg,3.0,,,,AE3GUAQKXSNQ4
356,51,,1.0,31.0,2964223381-294447.jpg,2901941438-69836.jpg,2.0,,,,AE3GUAQKXSNQ4
357,52,,1.0,32.0,2238425482-313537.jpg,2898633480-217190.jpg,3.0,,,,AE3GUAQKXSNQ4
358,53,,1.0,33.0,2460547508-51571.jpg,2901941438-69835.jpg,3.0,,,,AE3GUAQKXSNQ4
359,54,,1.0,34.0,2449442529-124445.jpg,2452380171-273112.jpg,1.0,,,,AE3GUAQKXSNQ4
360,55,,1.0,35.0,2883273443-68193.jpg,2460547508-51572.jpg,2.0,,,,AE3GUAQKXSNQ4
361,56,,1.0,36.0,2238481198-19822.jpg,2862691449-137104.jpg,1.0,,,,AE3GUAQKXSNQ4
362,57,,1.0,37.0,2238560245-182099.jpg,2874314526-289684.jpg,2.0,,,,AE3GUAQKXSNQ4
363,58,,1.0,38.0,2238480677-317399.jpg,2238481630-168218.jpg,1.0,,,,AE3GUAQKXSNQ4
364,59,,1.0,39.0,2964222378-71332.jpg,2981240424-145794.jpg,1.0,,,,AE3GUAQKXSNQ4
365,60,,1.0,40.0,2986451363-73599.jpg,2860302315-210704.jpg,2.0,,,,AE3GUAQKXSNQ4
366,61,,1.0,41.0,2874301407-363895.jpg,2901947323-70275.jpg,3.0,,,,AE3GUAQKXSNQ4
367,62,,1.0,42.0,2575120738-55529.jpg,2238531493-28260.jpg,3.0,,,,AE3GUAQKXSNQ4
368,63,right,1.0,43.0,right.jpg,,,right,0.8797,,AE3GUAQKXSNQ4
369,64,,1.0,44.0,2898624426-291546.jpg,2981236443-71859.jpg,2.0,,,,AE3GUAQKXSNQ4
370,65,,1.0,45.0,2592380177-354626.jpg,2864901386-286797.jpg,2.0,,,,AE3GUAQKXSNQ4
371,66,,1.0,46.0,2901947423-70311.jpg,2238573447-333826.jpg,2.0,,,,AE3GUAQKXSNQ4
372,67,right,1.0,47.0,right.jpg,,,right,1.4696,,AE3GUAQKXSNQ4
373,68,,1.0,48.0,2901939379-143479.jpg,2446758985-197610.jpg,2.0,,,,AE3GUAQKXSNQ4
374,69,,1.0,49.0,2964213381-294060.jpg,2964213381-294061.jpg,3.0,,,,AE3GUAQKXSNQ4
375,70,,1.0,50.0,2592379964-131054.jpg,2592380272-354673.jpg,3.0,,,,AE3GUAQKXSNQ4
376,71,,1.0,51.0,2592380177-354629.jpg,2512875587-350044.jpg,3.0,,,,AE3GUAQKXSNQ4
377,72,,1.0,52.0,2874299429-139694.jpg,2986447306-296584.jpg,1.0,,,,AE3GUAQKXSNQ4
378,73,,1.0,53.0,2898618390-216538.jpg,2237856148-989.jpg,1.0,,,,AE3GUAQKXSNQ4
379,74,,1.0,54.0,2868475410-213219.jpg,2238480803-19739.jpg,2.0,,,,AE3GUAQKXSNQ4
380,75,,1.0,55.0,2864907432-362042.jpg,2864901420-212147.jpg,1.0,,,,AE3GUAQKXSNQ4
381,76,,1.0,56.0,2449442529-124446.jpg,2460547536-274178.jpg,3.0,,,,AE3GUAQKXSNQ4
382,77,,1.0,57.0,2238580740-186218.jpg,2964220333-71258.jpg,3.0,,,,AE3GUAQKXSNQ4
383,78,,1.0,58.0,2898635427-367120.jpg,2898621427-366486.jpg,3.0,,,,AE3GUAQKXSNQ4
384,79,,1.0,59.0,2874307433-66280.jpg,2981246400-220365.jpg,2.0,,,,AE3GUAQKXSNQ4
385,80,,1.0,60.0,2898617468-68274.jpg,2901943387-368037.jpg,2.0,,,,AE3GUAQKXSNQ4
386,81,,1.0,61.0,2446758985-197609.jpg,2898624426-291544.jpg,3.0,,,,AE3GUAQKXSNQ4
387,82,,1.0,62.0,2901941401-292798.jpg,2898631468-68931.jpg,3.0,,,,AE3GUAQKXSNQ4
388,83,,1.0,63.0,2964216465-219242.jpg,2864900319-137787.jpg,2.0,,,,AE3GUAQKXSNQ4
389,84,,1.0,64.0,2238428357-313623.jpg,2238499057-320266.jpg,1.0,,,,AE3GUAQKXSNQ4
390,20,,1.0,0.0,2460547467-349422.jpg,2898618440-216545.jpg,1.0,,,,A1XPZRA2XD4GNF
391,21,,1.0,1.0,2864907432-362042.jpg,2864901420-212147.jpg,1.0,,,,A1XPZRA2XD4GNF
392,22,,1.0,2.0,2592380177-354629.jpg,2898633421-291974.jpg,1.0,,,,A1XPZRA2XD4GNF
393,23,,1.0,3.0,2874302418-65978.jpg,2898633321-291943.jpg,3.0,,,,A1XPZRA2XD4GNF
394,24,,1.0,4.0,2898635428-69104.jpg,2901943411-292945.jpg,2.0,,,,A1XPZRA2XD4GNF
395,25,,1.0,5.0,2874299429-139695.jpg,2901942443-69923.jpg,2.0,,,,A1XPZRA2XD4GNF
396,26,,1.0,6.0,2901952513-70703.jpg,2238481198-19821.jpg,3.0,,,,A1XPZRA2XD4GNF
397,27,,1.0,7.0,2986451363-73599.jpg,2860302315-210704.jpg,2.0,,,,A1XPZRA2XD4GNF
398,28,,1.0,8.0,2868475410-213219.jpg,2901946465-218350.jpg,1.0,,,,A1XPZRA2XD4GNF
399,29,,0.0,9.0,right.jpg,,,right,,,A1XPZRA2XD4GNF
400,30,,1.0,10.0,2449442529-124446.jpg,2446759803-49251.jpg,1.0,,,,A1XPZRA2XD4GNF
401,31,,1.0,11.0,2874299429-139694.jpg,2883266367-365742.jpg,3.0,,,,A1XPZRA2XD4GNF
402,32,,1.0,12.0,2901941401-292798.jpg,2898618327-366317.jpg,1.0,,,,A1XPZRA2XD4GNF
403,33,,1.0,13.0,2901939379-143480.jpg,2898632385-217139.jpg,3.0,,,,A1XPZRA2XD4GNF
404,34,,1.0,14.0,2874303365-214262.jpg,2238563377-332054.jpg,2.0,,,,A1XPZRA2XD4GNF
405,35,,1.0,15.0,2898617468-68274.jpg,2901946439-144040.jpg,1.0,,,,A1XPZRA2XD4GNF
406,36,,1.0,16.0,2575120738-55529.jpg,2575120738-55528.jpg,2.0,,,,A1XPZRA2XD4GNF
407,37,,1.0,17.0,2981241414-145842.jpg,2427873848-47312.jpg,3.0,,,,A1XPZRA2XD4GNF
408,38,,1.0,18.0,2238572663-35822.jpg,2864903351-286874.jpg,3.0,,,,A1XPZRA2XD4GNF
409,39,,1.0,19.0,2458347385-199723.jpg,2238480434-93829.jpg,1.0,,,,A1XPZRA2XD4GNF
410,40,,1.0,20.0,2901947423-70311.jpg,2238577590-185467.jpg,3.0,,,,A1XPZRA2XD4GNF
411,41,right,0.0,21.0,left.jpg,,,left,0.2894,,A1XPZRA2XD4GNF
412,42,,1.0,22.0,2460547467-349421.jpg,2981235446-294901.jpg,3.0,,,,A1XPZRA2XD4GNF
413,43,,1.0,23.0,2898634397-367080.jpg,2237944827-301472.jpg,1.0,,,,A1XPZRA2XD4GNF
414,44,,1.0,24.0,2238480677-317399.jpg,2238573546-258454.jpg,2.0,,,,A1XPZRA2XD4GNF
415,45,,1.0,25.0,2238481198-19822.jpg,2862691449-137104.jpg,1.0,,,,A1XPZRA2XD4GNF
416,46,,1.0,26.0,2883268412-365898.jpg,2238436252-314037.jpg,3.0,,,,A1XPZRA2XD4GNF
417,47,,1.0,27.0,2898618444-142233.jpg,2898631359-142721.jpg,1.0,,,,A1XPZRA2XD4GNF
418,48,,1.0,28.0,2883256307-365057.jpg,2864904453-63933.jpg,3.0,,,,A1XPZRA2XD4GNF
419,49,,1.0,29.0,2592380177-354626.jpg,2864901386-286797.jpg,2.0,,,,A1XPZRA2XD4GNF
420,50,right,0.0,30.0,left.jpg,,,left,0.106,,A1XPZRA2XD4GNF
421,51,,1.0,31.0,2874302418-65979.jpg,2238578544-111698.jpg,3.0,,,,A1XPZRA2XD4GNF
422,52,,1.0,32.0,2898633421-291973.jpg,2238550049-105691.jpg,3.0,,,,A1XPZRA2XD4GNF
423,53,,1.0,33.0,2446759803-49249.jpg,2446760601-272099.jpg,1.0,,,,A1XPZRA2XD4GNF
424,54,,1.0,34.0,2868474407-362883.jpg,2981246400-220363.jpg,2.0,,,,A1XPZRA2XD4GNF
425,55,,1.0,35.0,2874301407-363895.jpg,2446761374-124213.jpg,1.0,,,,A1XPZRA2XD4GNF
426,56,,1.0,36.0,2898635427-367120.jpg,2964221435-219434.jpg,1.0,,,,A1XPZRA2XD4GNF
427,57,,1.0,37.0,2874307433-66280.jpg,2984615358-72439.jpg,1.0,,,,A1XPZRA2XD4GNF
428,58,,1.0,38.0,2238428357-313623.jpg,2984615361-295509.jpg,2.0,,,,A1XPZRA2XD4GNF
429,59,,1.0,39.0,2452381505-199546.jpg,2994401319-148290.jpg,3.0,,,,A1XPZRA2XD4GNF
430,60,,1.0,40.0,2986451363-73598.jpg,2984628361-295995.jpg,2.0,,,,A1XPZRA2XD4GNF
431,61,,1.0,41.0,2446758985-197609.jpg,2864909447-362144.jpg,2.0,,,,A1XPZRA2XD4GNF
432,62,,1.0,42.0,2901939379-143479.jpg,2446758985-197610.jpg,2.0,,,,A1XPZRA2XD4GNF
433,63,,1.0,43.0,2864910426-287204.jpg,2864902304-137862.jpg,1.0,,,,A1XPZRA2XD4GNF
434,64,left,1.0,44.0,left.jpg,,,left,0.5763,,A1XPZRA2XD4GNF
435,65,,1.0,45.0,2452380832-348593.jpg,2237858942-299356.jpg,3.0,,,,A1XPZRA2XD4GNF
436,66,,1.0,46.0,2964216465-219242.jpg,2898619327-366362.jpg,3.0,,,,A1XPZRA2XD4GNF
437,67,,1.0,47.0,2238481928-19949.jpg,2981241419-145844.jpg,3.0,,,,A1XPZRA2XD4GNF
438,68,,1.0,48.0,2898624426-291546.jpg,2981236443-71859.jpg,2.0,,,,A1XPZRA2XD4GNF
439,69,,1.0,49.0,2964213381-294060.jpg,2458348012-349114.jpg,2.0,,,,A1XPZRA2XD4GNF
440,70,,1.0,50.0,2238580740-186218.jpg,2238521193-26285.jpg,2.0,,,,A1XPZRA2XD4GNF
441,71,,1.0,51.0,2964218374-144967.jpg,2964218374-144968.jpg,1.0,,,,A1XPZRA2XD4GNF
442,72,right,1.0,52.0,right.jpg,,,right,0.1946,,A1XPZRA2XD4GNF
443,73,,1.0,53.0,2964222378-71332.jpg,2901933382-367209.jpg,2.0,,,,A1XPZRA2XD4GNF
444,74,,1.0,54.0,2592379964-131054.jpg,2592380272-354673.jpg,3.0,,,,A1XPZRA2XD4GNF
445,75,,1.0,55.0,2883273443-68193.jpg,2460547508-51572.jpg,2.0,,,,A1XPZRA2XD4GNF
446,76,,1.0,56.0,2883268471-290842.jpg,2883255450-215310.jpg,2.0,,,,A1XPZRA2XD4GNF
447,77,,1.0,57.0,2512875899-126682.jpg,2460547536-274179.jpg,1.0,,,,A1XPZRA2XD4GNF
448,78,,1.0,58.0,2981231403-71642.jpg,2579432519-130698.jpg,1.0,,,,A1XPZRA2XD4GNF
449,79,,1.0,59.0,2964223381-294447.jpg,2898628438-68785.jpg,3.0,,,,A1XPZRA2XD4GNF
450,80,,1.0,60.0,2238560245-182099.jpg,2874314526-289684.jpg,2.0,,,,A1XPZRA2XD4GNF
451,81,,1.0,61.0,2460547508-51571.jpg,2981232437-369759.jpg,2.0,,,,A1XPZRA2XD4GNF
452,82,,1.0,62.0,2238425482-313537.jpg,2238471391-240918.jpg,1.0,,,,A1XPZRA2XD4GNF
453,83,,1.0,63.0,2449442529-124445.jpg,2898632385-217137.jpg,3.0,,,,A1XPZRA2XD4GNF
454,84,,1.0,64.0,2898618390-216538.jpg,2575120609-129862.jpg,3.0,,,,A1XPZRA2XD4GNF
455,20,,1.0,0.0,2446758985-197609.jpg,2898624426-291544.jpg,3.0,,,,A26LH08CVCL8G6
456,21,,1.0,1.0,2883268471-290842.jpg,2883268471-290843.jpg,1.0,,,,A26LH08CVCL8G6
457,22,,1.0,2.0,2901947423-70311.jpg,2238577590-185467.jpg,3.0,,,,A26LH08CVCL8G6
458,23,,1.0,3.0,2883268412-365898.jpg,2238436252-314037.jpg,3.0,,,,A26LH08CVCL8G6
459,24,,1.0,4.0,2874303365-214262.jpg,2274829821-263682.jpg,1.0,,,,A26LH08CVCL8G6
460,25,,1.0,5.0,2446759803-49249.jpg,2901951392-368654.jpg,3.0,,,,A26LH08CVCL8G6
461,26,,1.0,6.0,2874302418-65978.jpg,2238481198-19823.jpg,2.0,,,,A26LH08CVCL8G6
462,27,,1.0,7.0,2449442529-124445.jpg,2452380171-273112.jpg,1.0,,,,A26LH08CVCL8G6
463,28,,1.0,8.0,2592380177-354629.jpg,2579432534-130704.jpg,2.0,,,,A26LH08CVCL8G6
464,29,,1.0,9.0,2964216465-219242.jpg,2864900319-137787.jpg,2.0,,,,A26LH08CVCL8G6
465,30,,1.0,10.0,2981241414-145842.jpg,2427873848-47312.jpg,3.0,,,,A26LH08CVCL8G6
466,31,,1.0,11.0,2964218374-144967.jpg,2964218374-144968.jpg,1.0,,,,A26LH08CVCL8G6
467,32,,1.0,12.0,2238481928-19949.jpg,2864900357-361688.jpg,2.0,,,,A26LH08CVCL8G6
468,33,,1.0,13.0,2874299429-139694.jpg,2883266367-365742.jpg,3.0,,,,A26LH08CVCL8G6
469,34,left,1.0,14.0,left.jpg,,,left,0.938,,A26LH08CVCL8G6
470,35,,1.0,15.0,2238572663-35822.jpg,2864903351-286874.jpg,3.0,,,,A26LH08CVCL8G6
471,36,,1.0,16.0,2964223381-294447.jpg,2427874231-269884.jpg,1.0,,,,A26LH08CVCL8G6
472,37,left,0.0,17.0,right.jpg,,,right,0.2686,,A26LH08CVCL8G6
473,38,,1.0,18.0,2460547508-51571.jpg,2981232437-369759.jpg,2.0,,,,A26LH08CVCL8G6
474,39,,1.0,19.0,2512875899-126682.jpg,2460547536-274179.jpg,1.0,,,,A26LH08CVCL8G6
475,40,,1.0,20.0,2592379964-131054.jpg,2575963989-130576.jpg,1.0,,,,A26LH08CVCL8G6
476,41,,1.0,21.0,2883256307-365057.jpg,2611628310-206388.jpg,1.0,,,,A26LH08CVCL8G6
477,42,,1.0,22.0,2449442529-124446.jpg,2460547536-274181.jpg,2.0,,,,A26LH08CVCL8G6
478,43,,1.0,23.0,2986451363-73598.jpg,2237857458-1324.jpg,1.0,,,,A26LH08CVCL8G6
479,44,,1.0,24.0,2460547467-349422.jpg,2864909447-362146.jpg,3.0,,,,A26LH08CVCL8G6
480,45,,1.0,25.0,2874299429-139695.jpg,2883266388-67750.jpg,1.0,,,,A26LH08CVCL8G6
481,46,,1.0,26.0,2452381505-199546.jpg,2901938432-367627.jpg,1.0,,,,A26LH08CVCL8G6
482,47,right,1.0,27.0,right.jpg,,,right,1.4872,,A26LH08CVCL8G6
483,48,,1.0,28.0,2898624426-291546.jpg,2964218432-369263.jpg,1.0,,,,A26LH08CVCL8G6
484,49,,1.0,29.0,2901939379-143479.jpg,2964216376-294181.jpg,3.0,,,,A26LH08CVCL8G6
485,50,,1.0,30.0,2874302418-65979.jpg,2238578544-111698.jpg,3.0,,,,A26LH08CVCL8G6
486,51,,1.0,31.0,2238428357-313623.jpg,2986408339-146952.jpg,3.0,,,,A26LH08CVCL8G6
487,52,,1.0,32.0,2898635427-367120.jpg,2868479517-363220.jpg,2.0,,,,A26LH08CVCL8G6
488,53,,1.0,33.0,2458347385-199723.jpg,2427874554-121863.jpg,2.0,,,,A26LH08CVCL8G6
489,54,,1.0,34.0,2452380832-348593.jpg,2238481813-19930.jpg,2.0,,,,A26LH08CVCL8G6
490,55,,1.0,35.0,2238580740-186218.jpg,2238521193-26285.jpg,2.0,,,,A26LH08CVCL8G6
491,56,,1.0,36.0,2868475410-213219.jpg,2901946465-218350.jpg,1.0,,,,A26LH08CVCL8G6
492,57,,1.0,37.0,2592380177-354626.jpg,2238576792-334659.jpg,1.0,,,,A26LH08CVCL8G6
493,58,,1.0,38.0,2460547467-349421.jpg,2452380166-273110.jpg,2.0,,,,A26LH08CVCL8G6
494,59,,1.0,39.0,2898634397-367080.jpg,2964217461-294238.jpg,3.0,,,,A26LH08CVCL8G6
495,60,,1.0,40.0,2981231403-71642.jpg,2427873763-47290.jpg,3.0,,,,A26LH08CVCL8G6
496,61,,1.0,41.0,2986451363-73599.jpg,2898626385-216899.jpg,1.0,,,,A26LH08CVCL8G6
497,62,,1.0,42.0,2901939379-143480.jpg,2981229442-369621.jpg,2.0,,,,A26LH08CVCL8G6
498,63,left,1.0,43.0,left.jpg,,,left,1.207,,A26LH08CVCL8G6
499,64,,1.0,44.0,2898618444-142233.jpg,2898631359-142721.jpg,1.0,,,,A26LH08CVCL8G6
500,65,,1.0,45.0,2864910426-287204.jpg,2864902304-137862.jpg,1.0,,,,A26LH08CVCL8G6
501,66,,1.0,46.0,2874307433-66280.jpg,2981246400-220365.jpg,2.0,,,,A26LH08CVCL8G6
502,67,,1.0,47.0,2238481198-19822.jpg,2901946436-293242.jpg,2.0,,,,A26LH08CVCL8G6
503,68,,1.0,48.0,2901941401-292798.jpg,2981243412-370222.jpg,2.0,,,,A26LH08CVCL8G6
504,69,,1.0,49.0,2864907432-362042.jpg,2901947423-70310.jpg,2.0,,,,A26LH08CVCL8G6
505,70,,1.0,50.0,2874301407-363895.jpg,2901947323-70275.jpg,3.0,,,,A26LH08CVCL8G6
506,71,left,1.0,51.0,left.jpg,,,left,0.6382,,A26LH08CVCL8G6
507,72,,1.0,52.0,2964213381-294060.jpg,2964213381-294061.jpg,3.0,,,,A26LH08CVCL8G6
508,73,,1.0,53.0,2901952513-70703.jpg,2864907361-287062.jpg,1.0,,,,A26LH08CVCL8G6
509,74,,1.0,54.0,2964222378-71332.jpg,2901933382-367209.jpg,2.0,,,,A26LH08CVCL8G6
510,75,,1.0,55.0,2238480677-317399.jpg,2238481630-168218.jpg,1.0,,,,A26LH08CVCL8G6
511,76,,1.0,56.0,2898635428-69104.jpg,2901943411-292945.jpg,2.0,,,,A26LH08CVCL8G6
512,77,,1.0,57.0,2883273443-68193.jpg,2898627427-366763.jpg,3.0,,,,A26LH08CVCL8G6
513,78,,1.0,58.0,2868474407-362883.jpg,2981246400-220363.jpg,2.0,,,,A26LH08CVCL8G6
514,79,,1.0,59.0,2238425482-313537.jpg,2898633480-217190.jpg,3.0,,,,A26LH08CVCL8G6
515,80,,1.0,60.0,2898633421-291973.jpg,2575118671-277663.jpg,2.0,,,,A26LH08CVCL8G6
516,81,,1.0,61.0,2898618390-216538.jpg,2575120609-129862.jpg,3.0,,,,A26LH08CVCL8G6
517,82,,1.0,62.0,2238560245-182099.jpg,2238480980-168129.jpg,3.0,,,,A26LH08CVCL8G6
518,83,,1.0,63.0,2898617468-68274.jpg,2901946439-144040.jpg,1.0,,,,A26LH08CVCL8G6
519,84,,1.0,64.0,2575120738-55529.jpg,2238531493-28260.jpg,3.0,,,,A26LH08CVCL8G6
520,20,,1.0,0.0,2874299429-139695.jpg,2901942443-69923.jpg,2.0,,,,ALYR5CI2SM2JC
521,21,,1.0,1.0,2898618390-216538.jpg,2575120609-129862.jpg,3.0,,,,ALYR5CI2SM2JC
522,22,,1.0,2.0,2883256307-365057.jpg,2964210336-293945.jpg,2.0,,,,ALYR5CI2SM2JC
523,23,,1.0,3.0,2449442529-124446.jpg,2446759803-49251.jpg,1.0,,,,ALYR5CI2SM2JC
524,24,,1.0,4.0,2238481928-19949.jpg,2981241419-145844.jpg,3.0,,,,ALYR5CI2SM2JC
525,25,,1.0,5.0,2901939379-143479.jpg,2964216376-294181.jpg,3.0,,,,ALYR5CI2SM2JC
526,26,,1.0,6.0,2238425482-313537.jpg,2238436322-314047.jpg,2.0,,,,ALYR5CI2SM2JC
527,27,,1.0,7.0,2238572663-35822.jpg,2238571930-184143.jpg,2.0,,,,ALYR5CI2SM2JC
528,28,,1.0,8.0,2238481198-19822.jpg,2862691449-137104.jpg,1.0,,,,ALYR5CI2SM2JC
529,29,right,1.0,9.0,right.jpg,,,right,0.5754,,ALYR5CI2SM2JC
530,30,,1.0,10.0,2898634397-367080.jpg,2901934408-69289.jpg,2.0,,,,ALYR5CI2SM2JC
531,31,,1.0,11.0,2964223381-294447.jpg,2901941438-69836.jpg,2.0,,,,ALYR5CI2SM2JC
532,32,,1.0,12.0,2898635427-367120.jpg,2898621427-366486.jpg,3.0,,,,ALYR5CI2SM2JC
533,33,,1.0,13.0,2458347385-199723.jpg,2458347252-348911.jpg,3.0,,,,ALYR5CI2SM2JC
534,34,,1.0,14.0,2446758985-197609.jpg,2981240424-145795.jpg,1.0,,,,ALYR5CI2SM2JC
535,35,,1.0,15.0,2238580740-186218.jpg,2238521193-26285.jpg,2.0,,,,ALYR5CI2SM2JC
536,36,left,1.0,16.0,left.jpg,,,left,0.5843,,ALYR5CI2SM2JC
537,37,,1.0,17.0,2238428357-313623.jpg,2238499057-320266.jpg,1.0,,,,ALYR5CI2SM2JC
538,38,,1.0,18.0,2592380177-354626.jpg,2238117096-228518.jpg,3.0,,,,ALYR5CI2SM2JC
539,39,,1.0,19.0,2446759803-49249.jpg,2446760601-272099.jpg,1.0,,,,ALYR5CI2SM2JC
540,40,,1.0,20.0,2449442529-124445.jpg,2898632385-217137.jpg,3.0,,,,ALYR5CI2SM2JC
541,41,,1.0,21.0,2868474407-362883.jpg,2460547732-349518.jpg,1.0,,,,ALYR5CI2SM2JC
542,42,,1.0,22.0,2964216465-219242.jpg,2238544191-252422.jpg,1.0,,,,ALYR5CI2SM2JC
543,43,,1.0,23.0,2964222378-71332.jpg,2981240424-145794.jpg,1.0,,,,ALYR5CI2SM2JC
544,44,,1.0,24.0,2512875899-126682.jpg,2986447332-371497.jpg,3.0,,,,ALYR5CI2SM2JC
545,45,,1.0,25.0,2883273443-68193.jpg,2883254439-140940.jpg,1.0,,,,ALYR5CI2SM2JC
546,46,left,1.0,26.0,left.jpg,,,left,0.5987,,ALYR5CI2SM2JC
547,47,,1.0,27.0,2868475410-213219.jpg,2238480803-19739.jpg,2.0,,,,ALYR5CI2SM2JC
548,48,,1.0,28.0,2901952513-70703.jpg,2864907361-287062.jpg,1.0,,,,ALYR5CI2SM2JC
549,49,,1.0,29.0,2964213381-294060.jpg,2981244394-145974.jpg,1.0,,,,ALYR5CI2SM2JC
550,50,,1.0,30.0,2883268412-365898.jpg,2984615361-295510.jpg,2.0,,,,ALYR5CI2SM2JC
551,51,,1.0,31.0,2901941401-292798.jpg,2898631468-68931.jpg,3.0,,,,ALYR5CI2SM2JC
552,52,,1.0,32.0,2452380832-348593.jpg,2238328478-11678.jpg,1.0,,,,ALYR5CI2SM2JC
553,53,,1.0,33.0,2883268471-290842.jpg,2883255450-215310.jpg,2.0,,,,ALYR5CI2SM2JC
554,54,,1.0,34.0,2460547508-51571.jpg,2452380166-273109.jpg,1.0,,,,ALYR5CI2SM2JC
555,55,,1.0,35.0,2864907432-362042.jpg,2864901420-212147.jpg,1.0,,,,ALYR5CI2SM2JC
556,56,,1.0,36.0,2592380177-354629.jpg,2579432534-130704.jpg,2.0,,,,ALYR5CI2SM2JC
557,57,,1.0,37.0,2981231403-71642.jpg,2579432519-130698.jpg,1.0,,,,ALYR5CI2SM2JC
558,58,left,1.0,38.0,left.jpg,,,left,0.5628,,ALYR5CI2SM2JC
559,59,,1.0,39.0,2592379964-131054.jpg,2238479053-19457.jpg,2.0,,,,ALYR5CI2SM2JC
560,60,,1.0,40.0,2452381505-199546.jpg,2898632385-217138.jpg,2.0,,,,ALYR5CI2SM2JC
561,61,,1.0,41.0,2901939379-143480.jpg,2901942428-69919.jpg,1.0,,,,ALYR5CI2SM2JC
562,62,,1.0,42.0,2874307433-66280.jpg,2981231422-369714.jpg,3.0,,,,ALYR5CI2SM2JC
563,63,,1.0,43.0,2238560245-182099.jpg,2238480980-168129.jpg,3.0,,,,ALYR5CI2SM2JC
564,64,,1.0,44.0,2460547467-349421.jpg,2981235446-294901.jpg,3.0,,,,ALYR5CI2SM2JC
565,65,,1.0,45.0,2986451363-73598.jpg,2237857458-1324.jpg,1.0,,,,ALYR5CI2SM2JC
566,66,,1.0,46.0,2898633421-291973.jpg,2238550049-105691.jpg,3.0,,,,ALYR5CI2SM2JC
567,67,,1.0,47.0,2898618444-142233.jpg,2238555262-330312.jpg,2.0,,,,ALYR5CI2SM2JC
568,68,,1.0,48.0,2238480677-317399.jpg,2238480278-19661.jpg,3.0,,,,ALYR5CI2SM2JC
569,69,left,1.0,49.0,left.jpg,,,left,0.5558,,ALYR5CI2SM2JC
570,70,,1.0,50.0,2898635428-69104.jpg,2446759803-49250.jpg,1.0,,,,ALYR5CI2SM2JC
571,71,,1.0,51.0,2981241414-145842.jpg,2874301404-139813.jpg,2.0,,,,ALYR5CI2SM2JC
572,72,,1.0,52.0,2964218374-144967.jpg,2981231446-294732.jpg,3.0,,,,ALYR5CI2SM2JC
573,73,,1.0,53.0,2874301407-363895.jpg,2986397322-371109.jpg,2.0,,,,ALYR5CI2SM2JC
574,74,,1.0,54.0,2874299429-139694.jpg,2986447306-296584.jpg,1.0,,,,ALYR5CI2SM2JC
575,75,,1.0,55.0,2874303365-214262.jpg,2274829821-263682.jpg,1.0,,,,ALYR5CI2SM2JC
576,76,,1.0,56.0,2898624426-291546.jpg,2981235446-294900.jpg,3.0,,,,ALYR5CI2SM2JC
577,77,,1.0,57.0,2986451363-73599.jpg,2238434559-90406.jpg,3.0,,,,ALYR5CI2SM2JC
578,78,,1.0,58.0,2874302418-65978.jpg,2898633321-291943.jpg,3.0,,,,ALYR5CI2SM2JC
579,79,,1.0,59.0,2575120738-55529.jpg,2575120738-55528.jpg,2.0,,,,ALYR5CI2SM2JC
580,80,,1.0,60.0,2874302418-65979.jpg,2238480648-19714.jpg,2.0,,,,ALYR5CI2SM2JC
581,81,,1.0,61.0,2901947423-70311.jpg,2238573447-333826.jpg,2.0,,,,ALYR5CI2SM2JC
582,82,,1.0,62.0,2864910426-287204.jpg,2901939433-69672.jpg,3.0,,,,ALYR5CI2SM2JC
583,83,,1.0,63.0,2898617468-68274.jpg,2964207374-144577.jpg,3.0,,,,ALYR5CI2SM2JC
584,84,,1.0,64.0,2460547467-349422.jpg,2868487415-213924.jpg,2.0,,,,ALYR5CI2SM2JC
585,20,,1.0,0.0,2512875899-126682.jpg,2986447332-371497.jpg,3.0,,,,A3REPTAHMY4QO
586,21,,1.0,1.0,2452381505-199546.jpg,2994401319-148290.jpg,3.0,,,,A3REPTAHMY4QO
587,22,,1.0,2.0,2874302418-65978.jpg,2238481198-19823.jpg,2.0,,,,A3REPTAHMY4QO
588,23,,1.0,3.0,2883256307-365057.jpg,2611628310-206388.jpg,1.0,,,,A3REPTAHMY4QO
589,24,,1.0,4.0,2458347385-199723.jpg,2458347252-348911.jpg,3.0,,,,A3REPTAHMY4QO
590,25,,1.0,5.0,2981231403-71642.jpg,2874305405-214397.jpg,2.0,,,,A3REPTAHMY4QO
591,26,,1.0,6.0,2981241414-145842.jpg,2427873848-47312.jpg,3.0,,,,A3REPTAHMY4QO
592,27,,1.0,7.0,2898624426-291546.jpg,2981236443-71859.jpg,2.0,,,,A3REPTAHMY4QO
593,28,,1.0,8.0,2449442529-124445.jpg,2898632385-217137.jpg,3.0,,,,A3REPTAHMY4QO
594,29,,1.0,9.0,2874301407-363895.jpg,2986397322-371109.jpg,2.0,,,,A3REPTAHMY4QO
595,30,,1.0,10.0,2898635428-69104.jpg,2446759803-49250.jpg,1.0,,,,A3REPTAHMY4QO
596,31,,0.0,11.0,left.jpg,,,left,,,A3REPTAHMY4QO
597,32,,1.0,12.0,2898618444-142233.jpg,2898618444-142232.jpg,3.0,,,,A3REPTAHMY4QO
598,33,,1.0,13.0,2874299429-139695.jpg,2446760917-347439.jpg,3.0,,,,A3REPTAHMY4QO
599,34,,1.0,14.0,2452380832-348593.jpg,2237858942-299356.jpg,3.0,,,,A3REPTAHMY4QO
600,35,,1.0,15.0,2460547508-51571.jpg,2981232437-369759.jpg,2.0,,,,A3REPTAHMY4QO
601,36,,1.0,16.0,2238428357-313623.jpg,2986408339-146952.jpg,3.0,,,,A3REPTAHMY4QO
602,37,,1.0,17.0,2592379964-131054.jpg,2238479053-19457.jpg,2.0,,,,A3REPTAHMY4QO
603,38,,1.0,18.0,2964218374-144967.jpg,2964218374-144968.jpg,1.0,,,,A3REPTAHMY4QO
604,39,,1.0,19.0,2964213381-294060.jpg,2458348012-349114.jpg,2.0,,,,A3REPTAHMY4QO
605,40,,1.0,20.0,2460547467-349422.jpg,2898618440-216545.jpg,1.0,,,,A3REPTAHMY4QO
606,41,,1.0,21.0,2898635427-367120.jpg,2898621427-366486.jpg,3.0,,,,A3REPTAHMY4QO
607,42,,1.0,22.0,2901952513-70703.jpg,2864907361-287062.jpg,1.0,,,,A3REPTAHMY4QO
608,43,,1.0,23.0,2238481928-19949.jpg,2883264367-365620.jpg,1.0,,,,A3REPTAHMY4QO
609,44,,0.0,24.0,right.jpg,,,right,,,A3REPTAHMY4QO
610,45,,1.0,25.0,2238481198-19822.jpg,2901946436-293242.jpg,2.0,,,,A3REPTAHMY4QO
611,46,,0.0,26.0,right.jpg,,,right,,,A3REPTAHMY4QO
612,47,,1.0,27.0,2883273443-68193.jpg,2883254439-140940.jpg,1.0,,,,A3REPTAHMY4QO
613,48,,1.0,28.0,2874302418-65979.jpg,2238578544-111698.jpg,3.0,,,,A3REPTAHMY4QO
614,49,,1.0,29.0,2868474407-362883.jpg,2460547732-349518.jpg,1.0,,,,A3REPTAHMY4QO
615,50,,1.0,30.0,2883268412-365898.jpg,2984626312-370849.jpg,1.0,,,,A3REPTAHMY4QO
616,51,,1.0,31.0,2901941401-292798.jpg,2981243412-370222.jpg,2.0,,,,A3REPTAHMY4QO
617,52,,1.0,32.0,2449442529-124446.jpg,2460547536-274178.jpg,3.0,,,,A3REPTAHMY4QO
618,53,,1.0,33.0,2986451363-73598.jpg,2237857458-1324.jpg,1.0,,,,A3REPTAHMY4QO
619,54,,1.0,34.0,2901939379-143479.jpg,2964216376-294181.jpg,3.0,,,,A3REPTAHMY4QO
620,55,,1.0,35.0,2592380177-354629.jpg,2512875587-350044.jpg,3.0,,,,A3REPTAHMY4QO
621,56,,1.0,36.0,2874299429-139694.jpg,2981244403-72215.jpg,2.0,,,,A3REPTAHMY4QO
622,57,,1.0,37.0,2575120738-55529.jpg,2864906345-212360.jpg,1.0,,,,A3REPTAHMY4QO
623,58,,1.0,38.0,2964216465-219242.jpg,2898619327-366362.jpg,3.0,,,,A3REPTAHMY4QO
624,59,,0.0,39.0,left.jpg,,,left,,,A3REPTAHMY4QO
625,60,,1.0,40.0,2238572663-35822.jpg,2238571930-184143.jpg,2.0,,,,A3REPTAHMY4QO
626,61,,1.0,41.0,2898618390-216538.jpg,2575120609-129862.jpg,3.0,,,,A3REPTAHMY4QO
627,62,,1.0,42.0,2874303365-214262.jpg,2238563377-332054.jpg,2.0,,,,A3REPTAHMY4QO
628,63,,1.0,43.0,2446759803-49249.jpg,2898618440-216547.jpg,2.0,,,,A3REPTAHMY4QO
629,64,,1.0,44.0,2898617468-68274.jpg,2901946439-144040.jpg,1.0,,,,A3REPTAHMY4QO
630,65,,1.0,45.0,2964223381-294447.jpg,2427874231-269884.jpg,1.0,,,,A3REPTAHMY4QO
631,66,,1.0,46.0,2592380177-354626.jpg,2864901386-286797.jpg,2.0,,,,A3REPTAHMY4QO
632,67,,0.0,47.0,left.jpg,,,left,,,A3REPTAHMY4QO
633,68,,1.0,48.0,2898633421-291973.jpg,2575118671-277663.jpg,2.0,,,,A3REPTAHMY4QO
634,69,,1.0,49.0,2864910426-287204.jpg,2901939433-69672.jpg,3.0,,,,A3REPTAHMY4QO
635,70,,1.0,50.0,2238425482-313537.jpg,2238436322-314047.jpg,2.0,,,,A3REPTAHMY4QO
636,71,,1.0,51.0,2901939379-143480.jpg,2901942428-69919.jpg,1.0,,,,A3REPTAHMY4QO
637,72,,1.0,52.0,2446758985-197609.jpg,2981240424-145795.jpg,1.0,,,,A3REPTAHMY4QO
638,73,,1.0,53.0,2238560245-182099.jpg,2238480980-168129.jpg,3.0,,,,A3REPTAHMY4QO
639,74,,1.0,54.0,2898634397-367080.jpg,2237944827-301472.jpg,1.0,,,,A3REPTAHMY4QO
640,75,,1.0,55.0,2238580740-186218.jpg,2964220333-71258.jpg,3.0,,,,A3REPTAHMY4QO
641,76,,1.0,56.0,2868475410-213219.jpg,2901946465-218350.jpg,1.0,,,,A3REPTAHMY4QO
642,77,,1.0,57.0,2874307433-66280.jpg,2984615358-72439.jpg,1.0,,,,A3REPTAHMY4QO
643,78,,1.0,58.0,2238480677-317399.jpg,2238481630-168218.jpg,1.0,,,,A3REPTAHMY4QO
644,79,,1.0,59.0,2883268471-290842.jpg,2883255450-215310.jpg,2.0,,,,A3REPTAHMY4QO
645,80,,1.0,60.0,2864907432-362042.jpg,2864901420-212147.jpg,1.0,,,,A3REPTAHMY4QO
646,81,,1.0,61.0,2964222378-71332.jpg,2901933382-367209.jpg,2.0,,,,A3REPTAHMY4QO
647,82,,1.0,62.0,2901947423-70311.jpg,2238577590-185467.jpg,3.0,,,,A3REPTAHMY4QO
648,83,,1.0,63.0,2986451363-73599.jpg,2860302315-210704.jpg,2.0,,,,A3REPTAHMY4QO
649,84,,1.0,64.0,2460547467-349421.jpg,2452380166-273110.jpg,2.0,,,,A3REPTAHMY4QO
650,20,,1.0,0.0,2575120738-55529.jpg,2238531493-28260.jpg,3.0,,,,A2NLR3S7WBULAK
651,21,,1.0,1.0,2512875899-126682.jpg,2460547536-274179.jpg,1.0,,,,A2NLR3S7WBULAK
652,22,,1.0,2.0,2898617468-68274.jpg,2901943387-368037.jpg,2.0,,,,A2NLR3S7WBULAK
653,23,,1.0,3.0,2446758985-197609.jpg,2864909447-362144.jpg,2.0,,,,A2NLR3S7WBULAK
654,24,,1.0,4.0,2238572663-35822.jpg,2864903351-286874.jpg,3.0,,,,A2NLR3S7WBULAK
655,25,,1.0,5.0,2964218374-144967.jpg,2446759306-271734.jpg,2.0,,,,A2NLR3S7WBULAK
656,26,,1.0,6.0,2901947423-70311.jpg,2860312398-62572.jpg,1.0,,,,A2NLR3S7WBULAK
657,27,,1.0,7.0,2458347385-199723.jpg,2458347252-348911.jpg,3.0,,,,A2NLR3S7WBULAK
658,28,left,1.0,8.0,left.jpg,,,left,0.9424,,A2NLR3S7WBULAK
659,29,,1.0,9.0,2874307433-66280.jpg,2981246400-220365.jpg,2.0,,,,A2NLR3S7WBULAK
660,30,,1.0,10.0,2868475410-213219.jpg,2868474407-362885.jpg,3.0,,,,A2NLR3S7WBULAK
661,31,,1.0,11.0,2868474407-362883.jpg,2981246400-220363.jpg,2.0,,,,A2NLR3S7WBULAK
662,32,,1.0,12.0,2898635428-69104.jpg,2898625336-291572.jpg,3.0,,,,A2NLR3S7WBULAK
663,33,,1.0,13.0,2864907432-362042.jpg,2864901420-212147.jpg,1.0,,,,A2NLR3S7WBULAK
664,34,,1.0,14.0,2964213381-294060.jpg,2981244394-145974.jpg,1.0,,,,A2NLR3S7WBULAK
665,35,,1.0,15.0,2238480677-317399.jpg,2238481630-168218.jpg,1.0,,,,A2NLR3S7WBULAK
666,36,left,1.0,16.0,left.jpg,,,left,0.9064,,A2NLR3S7WBULAK
667,37,,1.0,17.0,2592380177-354626.jpg,2238117096-228518.jpg,3.0,,,,A2NLR3S7WBULAK
668,38,,1.0,18.0,2592379964-131054.jpg,2575963989-130576.jpg,1.0,,,,A2NLR3S7WBULAK
669,39,,1.0,19.0,2901941401-292798.jpg,2898631468-68931.jpg,3.0,,,,A2NLR3S7WBULAK
670,40,,1.0,20.0,2901952513-70703.jpg,2238481198-19821.jpg,3.0,,,,A2NLR3S7WBULAK
671,41,,1.0,21.0,2874302418-65979.jpg,2238480648-19714.jpg,2.0,,,,A2NLR3S7WBULAK
672,42,,1.0,22.0,2592380177-354629.jpg,2898633421-291974.jpg,1.0,,,,A2NLR3S7WBULAK
673,43,,1.0,23.0,2874299429-139695.jpg,2883266388-67750.jpg,1.0,,,,A2NLR3S7WBULAK
674,44,,1.0,24.0,2238425482-313537.jpg,2238436322-314047.jpg,2.0,,,,A2NLR3S7WBULAK
675,45,,1.0,25.0,2986451363-73598.jpg,2901942443-69925.jpg,3.0,,,,A2NLR3S7WBULAK
676,46,,1.0,26.0,2898635427-367120.jpg,2964221435-219434.jpg,1.0,,,,A2NLR3S7WBULAK
677,47,,1.0,27.0,2460547508-51571.jpg,2981232437-369759.jpg,2.0,,,,A2NLR3S7WBULAK
678,48,,1.0,28.0,2964216465-219242.jpg,2898619327-366362.jpg,3.0,,,,A2NLR3S7WBULAK
679,49,,1.0,29.0,2901939379-143480.jpg,2981229442-369621.jpg,2.0,,,,A2NLR3S7WBULAK
680,50,,0.0,30.0,right.jpg,,,right,,,A2NLR3S7WBULAK
681,51,,1.0,31.0,2874301407-363895.jpg,2986397322-371109.jpg,2.0,,,,A2NLR3S7WBULAK
682,52,,1.0,32.0,2460547467-349421.jpg,2981235446-294901.jpg,3.0,,,,A2NLR3S7WBULAK
683,53,,1.0,33.0,2238428357-313623.jpg,2238499057-320266.jpg,1.0,,,,A2NLR3S7WBULAK
684,54,,1.0,34.0,2901939379-143479.jpg,2460547467-349423.jpg,1.0,,,,A2NLR3S7WBULAK
685,55,,1.0,35.0,2446759803-49249.jpg,2901951392-368654.jpg,3.0,,,,A2NLR3S7WBULAK
686,56,,1.0,36.0,2452380832-348593.jpg,2238481813-19930.jpg,2.0,,,,A2NLR3S7WBULAK
687,57,,1.0,37.0,2981241414-145842.jpg,2238516618-25604.jpg,1.0,,,,A2NLR3S7WBULAK
688,58,,1.0,38.0,2898618444-142233.jpg,2238555262-330312.jpg,2.0,,,,A2NLR3S7WBULAK
689,59,,1.0,39.0,2874302418-65978.jpg,2898633321-291943.jpg,3.0,,,,A2NLR3S7WBULAK
690,60,,0.0,40.0,right.jpg,,,right,,,A2NLR3S7WBULAK
691,61,,1.0,41.0,2874303365-214262.jpg,2238563377-332054.jpg,2.0,,,,A2NLR3S7WBULAK
692,62,,1.0,42.0,2238481198-19822.jpg,2862691449-137104.jpg,1.0,,,,A2NLR3S7WBULAK
693,63,,1.0,43.0,2460547467-349422.jpg,2864909447-362146.jpg,3.0,,,,A2NLR3S7WBULAK
694,64,,1.0,44.0,2981231403-71642.jpg,2427873763-47290.jpg,3.0,,,,A2NLR3S7WBULAK
695,65,,1.0,45.0,2238560245-182099.jpg,2592380255-205553.jpg,1.0,,,,A2NLR3S7WBULAK
696,66,,1.0,46.0,2449442529-124446.jpg,2460547536-274181.jpg,2.0,,,,A2NLR3S7WBULAK
697,67,,1.0,47.0,2898624426-291546.jpg,2981236443-71859.jpg,2.0,,,,A2NLR3S7WBULAK
698,68,,1.0,48.0,2986451363-73599.jpg,2898626385-216899.jpg,1.0,,,,A2NLR3S7WBULAK
699,69,,1.0,49.0,2874299429-139694.jpg,2981244403-72215.jpg,2.0,,,,A2NLR3S7WBULAK
700,70,left,1.0,50.0,left.jpg,,,left,1.3716,,A2NLR3S7WBULAK
701,71,,1.0,51.0,2864910426-287204.jpg,2864902304-137862.jpg,1.0,,,,A2NLR3S7WBULAK
702,72,,1.0,52.0,2898618390-216538.jpg,2901939327-367670.jpg,2.0,,,,A2NLR3S7WBULAK
703,73,,1.0,53.0,2883273443-68193.jpg,2883254439-140940.jpg,1.0,,,,A2NLR3S7WBULAK
704,74,,1.0,54.0,2964222378-71332.jpg,2981240424-145794.jpg,1.0,,,,A2NLR3S7WBULAK
705,75,,1.0,55.0,2238580740-186218.jpg,2238521193-26285.jpg,2.0,,,,A2NLR3S7WBULAK
706,76,,1.0,56.0,2238481928-19949.jpg,2864900357-361688.jpg,2.0,,,,A2NLR3S7WBULAK
707,77,,1.0,57.0,2898634397-367080.jpg,2964217461-294238.jpg,3.0,,,,A2NLR3S7WBULAK
708,78,,1.0,58.0,2883268471-290842.jpg,2883268471-290843.jpg,1.0,,,,A2NLR3S7WBULAK
709,79,,1.0,59.0,2964223381-294447.jpg,2898628438-68785.jpg,3.0,,,,A2NLR3S7WBULAK
710,80,,1.0,60.0,2883268412-365898.jpg,2984615361-295510.jpg,2.0,,,,A2NLR3S7WBULAK
711,81,,1.0,61.0,2883256307-365057.jpg,2864904453-63933.jpg,3.0,,,,A2NLR3S7WBULAK
712,82,,1.0,62.0,2452381505-199546.jpg,2901938432-367627.jpg,1.0,,,,A2NLR3S7WBULAK
713,83,,1.0,63.0,2449442529-124445.jpg,2898632385-217137.jpg,3.0,,,,A2NLR3S7WBULAK
714,84,,1.0,64.0,2898633421-291973.jpg,2238550049-105691.jpg,3.0,,,,A2NLR3S7WBULAK
715,20,,1.0,0.0,2868474407-362883.jpg,2901948383-70363.jpg,3.0,,,,A3MC0GSXYQ2P7A
716,21,,1.0,1.0,2238428357-313623.jpg,2986408339-146952.jpg,3.0,,,,A3MC0GSXYQ2P7A
717,22,,1.0,2.0,2986451363-73599.jpg,2898626385-216899.jpg,1.0,,,,A3MC0GSXYQ2P7A
718,23,,1.0,3.0,2898635428-69104.jpg,2901943411-292945.jpg,2.0,,,,A3MC0GSXYQ2P7A
719,24,,1.0,4.0,2901952513-70703.jpg,2868469411-287540.jpg,2.0,,,,A3MC0GSXYQ2P7A
720,25,,1.0,5.0,2512875899-126682.jpg,2460547536-274179.jpg,1.0,,,,A3MC0GSXYQ2P7A
721,26,,1.0,6.0,2449442529-124445.jpg,2986408373-73286.jpg,2.0,,,,A3MC0GSXYQ2P7A
722,27,,1.0,7.0,2874302418-65978.jpg,2898633321-291943.jpg,3.0,,,,A3MC0GSXYQ2P7A
723,28,,1.0,8.0,2458347385-199723.jpg,2238480434-93829.jpg,1.0,,,,A3MC0GSXYQ2P7A
724,29,,1.0,9.0,2238572663-35822.jpg,2864903351-286874.jpg,3.0,,,,A3MC0GSXYQ2P7A
725,30,,1.0,10.0,2460547508-51571.jpg,2452380166-273109.jpg,1.0,,,,A3MC0GSXYQ2P7A
726,31,,1.0,11.0,2460547467-349422.jpg,2868487415-213924.jpg,2.0,,,,A3MC0GSXYQ2P7A
727,32,,1.0,12.0,2868475410-213219.jpg,2868474407-362885.jpg,3.0,,,,A3MC0GSXYQ2P7A
728,33,,1.0,13.0,2883268471-290842.jpg,2883255450-215310.jpg,2.0,,,,A3MC0GSXYQ2P7A
729,34,,0.0,14.0,right.jpg,,,right,,,A3MC0GSXYQ2P7A
730,35,,1.0,15.0,2883268412-365898.jpg,2984615361-295510.jpg,2.0,,,,A3MC0GSXYQ2P7A
731,36,,1.0,16.0,2874303365-214262.jpg,2274829821-263682.jpg,1.0,,,,A3MC0GSXYQ2P7A
732,37,left,1.0,17.0,left.jpg,,,left,1.9786,,A3MC0GSXYQ2P7A
733,38,,1.0,18.0,2238560245-182099.jpg,2874314526-289684.jpg,2.0,,,,A3MC0GSXYQ2P7A
734,39,,1.0,19.0,2901941401-292798.jpg,2898618327-366317.jpg,1.0,,,,A3MC0GSXYQ2P7A
735,40,,1.0,20.0,2986451363-73598.jpg,2901942443-69925.jpg,3.0,,,,A3MC0GSXYQ2P7A
736,41,,1.0,21.0,2981231403-71642.jpg,2579432519-130698.jpg,1.0,,,,A3MC0GSXYQ2P7A
737,42,,1.0,22.0,2452381505-199546.jpg,2898632385-217138.jpg,2.0,,,,A3MC0GSXYQ2P7A
738,43,,1.0,23.0,2964218374-144967.jpg,2981231446-294732.jpg,3.0,,,,A3MC0GSXYQ2P7A
739,44,,1.0,24.0,2883256307-365057.jpg,2864904453-63933.jpg,3.0,,,,A3MC0GSXYQ2P7A
740,45,,1.0,25.0,2874299429-139695.jpg,2901942443-69923.jpg,2.0,,,,A3MC0GSXYQ2P7A
741,46,,1.0,26.0,2901939379-143479.jpg,2460547467-349423.jpg,1.0,,,,A3MC0GSXYQ2P7A
742,47,,1.0,27.0,2238580740-186218.jpg,2238550816-254000.jpg,1.0,,,,A3MC0GSXYQ2P7A
743,48,,1.0,28.0,2964223381-294447.jpg,2898628438-68785.jpg,3.0,,,,A3MC0GSXYQ2P7A
744,49,,1.0,29.0,2874299429-139694.jpg,2981244403-72215.jpg,2.0,,,,A3MC0GSXYQ2P7A
745,50,left,1.0,30.0,left.jpg,,,left,1.9186,,A3MC0GSXYQ2P7A
746,51,,1.0,31.0,2898618390-216538.jpg,2901939327-367670.jpg,2.0,,,,A3MC0GSXYQ2P7A
747,52,,1.0,32.0,2592379964-131054.jpg,2238479053-19457.jpg,2.0,,,,A3MC0GSXYQ2P7A
748,53,,1.0,33.0,2592380177-354629.jpg,2512875587-350044.jpg,3.0,,,,A3MC0GSXYQ2P7A
749,54,,1.0,34.0,2898618444-142233.jpg,2898618444-142232.jpg,3.0,,,,A3MC0GSXYQ2P7A
750,55,,1.0,35.0,2446759803-49249.jpg,2446760601-272099.jpg,1.0,,,,A3MC0GSXYQ2P7A
751,56,,1.0,36.0,2898624426-291546.jpg,2981236443-71859.jpg,2.0,,,,A3MC0GSXYQ2P7A
752,57,right,1.0,37.0,right.jpg,,,right,2.3109,,A3MC0GSXYQ2P7A
753,58,,1.0,38.0,2238481198-19822.jpg,2901946436-293242.jpg,2.0,,,,A3MC0GSXYQ2P7A
754,59,,1.0,39.0,2883273443-68193.jpg,2460547508-51572.jpg,2.0,,,,A3MC0GSXYQ2P7A
755,60,,1.0,40.0,2460547467-349421.jpg,2898631394-142727.jpg,1.0,,,,A3MC0GSXYQ2P7A
756,61,,1.0,41.0,2864910426-287204.jpg,2864902304-137862.jpg,1.0,,,,A3MC0GSXYQ2P7A
757,62,,1.0,42.0,2575120738-55529.jpg,2575120738-55528.jpg,2.0,,,,A3MC0GSXYQ2P7A
758,63,,1.0,43.0,2964216465-219242.jpg,2238544191-252422.jpg,1.0,,,,A3MC0GSXYQ2P7A
759,64,,1.0,44.0,2964213381-294060.jpg,2981244394-145974.jpg,1.0,,,,A3MC0GSXYQ2P7A
760,65,,1.0,45.0,2864907432-362042.jpg,2864901420-212147.jpg,1.0,,,,A3MC0GSXYQ2P7A
761,66,,1.0,46.0,2981241414-145842.jpg,2427873848-47312.jpg,3.0,,,,A3MC0GSXYQ2P7A
762,67,,1.0,47.0,2898617468-68274.jpg,2901943387-368037.jpg,2.0,,,,A3MC0GSXYQ2P7A
763,68,,1.0,48.0,2238480677-317399.jpg,2238480278-19661.jpg,3.0,,,,A3MC0GSXYQ2P7A
764,69,,1.0,49.0,2898633421-291973.jpg,2512876023-52283.jpg,1.0,,,,A3MC0GSXYQ2P7A
765,70,,1.0,50.0,2238481928-19949.jpg,2864900357-361688.jpg,2.0,,,,A3MC0GSXYQ2P7A
766,71,,0.0,51.0,right.jpg,,,right,,,A3MC0GSXYQ2P7A
767,72,,1.0,52.0,2964222378-71332.jpg,2981240427-370099.jpg,3.0,,,,A3MC0GSXYQ2P7A
768,73,,1.0,53.0,2898634397-367080.jpg,2964217461-294238.jpg,3.0,,,,A3MC0GSXYQ2P7A
769,74,,1.0,54.0,2874301407-363895.jpg,2901947323-70275.jpg,3.0,,,,A3MC0GSXYQ2P7A
770,75,,1.0,55.0,2898635427-367120.jpg,2868479517-363220.jpg,2.0,,,,A3MC0GSXYQ2P7A
771,76,,1.0,56.0,2452380832-348593.jpg,2237858942-299356.jpg,3.0,,,,A3MC0GSXYQ2P7A
772,77,,1.0,57.0,2592380177-354626.jpg,2238576792-334659.jpg,1.0,,,,A3MC0GSXYQ2P7A
773,78,,1.0,58.0,2901939379-143480.jpg,2898632385-217139.jpg,3.0,,,,A3MC0GSXYQ2P7A
774,79,,1.0,59.0,2874307433-66280.jpg,2984615358-72439.jpg,1.0,,,,A3MC0GSXYQ2P7A
775,80,,1.0,60.0,2874302418-65979.jpg,2237857458-1325.jpg,1.0,,,,A3MC0GSXYQ2P7A
776,81,,1.0,61.0,2449442529-124446.jpg,2460547536-274181.jpg,2.0,,,,A3MC0GSXYQ2P7A
777,82,,1.0,62.0,2446758985-197609.jpg,2898624426-291544.jpg,3.0,,,,A3MC0GSXYQ2P7A
778,83,,1.0,63.0,2901947423-70311.jpg,2238577590-185467.jpg,3.0,,,,A3MC0GSXYQ2P7A
779,84,,1.0,64.0,2238425482-313537.jpg,2238471391-240918.jpg,1.0,,,,A3MC0GSXYQ2P7A
780,20,,1.0,0.0,2592380177-354626.jpg,2238576792-334659.jpg,1.0,,,,A2FAAOGWUTTTF5
781,21,,1.0,1.0,2446758985-197609.jpg,2864909447-362144.jpg,2.0,,,,A2FAAOGWUTTTF5
782,22,,1.0,2.0,2238572663-35822.jpg,2238584894-113161.jpg,1.0,,,,A2FAAOGWUTTTF5
783,23,,1.0,3.0,2901939379-143479.jpg,2964216376-294181.jpg,3.0,,,,A2FAAOGWUTTTF5
784,24,,1.0,4.0,2238580740-186218.jpg,2964220333-71258.jpg,3.0,,,,A2FAAOGWUTTTF5
785,25,,1.0,5.0,2592380177-354629.jpg,2898633421-291974.jpg,1.0,,,,A2FAAOGWUTTTF5
786,26,,1.0,6.0,2874301407-363895.jpg,2446761374-124213.jpg,1.0,,,,A2FAAOGWUTTTF5
787,27,,1.0,7.0,2874302418-65979.jpg,2238480648-19714.jpg,2.0,,,,A2FAAOGWUTTTF5
788,28,left,1.0,8.0,left.jpg,,,left,1.7506,,A2FAAOGWUTTTF5
789,29,,1.0,9.0,2592379964-131054.jpg,2575963989-130576.jpg,1.0,,,,A2FAAOGWUTTTF5
790,30,,1.0,10.0,2898617468-68274.jpg,2901943387-368037.jpg,2.0,,,,A2FAAOGWUTTTF5
791,31,,1.0,11.0,2452380832-348593.jpg,2237858942-299356.jpg,3.0,,,,A2FAAOGWUTTTF5
792,32,,1.0,12.0,2981231403-71642.jpg,2427873763-47290.jpg,3.0,,,,A2FAAOGWUTTTF5
793,33,,1.0,13.0,2874299429-139695.jpg,2446760917-347439.jpg,3.0,,,,A2FAAOGWUTTTF5
794,34,,1.0,14.0,2986451363-73599.jpg,2860302315-210704.jpg,2.0,,,,A2FAAOGWUTTTF5
795,35,,1.0,15.0,2460547508-51571.jpg,2452380166-273109.jpg,1.0,,,,A2FAAOGWUTTTF5
796,36,,1.0,16.0,2874302418-65978.jpg,2898633321-291943.jpg,3.0,,,,A2FAAOGWUTTTF5
797,37,,1.0,17.0,2864907432-362042.jpg,2901947423-70310.jpg,2.0,,,,A2FAAOGWUTTTF5
798,38,,1.0,18.0,2883268471-290842.jpg,2883268471-290843.jpg,1.0,,,,A2FAAOGWUTTTF5
799,39,left,1.0,19.0,left.jpg,,,left,1.5218,,A2FAAOGWUTTTF5
800,40,,1.0,20.0,2238560245-182099.jpg,2238480980-168129.jpg,3.0,,,,A2FAAOGWUTTTF5
801,41,,1.0,21.0,2238428357-313623.jpg,2238499057-320266.jpg,1.0,,,,A2FAAOGWUTTTF5
802,42,,1.0,22.0,2460547467-349421.jpg,2981235446-294901.jpg,3.0,,,,A2FAAOGWUTTTF5
803,43,,1.0,23.0,2512875899-126682.jpg,2986447332-371497.jpg,3.0,,,,A2FAAOGWUTTTF5
804,44,,1.0,24.0,2874303365-214262.jpg,2238563377-332054.jpg,2.0,,,,A2FAAOGWUTTTF5
805,45,,1.0,25.0,2901939379-143480.jpg,2981229442-369621.jpg,2.0,,,,A2FAAOGWUTTTF5
806,46,left,1.0,26.0,left.jpg,,,left,2.357400001,,A2FAAOGWUTTTF5
807,47,,1.0,27.0,2901947423-70311.jpg,2238577590-185467.jpg,3.0,,,,A2FAAOGWUTTTF5
808,48,,1.0,28.0,2964223381-294447.jpg,2901941438-69836.jpg,2.0,,,,A2FAAOGWUTTTF5
809,49,,1.0,29.0,2864910426-287204.jpg,2883268412-365899.jpg,2.0,,,,A2FAAOGWUTTTF5
810,50,,1.0,30.0,2964216465-219242.jpg,2898619327-366362.jpg,3.0,,,,A2FAAOGWUTTTF5
811,51,,1.0,31.0,2874299429-139694.jpg,2986447306-296584.jpg,1.0,,,,A2FAAOGWUTTTF5
812,52,,1.0,32.0,2238425482-313537.jpg,2238436322-314047.jpg,2.0,,,,A2FAAOGWUTTTF5
813,53,,1.0,33.0,2883268412-365898.jpg,2984626312-370849.jpg,1.0,,,,A2FAAOGWUTTTF5
814,54,,1.0,34.0,2868474407-362883.jpg,2901948383-70363.jpg,3.0,,,,A2FAAOGWUTTTF5
815,55,,1.0,35.0,2898618390-216538.jpg,2575120609-129862.jpg,3.0,,,,A2FAAOGWUTTTF5
816,56,,1.0,36.0,2898635427-367120.jpg,2964221435-219434.jpg,1.0,,,,A2FAAOGWUTTTF5
817,57,,1.0,37.0,2238481198-19822.jpg,2238480803-19737.jpg,3.0,,,,A2FAAOGWUTTTF5
818,58,,1.0,38.0,2238481928-19949.jpg,2883264367-365620.jpg,1.0,,,,A2FAAOGWUTTTF5
819,59,,1.0,39.0,2964213381-294060.jpg,2458348012-349114.jpg,2.0,,,,A2FAAOGWUTTTF5
820,60,,1.0,40.0,2898634397-367080.jpg,2964217461-294238.jpg,3.0,,,,A2FAAOGWUTTTF5
821,61,,1.0,41.0,2981241414-145842.jpg,2238516618-25604.jpg,1.0,,,,A2FAAOGWUTTTF5
822,62,,1.0,42.0,2898624426-291546.jpg,2964218432-369263.jpg,1.0,,,,A2FAAOGWUTTTF5
823,63,,1.0,43.0,2449442529-124446.jpg,2446759803-49251.jpg,1.0,,,,A2FAAOGWUTTTF5
824,64,,0.0,44.0,left.jpg,,,left,,,A2FAAOGWUTTTF5
825,65,,1.0,45.0,2446759803-49249.jpg,2898618440-216547.jpg,2.0,,,,A2FAAOGWUTTTF5
826,66,,1.0,46.0,2898633421-291973.jpg,2575118671-277663.jpg,2.0,,,,A2FAAOGWUTTTF5
827,67,,1.0,47.0,2883256307-365057.jpg,2864904453-63933.jpg,3.0,,,,A2FAAOGWUTTTF5
828,68,right,1.0,48.0,right.jpg,,,right,2.7493,,A2FAAOGWUTTTF5
829,69,,1.0,49.0,2883273443-68193.jpg,2898627427-366763.jpg,3.0,,,,A2FAAOGWUTTTF5
830,70,,1.0,50.0,2575120738-55529.jpg,2864906345-212360.jpg,1.0,,,,A2FAAOGWUTTTF5
831,71,,1.0,51.0,2964218374-144967.jpg,2446759306-271734.jpg,2.0,,,,A2FAAOGWUTTTF5
832,72,,1.0,52.0,2901941401-292798.jpg,2898631468-68931.jpg,3.0,,,,A2FAAOGWUTTTF5
833,73,,1.0,53.0,2898618444-142233.jpg,2898618444-142232.jpg,3.0,,,,A2FAAOGWUTTTF5
834,74,,1.0,54.0,2898635428-69104.jpg,2898625336-291572.jpg,3.0,,,,A2FAAOGWUTTTF5
835,75,,1.0,55.0,2460547467-349422.jpg,2868487415-213924.jpg,2.0,,,,A2FAAOGWUTTTF5
836,76,,1.0,56.0,2452381505-199546.jpg,2901938432-367627.jpg,1.0,,,,A2FAAOGWUTTTF5
837,77,,1.0,57.0,2449442529-124445.jpg,2452380171-273112.jpg,1.0,,,,A2FAAOGWUTTTF5
838,78,,1.0,58.0,2901952513-70703.jpg,2864907361-287062.jpg,1.0,,,,A2FAAOGWUTTTF5
839,79,,1.0,59.0,2458347385-199723.jpg,2427874554-121863.jpg,2.0,,,,A2FAAOGWUTTTF5
840,80,,1.0,60.0,2238480677-317399.jpg,2238573546-258454.jpg,2.0,,,,A2FAAOGWUTTTF5
841,81,,1.0,61.0,2964222378-71332.jpg,2901933382-367209.jpg,2.0,,,,A2FAAOGWUTTTF5
842,82,,1.0,62.0,2986451363-73598.jpg,2984628361-295995.jpg,2.0,,,,A2FAAOGWUTTTF5
843,83,,1.0,63.0,2868475410-213219.jpg,2901946465-218350.jpg,1.0,,,,A2FAAOGWUTTTF5
844,84,,1.0,64.0,2874307433-66280.jpg,2981246400-220365.jpg,2.0,,,,A2FAAOGWUTTTF5
845,20,,1.0,0.0,2898624426-291546.jpg,2981236443-71859.jpg,2.0,,,,AG62J8MOAACK3
846,21,,1.0,1.0,2238572663-35822.jpg,2238571930-184143.jpg,2.0,,,,AG62J8MOAACK3
847,22,,1.0,2.0,2964213381-294060.jpg,2964213381-294061.jpg,3.0,,,,AG62J8MOAACK3
848,23,,1.0,3.0,2592380177-354626.jpg,2864901386-286797.jpg,2.0,,,,AG62J8MOAACK3
849,24,,1.0,4.0,2449442529-124446.jpg,2460547536-274178.jpg,3.0,,,,AG62J8MOAACK3
850,25,,1.0,5.0,2964218374-144967.jpg,2446759306-271734.jpg,2.0,,,,AG62J8MOAACK3
851,26,right,0.0,6.0,left.jpg,,,left,0.0059,,AG62J8MOAACK3
852,27,,1.0,7.0,2874302418-65979.jpg,2238480648-19714.jpg,2.0,,,,AG62J8MOAACK3
853,28,,1.0,8.0,2986451363-73598.jpg,2901942443-69925.jpg,3.0,,,,AG62J8MOAACK3
854,29,,1.0,9.0,2452381505-199546.jpg,2898632385-217138.jpg,2.0,,,,AG62J8MOAACK3
855,30,,1.0,10.0,2864907432-362042.jpg,2989726338-74002.jpg,3.0,,,,AG62J8MOAACK3
856,31,,1.0,11.0,2460547508-51571.jpg,2452380166-273109.jpg,1.0,,,,AG62J8MOAACK3
857,32,,1.0,12.0,2964222378-71332.jpg,2981240424-145794.jpg,1.0,,,,AG62J8MOAACK3
858,33,,1.0,13.0,2986451363-73599.jpg,2898626385-216899.jpg,1.0,,,,AG62J8MOAACK3
859,34,,1.0,14.0,2238480677-317399.jpg,2238573546-258454.jpg,2.0,,,,AG62J8MOAACK3
860,35,,1.0,15.0,2874303365-214262.jpg,2274829821-263682.jpg,1.0,,,,AG62J8MOAACK3
861,36,,1.0,16.0,2901939379-143479.jpg,2446758985-197610.jpg,2.0,,,,AG62J8MOAACK3
862,37,,1.0,17.0,2874302418-65978.jpg,2238481198-19823.jpg,2.0,,,,AG62J8MOAACK3
863,38,,1.0,18.0,2452380832-348593.jpg,2237858942-299356.jpg,3.0,,,,AG62J8MOAACK3
864,39,,1.0,19.0,2901941401-292798.jpg,2898618327-366317.jpg,1.0,,,,AG62J8MOAACK3
865,40,,1.0,20.0,2868475410-213219.jpg,2868474407-362885.jpg,3.0,,,,AG62J8MOAACK3
866,41,left,1.0,21.0,left.jpg,,,left,1.2619,,AG62J8MOAACK3
867,42,,1.0,22.0,2898635427-367120.jpg,2964221435-219434.jpg,1.0,,,,AG62J8MOAACK3
868,43,,1.0,23.0,2964216465-219242.jpg,2898619327-366362.jpg,3.0,,,,AG62J8MOAACK3
869,44,,1.0,24.0,2901947423-70311.jpg,2238577590-185467.jpg,3.0,,,,AG62J8MOAACK3
870,45,,1.0,25.0,2449442529-124445.jpg,2898632385-217137.jpg,3.0,,,,AG62J8MOAACK3
871,46,,1.0,26.0,2238481198-19822.jpg,2862691449-137104.jpg,1.0,,,,AG62J8MOAACK3
872,47,,1.0,27.0,2592380177-354629.jpg,2898633421-291974.jpg,1.0,,,,AG62J8MOAACK3
873,48,,1.0,28.0,2868474407-362883.jpg,2901948383-70363.jpg,3.0,,,,AG62J8MOAACK3
874,49,,1.0,29.0,2883268471-290842.jpg,2901947448-70314.jpg,3.0,,,,AG62J8MOAACK3
875,50,,1.0,30.0,2898635428-69104.jpg,2446759803-49250.jpg,1.0,,,,AG62J8MOAACK3
876,51,,1.0,31.0,2901939379-143480.jpg,2898632385-217139.jpg,3.0,,,,AG62J8MOAACK3
877,52,,1.0,32.0,2898634397-367080.jpg,2964217461-294238.jpg,3.0,,,,AG62J8MOAACK3
878,53,left,1.0,33.0,left.jpg,,,left,1.1009,,AG62J8MOAACK3
879,54,,1.0,34.0,2238481928-19949.jpg,2864900357-361688.jpg,2.0,,,,AG62J8MOAACK3
880,55,,1.0,35.0,2238580740-186218.jpg,2238550816-254000.jpg,1.0,,,,AG62J8MOAACK3
881,56,,1.0,36.0,2864910426-287204.jpg,2883268412-365899.jpg,2.0,,,,AG62J8MOAACK3
882,57,,1.0,37.0,2883256307-365057.jpg,2964210336-293945.jpg,2.0,,,,AG62J8MOAACK3
883,58,left,1.0,38.0,left.jpg,,,left,1.231,,AG62J8MOAACK3
884,59,,1.0,39.0,2901952513-70703.jpg,2864907361-287062.jpg,1.0,,,,AG62J8MOAACK3
885,60,,1.0,40.0,2446759803-49249.jpg,2901951392-368654.jpg,3.0,,,,AG62J8MOAACK3
886,61,,1.0,41.0,2898618390-216538.jpg,2901939327-367670.jpg,2.0,,,,AG62J8MOAACK3
887,62,,1.0,42.0,2238560245-182099.jpg,2592380255-205553.jpg,1.0,,,,AG62J8MOAACK3
888,63,,1.0,43.0,2883273443-68193.jpg,2883254439-140940.jpg,1.0,,,,AG62J8MOAACK3
889,64,,1.0,44.0,2458347385-199723.jpg,2427874554-121863.jpg,2.0,,,,AG62J8MOAACK3
890,65,,1.0,45.0,2883268412-365898.jpg,2238436252-314037.jpg,3.0,,,,AG62J8MOAACK3
891,66,right,1.0,46.0,right.jpg,,,right,0.962599999,,AG62J8MOAACK3
892,67,,1.0,47.0,2981241414-145842.jpg,2874301404-139813.jpg,2.0,,,,AG62J8MOAACK3
893,68,,1.0,48.0,2981231403-71642.jpg,2874305405-214397.jpg,2.0,,,,AG62J8MOAACK3
894,69,,1.0,49.0,2575120738-55529.jpg,2575120738-55528.jpg,2.0,,,,AG62J8MOAACK3
895,70,,1.0,50.0,2446758985-197609.jpg,2981240424-145795.jpg,1.0,,,,AG62J8MOAACK3
896,71,,1.0,51.0,2874301407-363895.jpg,2446761374-124213.jpg,1.0,,,,AG62J8MOAACK3
897,72,,1.0,52.0,2874299429-139695.jpg,2446760917-347439.jpg,3.0,,,,AG62J8MOAACK3
898,73,,1.0,53.0,2898618444-142233.jpg,2898631359-142721.jpg,1.0,,,,AG62J8MOAACK3
899,74,,1.0,54.0,2898617468-68274.jpg,2964207374-144577.jpg,3.0,,,,AG62J8MOAACK3
900,75,,1.0,55.0,2460547467-349421.jpg,2981235446-294901.jpg,3.0,,,,AG62J8MOAACK3
901,76,,1.0,56.0,2874307433-66280.jpg,2984615358-72439.jpg,1.0,,,,AG62J8MOAACK3
902,77,,1.0,57.0,2874299429-139694.jpg,2883266367-365742.jpg,3.0,,,,AG62J8MOAACK3
903,78,,1.0,58.0,2238425482-313537.jpg,2238471391-240918.jpg,1.0,,,,AG62J8MOAACK3
904,79,,1.0,59.0,2238428357-313623.jpg,2238499057-320266.jpg,1.0,,,,AG62J8MOAACK3
905,80,,1.0,60.0,2592379964-131054.jpg,2592380272-354673.jpg,3.0,,,,AG62J8MOAACK3
906,81,,1.0,61.0,2898633421-291973.jpg,2575118671-277663.jpg,2.0,,,,AG62J8MOAACK3
907,82,,1.0,62.0,2460547467-349422.jpg,2868487415-213924.jpg,2.0,,,,AG62J8MOAACK3
908,83,,1.0,63.0,2964223381-294447.jpg,2427874231-269884.jpg,1.0,,,,AG62J8MOAACK3
909,84,,1.0,64.0,2512875899-126682.jpg,2592380177-354628.jpg,2.0,,,,AG62J8MOAACK3
910,20,,1.0,0.0,2238428357-313623.jpg,2984615361-295509.jpg,2.0,,,,A1BH4K9Z8JWLZ1
911,21,,1.0,1.0,2898617468-68274.jpg,2964207374-144577.jpg,3.0,,,,A1BH4K9Z8JWLZ1
912,22,,1.0,2.0,2874301407-363895.jpg,2901947323-70275.jpg,3.0,,,,A1BH4K9Z8JWLZ1
913,23,,1.0,3.0,2964216465-219242.jpg,2898619327-366362.jpg,3.0,,,,A1BH4K9Z8JWLZ1
914,24,,1.0,4.0,2981241414-145842.jpg,2874301404-139813.jpg,2.0,,,,A1BH4K9Z8JWLZ1
915,25,,1.0,5.0,2512875899-126682.jpg,2592380177-354628.jpg,2.0,,,,A1BH4K9Z8JWLZ1
916,26,,1.0,6.0,2868475410-213219.jpg,2901946465-218350.jpg,1.0,,,,A1BH4K9Z8JWLZ1
917,27,,1.0,7.0,2452380832-348593.jpg,2238328478-11678.jpg,1.0,,,,A1BH4K9Z8JWLZ1
918,28,right,1.0,8.0,right.jpg,,,right,0.7262,,A1BH4K9Z8JWLZ1
919,29,,1.0,9.0,2874299429-139694.jpg,2981244403-72215.jpg,2.0,,,,A1BH4K9Z8JWLZ1
920,30,,1.0,10.0,2446758985-197609.jpg,2864909447-362144.jpg,2.0,,,,A1BH4K9Z8JWLZ1
921,31,,1.0,11.0,2901941401-292798.jpg,2898631468-68931.jpg,3.0,,,,A1BH4K9Z8JWLZ1
922,32,,1.0,12.0,2575120738-55529.jpg,2238531493-28260.jpg,3.0,,,,A1BH4K9Z8JWLZ1
923,33,,1.0,13.0,2868474407-362883.jpg,2981246400-220363.jpg,2.0,,,,A1BH4K9Z8JWLZ1
924,34,,1.0,14.0,2964222378-71332.jpg,2981240424-145794.jpg,1.0,,,,A1BH4K9Z8JWLZ1
925,35,,1.0,15.0,2883273443-68193.jpg,2898627427-366763.jpg,3.0,,,,A1BH4K9Z8JWLZ1
926,36,,1.0,16.0,2238425482-313537.jpg,2238471391-240918.jpg,1.0,,,,A1BH4K9Z8JWLZ1
927,37,,1.0,17.0,2986451363-73598.jpg,2901942443-69925.jpg,3.0,,,,A1BH4K9Z8JWLZ1
928,38,,1.0,18.0,2874299429-139695.jpg,2901942443-69923.jpg,2.0,,,,A1BH4K9Z8JWLZ1
929,39,,1.0,19.0,2898633421-291973.jpg,2512876023-52283.jpg,1.0,,,,A1BH4K9Z8JWLZ1
930,40,,1.0,20.0,2460547508-51571.jpg,2901941438-69835.jpg,3.0,,,,A1BH4K9Z8JWLZ1
931,41,,0.0,21.0,left.jpg,,,left,,,A1BH4K9Z8JWLZ1
932,42,,1.0,22.0,2874302418-65978.jpg,2964224310-219528.jpg,1.0,,,,A1BH4K9Z8JWLZ1
933,43,,1.0,23.0,2964223381-294447.jpg,2427874231-269884.jpg,1.0,,,,A1BH4K9Z8JWLZ1
934,44,,1.0,24.0,2898635428-69104.jpg,2446759803-49250.jpg,1.0,,,,A1BH4K9Z8JWLZ1
935,45,,1.0,25.0,2592380177-354626.jpg,2864901386-286797.jpg,2.0,,,,A1BH4K9Z8JWLZ1
936,46,,1.0,26.0,2238481198-19822.jpg,2238480803-19737.jpg,3.0,,,,A1BH4K9Z8JWLZ1
937,47,,1.0,27.0,2964213381-294060.jpg,2458348012-349114.jpg,2.0,,,,A1BH4K9Z8JWLZ1
938,48,,1.0,28.0,2238580740-186218.jpg,2964220333-71258.jpg,3.0,,,,A1BH4K9Z8JWLZ1
939,49,,1.0,29.0,2964218374-144967.jpg,2964218374-144968.jpg,1.0,,,,A1BH4K9Z8JWLZ1
940,50,,1.0,30.0,2981231403-71642.jpg,2579432519-130698.jpg,1.0,,,,A1BH4K9Z8JWLZ1
941,51,,1.0,31.0,2901939379-143480.jpg,2901942428-69919.jpg,1.0,,,,A1BH4K9Z8JWLZ1
942,52,right,1.0,32.0,right.jpg,,,right,0.9888,,A1BH4K9Z8JWLZ1
943,53,,1.0,33.0,2449442529-124445.jpg,2452380171-273112.jpg,1.0,,,,A1BH4K9Z8JWLZ1
944,54,,1.0,34.0,2460547467-349422.jpg,2864909447-362146.jpg,3.0,,,,A1BH4K9Z8JWLZ1
945,55,,1.0,35.0,2901952513-70703.jpg,2238481198-19821.jpg,3.0,,,,A1BH4K9Z8JWLZ1
946,56,,1.0,36.0,2446759803-49249.jpg,2901951392-368654.jpg,3.0,,,,A1BH4K9Z8JWLZ1
947,57,,1.0,37.0,2864910426-287204.jpg,2883268412-365899.jpg,2.0,,,,A1BH4K9Z8JWLZ1
948,58,,1.0,38.0,2901947423-70311.jpg,2238577590-185467.jpg,3.0,,,,A1BH4K9Z8JWLZ1
949,59,,1.0,39.0,2883256307-365057.jpg,2611628310-206388.jpg,1.0,,,,A1BH4K9Z8JWLZ1
950,60,,1.0,40.0,2238560245-182099.jpg,2874314526-289684.jpg,2.0,,,,A1BH4K9Z8JWLZ1
951,61,,1.0,41.0,2592380177-354629.jpg,2579432534-130704.jpg,2.0,,,,A1BH4K9Z8JWLZ1
952,62,,1.0,42.0,2898618444-142233.jpg,2238555262-330312.jpg,2.0,,,,A1BH4K9Z8JWLZ1
953,63,,1.0,43.0,2238572663-35822.jpg,2864903351-286874.jpg,3.0,,,,A1BH4K9Z8JWLZ1
954,64,left,1.0,44.0,left.jpg,,,left,0.7404,,A1BH4K9Z8JWLZ1
955,65,,1.0,45.0,2883268471-290842.jpg,2901947448-70314.jpg,3.0,,,,A1BH4K9Z8JWLZ1
956,66,,1.0,46.0,2238480677-317399.jpg,2238573546-258454.jpg,2.0,,,,A1BH4K9Z8JWLZ1
957,67,,1.0,47.0,2592379964-131054.jpg,2575963989-130576.jpg,1.0,,,,A1BH4K9Z8JWLZ1
958,68,left,1.0,48.0,left.jpg,,,left,0.8639,,A1BH4K9Z8JWLZ1
959,69,,1.0,49.0,2898624426-291546.jpg,2981236443-71859.jpg,2.0,,,,A1BH4K9Z8JWLZ1
960,70,,1.0,50.0,2986451363-73599.jpg,2898626385-216899.jpg,1.0,,,,A1BH4K9Z8JWLZ1
961,71,,1.0,51.0,2452381505-199546.jpg,2898632385-217138.jpg,2.0,,,,A1BH4K9Z8JWLZ1
962,72,,1.0,52.0,2460547467-349421.jpg,2898631394-142727.jpg,1.0,,,,A1BH4K9Z8JWLZ1
963,73,,1.0,53.0,2898618390-216538.jpg,2901939327-367670.jpg,2.0,,,,A1BH4K9Z8JWLZ1
964,74,,1.0,54.0,2449442529-124446.jpg,2446759803-49251.jpg,1.0,,,,A1BH4K9Z8JWLZ1
965,75,,1.0,55.0,2864907432-362042.jpg,2989726338-74002.jpg,3.0,,,,A1BH4K9Z8JWLZ1
966,76,,1.0,56.0,2901939379-143479.jpg,2446758985-197610.jpg,2.0,,,,A1BH4K9Z8JWLZ1
967,77,,1.0,57.0,2898635427-367120.jpg,2868479517-363220.jpg,2.0,,,,A1BH4K9Z8JWLZ1
968,78,,1.0,58.0,2458347385-199723.jpg,2238480434-93829.jpg,1.0,,,,A1BH4K9Z8JWLZ1
969,79,,1.0,59.0,2883268412-365898.jpg,2238436252-314037.jpg,3.0,,,,A1BH4K9Z8JWLZ1
970,80,,1.0,60.0,2874303365-214262.jpg,2274829821-263682.jpg,1.0,,,,A1BH4K9Z8JWLZ1
971,81,,1.0,61.0,2898634397-367080.jpg,2237944827-301472.jpg,1.0,,,,A1BH4K9Z8JWLZ1
972,82,,1.0,62.0,2874307433-66280.jpg,2981231422-369714.jpg,3.0,,,,A1BH4K9Z8JWLZ1
973,83,,1.0,63.0,2874302418-65979.jpg,2238578544-111698.jpg,3.0,,,,A1BH4K9Z8JWLZ1
974,84,,1.0,64.0,2238481928-19949.jpg,2864900357-361688.jpg,2.0,,,,A1BH4K9Z8JWLZ1
975,20,,1.0,0.0,2898618444-142233.jpg,2898631359-142721.jpg,1.0,,,,AIB8QLWO1TVS
976,21,,1.0,1.0,2868475410-213219.jpg,2238480803-19739.jpg,2.0,,,,AIB8QLWO1TVS
977,22,,1.0,2.0,2898618390-216538.jpg,2901939327-367670.jpg,2.0,,,,AIB8QLWO1TVS
978,23,,1.0,3.0,2592379964-131054.jpg,2592380272-354673.jpg,3.0,,,,AIB8QLWO1TVS
979,24,,1.0,4.0,2981231403-71642.jpg,2427873763-47290.jpg,3.0,,,,AIB8QLWO1TVS
980,25,,1.0,5.0,2901941401-292798.jpg,2981243412-370222.jpg,2.0,,,,AIB8QLWO1TVS
981,26,,1.0,6.0,2449442529-124446.jpg,2446759803-49251.jpg,1.0,,,,AIB8QLWO1TVS
982,27,,1.0,7.0,2964213381-294060.jpg,2981244394-145974.jpg,1.0,,,,AIB8QLWO1TVS
983,28,right,1.0,8.0,right.jpg,,,right,1.1643,,AIB8QLWO1TVS
984,29,,1.0,9.0,2874301407-363895.jpg,2446761374-124213.jpg,1.0,,,,AIB8QLWO1TVS
985,30,,1.0,10.0,2874303365-214262.jpg,2238563377-332054.jpg,2.0,,,,AIB8QLWO1TVS
986,31,,1.0,11.0,2964216465-219242.jpg,2238544191-252422.jpg,1.0,,,,AIB8QLWO1TVS
987,32,,1.0,12.0,2964223381-294447.jpg,2901941438-69836.jpg,2.0,,,,AIB8QLWO1TVS
988,33,,1.0,13.0,2238572663-35822.jpg,2238571930-184143.jpg,2.0,,,,AIB8QLWO1TVS
989,34,,1.0,14.0,2964222378-71332.jpg,2981240427-370099.jpg,3.0,,,,AIB8QLWO1TVS
990,35,,1.0,15.0,2883256307-365057.jpg,2864904453-63933.jpg,3.0,,,,AIB8QLWO1TVS
991,36,,1.0,16.0,2238580740-186218.jpg,2238521193-26285.jpg,2.0,,,,AIB8QLWO1TVS
992,37,,1.0,17.0,2874302418-65978.jpg,2964224310-219528.jpg,1.0,,,,AIB8QLWO1TVS
993,38,,1.0,18.0,2460547467-349421.jpg,2452380166-273110.jpg,2.0,,,,AIB8QLWO1TVS
994,39,,1.0,19.0,2883268471-290842.jpg,2901947448-70314.jpg,3.0,,,,AIB8QLWO1TVS
995,40,,1.0,20.0,2898635428-69104.jpg,2898625336-291572.jpg,3.0,,,,AIB8QLWO1TVS
996,41,,1.0,21.0,2874299429-139695.jpg,2446760917-347439.jpg,3.0,,,,AIB8QLWO1TVS
997,42,right,1.0,22.0,right.jpg,,,right,1.26,,AIB8QLWO1TVS
998,43,,1.0,23.0,2238425482-313537.jpg,2238436322-314047.jpg,2.0,,,,AIB8QLWO1TVS
999,44,,1.0,24.0,2575120738-55529.jpg,2864906345-212360.jpg,1.0,,,,AIB8QLWO1TVS
1000,45,,1.0,25.0,2592380177-354626.jpg,2238576792-334659.jpg,1.0,,,,AIB8QLWO1TVS
1001,46,,1.0,26.0,2460547467-349422.jpg,2868487415-213924.jpg,2.0,,,,AIB8QLWO1TVS
1002,47,,1.0,27.0,2964218374-144967.jpg,2964218374-144968.jpg,1.0,,,,AIB8QLWO1TVS
1003,48,,1.0,28.0,2864907432-362042.jpg,2989726338-74002.jpg,3.0,,,,AIB8QLWO1TVS
1004,49,,1.0,29.0,2874299429-139694.jpg,2883266367-365742.jpg,3.0,,,,AIB8QLWO1TVS
1005,50,right,1.0,30.0,right.jpg,,,right,1.2777,,AIB8QLWO1TVS
1006,51,,1.0,31.0,2458347385-199723.jpg,2458347252-348911.jpg,3.0,,,,AIB8QLWO1TVS
1007,52,,1.0,32.0,2981241414-145842.jpg,2238516618-25604.jpg,1.0,,,,AIB8QLWO1TVS
1008,53,,1.0,33.0,2512875899-126682.jpg,2592380177-354628.jpg,2.0,,,,AIB8QLWO1TVS
1009,54,,1.0,34.0,2901939379-143479.jpg,2964216376-294181.jpg,3.0,,,,AIB8QLWO1TVS
1010,55,,1.0,35.0,2883268412-365898.jpg,2984615361-295510.jpg,2.0,,,,AIB8QLWO1TVS
1011,56,,1.0,36.0,2901947423-70311.jpg,2860312398-62572.jpg,1.0,,,,AIB8QLWO1TVS
1012,57,,1.0,37.0,2986451363-73598.jpg,2901942443-69925.jpg,3.0,,,,AIB8QLWO1TVS
1013,58,,1.0,38.0,2901952513-70703.jpg,2238481198-19821.jpg,3.0,,,,AIB8QLWO1TVS
1014,59,,1.0,39.0,2449442529-124445.jpg,2452380171-273112.jpg,1.0,,,,AIB8QLWO1TVS
1015,60,,1.0,40.0,2898633421-291973.jpg,2575118671-277663.jpg,2.0,,,,AIB8QLWO1TVS
1016,61,,1.0,41.0,2898635427-367120.jpg,2964221435-219434.jpg,1.0,,,,AIB8QLWO1TVS
1017,62,,1.0,42.0,2238481928-19949.jpg,2864900357-361688.jpg,2.0,,,,AIB8QLWO1TVS
1018,63,right,1.0,43.0,right.jpg,,,right,1.1726,,AIB8QLWO1TVS
1019,64,,1.0,44.0,2452380832-348593.jpg,2238328478-11678.jpg,1.0,,,,AIB8QLWO1TVS
1020,65,,1.0,45.0,2898624426-291546.jpg,2981235446-294900.jpg,3.0,,,,AIB8QLWO1TVS
1021,66,left,1.0,46.0,left.jpg,,,left,1.1558,,AIB8QLWO1TVS
1022,67,,1.0,47.0,2592380177-354629.jpg,2579432534-130704.jpg,2.0,,,,AIB8QLWO1TVS
1023,68,,1.0,48.0,2238560245-182099.jpg,2592380255-205553.jpg,1.0,,,,AIB8QLWO1TVS
1024,69,,1.0,49.0,2460547508-51571.jpg,2901941438-69835.jpg,3.0,,,,AIB8QLWO1TVS
1025,70,,1.0,50.0,2898617468-68274.jpg,2964207374-144577.jpg,3.0,,,,AIB8QLWO1TVS
1026,71,,1.0,51.0,2986451363-73599.jpg,2898626385-216899.jpg,1.0,,,,AIB8QLWO1TVS
1027,72,,1.0,52.0,2874302418-65979.jpg,2237857458-1325.jpg,1.0,,,,AIB8QLWO1TVS
1028,73,,1.0,53.0,2874307433-66280.jpg,2981246400-220365.jpg,2.0,,,,AIB8QLWO1TVS
1029,74,,1.0,54.0,2446758985-197609.jpg,2864909447-362144.jpg,2.0,,,,AIB8QLWO1TVS
1030,75,,1.0,55.0,2238480677-317399.jpg,2238480278-19661.jpg,3.0,,,,AIB8QLWO1TVS
1031,76,,1.0,56.0,2452381505-199546.jpg,2901938432-367627.jpg,1.0,,,,AIB8QLWO1TVS
1032,77,,1.0,57.0,2898634397-367080.jpg,2964217461-294238.jpg,3.0,,,,AIB8QLWO1TVS
1033,78,,1.0,58.0,2864910426-287204.jpg,2901939433-69672.jpg,3.0,,,,AIB8QLWO1TVS
1034,79,,1.0,59.0,2868474407-362883.jpg,2981246400-220363.jpg,2.0,,,,AIB8QLWO1TVS
1035,80,,1.0,60.0,2883273443-68193.jpg,2883254439-140940.jpg,1.0,,,,AIB8QLWO1TVS
1036,81,,1.0,61.0,2238481198-19822.jpg,2901946436-293242.jpg,2.0,,,,AIB8QLWO1TVS
1037,82,,1.0,62.0,2446759803-49249.jpg,2901951392-368654.jpg,3.0,,,,AIB8QLWO1TVS
1038,83,,1.0,63.0,2901939379-143480.jpg,2901942428-69919.jpg,1.0,,,,AIB8QLWO1TVS
1039,84,,1.0,64.0,2238428357-313623.jpg,2984615361-295509.jpg,2.0,,,,AIB8QLWO1TVS
1040,20,,1.0,0.0,2898635427-367120.jpg,2898621427-366486.jpg,3.0,,,,A1I9RLJQ0BYN21
1041,21,,1.0,1.0,2874299429-139695.jpg,2446760917-347439.jpg,3.0,,,,A1I9RLJQ0BYN21
1042,22,,1.0,2.0,2238572663-35822.jpg,2864903351-286874.jpg,3.0,,,,A1I9RLJQ0BYN21
1043,23,,1.0,3.0,2986451363-73599.jpg,2860302315-210704.jpg,2.0,,,,A1I9RLJQ0BYN21
1044,24,,1.0,4.0,2446759803-49249.jpg,2901951392-368654.jpg,3.0,,,,A1I9RLJQ0BYN21
1045,25,,1.0,5.0,2898617468-68274.jpg,2901946439-144040.jpg,1.0,,,,A1I9RLJQ0BYN21
1046,26,,1.0,6.0,2446758985-197609.jpg,2981240424-145795.jpg,1.0,,,,A1I9RLJQ0BYN21
1047,27,,1.0,7.0,2458347385-199723.jpg,2427874554-121863.jpg,2.0,,,,A1I9RLJQ0BYN21
1048,28,,1.0,8.0,2898624426-291546.jpg,2964218432-369263.jpg,1.0,,,,A1I9RLJQ0BYN21
1049,29,,1.0,9.0,2898618390-216538.jpg,2575120609-129862.jpg,3.0,,,,A1I9RLJQ0BYN21
1050,30,,1.0,10.0,2460547467-349421.jpg,2898631394-142727.jpg,1.0,,,,A1I9RLJQ0BYN21
1051,31,,1.0,11.0,2460547467-349422.jpg,2864909447-362146.jpg,3.0,,,,A1I9RLJQ0BYN21
1052,32,right,1.0,12.0,right.jpg,,,right,0.9834,,A1I9RLJQ0BYN21
1053,33,,1.0,13.0,2868475410-213219.jpg,2868474407-362885.jpg,3.0,,,,A1I9RLJQ0BYN21
1054,34,,1.0,14.0,2901939379-143480.jpg,2981229442-369621.jpg,2.0,,,,A1I9RLJQ0BYN21
1055,35,,1.0,15.0,2986451363-73598.jpg,2984628361-295995.jpg,2.0,,,,A1I9RLJQ0BYN21
1056,36,,1.0,16.0,2874301407-363895.jpg,2901947323-70275.jpg,3.0,,,,A1I9RLJQ0BYN21
1057,37,left,1.0,17.0,left.jpg,,,left,1.1389,,A1I9RLJQ0BYN21
1058,38,,1.0,18.0,2901947423-70311.jpg,2238573447-333826.jpg,2.0,,,,A1I9RLJQ0BYN21
1059,39,,1.0,19.0,2460547508-51571.jpg,2452380166-273109.jpg,1.0,,,,A1I9RLJQ0BYN21
1060,40,,1.0,20.0,2883268412-365898.jpg,2984626312-370849.jpg,1.0,,,,A1I9RLJQ0BYN21
1061,41,,1.0,21.0,2452381505-199546.jpg,2898632385-217138.jpg,2.0,,,,A1I9RLJQ0BYN21
1062,42,,1.0,22.0,2238481928-19949.jpg,2883264367-365620.jpg,1.0,,,,A1I9RLJQ0BYN21
1063,43,,1.0,23.0,2901941401-292798.jpg,2898618327-366317.jpg,1.0,,,,A1I9RLJQ0BYN21
1064,44,,1.0,24.0,2868474407-362883.jpg,2460547732-349518.jpg,1.0,,,,A1I9RLJQ0BYN21
1065,45,,1.0,25.0,2449442529-124446.jpg,2446759803-49251.jpg,1.0,,,,A1I9RLJQ0BYN21
1066,46,,1.0,26.0,2898633421-291973.jpg,2512876023-52283.jpg,1.0,,,,A1I9RLJQ0BYN21
1067,47,,1.0,27.0,2592380177-354629.jpg,2512875587-350044.jpg,3.0,,,,A1I9RLJQ0BYN21
1068,48,,1.0,28.0,2592379964-131054.jpg,2592380272-354673.jpg,3.0,,,,A1I9RLJQ0BYN21
1069,49,,1.0,29.0,2864910426-287204.jpg,2901939433-69672.jpg,3.0,,,,A1I9RLJQ0BYN21
1070,50,,1.0,30.0,2238428357-313623.jpg,2238499057-320266.jpg,1.0,,,,A1I9RLJQ0BYN21
1071,51,,1.0,31.0,2964223381-294447.jpg,2901941438-69836.jpg,2.0,,,,A1I9RLJQ0BYN21
1072,52,,1.0,32.0,2452380832-348593.jpg,2238481813-19930.jpg,2.0,,,,A1I9RLJQ0BYN21
1073,53,right,1.0,33.0,right.jpg,,,right,1.0024,,A1I9RLJQ0BYN21
1074,54,,1.0,34.0,2964222378-71332.jpg,2901933382-367209.jpg,2.0,,,,A1I9RLJQ0BYN21
1075,55,,1.0,35.0,2901939379-143479.jpg,2446758985-197610.jpg,2.0,,,,A1I9RLJQ0BYN21
1076,56,,1.0,36.0,2575120738-55529.jpg,2238531493-28260.jpg,3.0,,,,A1I9RLJQ0BYN21
1077,57,,1.0,37.0,2874302418-65978.jpg,2964224310-219528.jpg,1.0,,,,A1I9RLJQ0BYN21
1078,58,,1.0,38.0,2874307433-66280.jpg,2981231422-369714.jpg,3.0,,,,A1I9RLJQ0BYN21
1079,59,,1.0,39.0,2964218374-144967.jpg,2981231446-294732.jpg,3.0,,,,A1I9RLJQ0BYN21
1080,60,,1.0,40.0,2874299429-139694.jpg,2981244403-72215.jpg,2.0,,,,A1I9RLJQ0BYN21
1081,61,,1.0,41.0,2964216465-219242.jpg,2898619327-366362.jpg,3.0,,,,A1I9RLJQ0BYN21
1082,62,,1.0,42.0,2238480677-317399.jpg,2238481630-168218.jpg,1.0,,,,A1I9RLJQ0BYN21
1083,63,,1.0,43.0,2964213381-294060.jpg,2964213381-294061.jpg,3.0,,,,A1I9RLJQ0BYN21
1084,64,right,1.0,44.0,right.jpg,,,right,0.8934,,A1I9RLJQ0BYN21
1085,65,,1.0,45.0,2898618444-142233.jpg,2898631359-142721.jpg,1.0,,,,A1I9RLJQ0BYN21
1086,66,,1.0,46.0,2238481198-19822.jpg,2238480803-19737.jpg,3.0,,,,A1I9RLJQ0BYN21
1087,67,,1.0,47.0,2883268471-290842.jpg,2901947448-70314.jpg,3.0,,,,A1I9RLJQ0BYN21
1088,68,right,1.0,48.0,right.jpg,,,right,0.9303,,A1I9RLJQ0BYN21
1089,69,,1.0,49.0,2238425482-313537.jpg,2238436322-314047.jpg,2.0,,,,A1I9RLJQ0BYN21
1090,70,,1.0,50.0,2901952513-70703.jpg,2868469411-287540.jpg,2.0,,,,A1I9RLJQ0BYN21
1091,71,,1.0,51.0,2874303365-214262.jpg,2238563377-332054.jpg,2.0,,,,A1I9RLJQ0BYN21
1092,72,,1.0,52.0,2512875899-126682.jpg,2592380177-354628.jpg,2.0,,,,A1I9RLJQ0BYN21
1093,73,,1.0,53.0,2981231403-71642.jpg,2579432519-130698.jpg,1.0,,,,A1I9RLJQ0BYN21
1094,74,,1.0,54.0,2898634397-367080.jpg,2901934408-69289.jpg,2.0,,,,A1I9RLJQ0BYN21
1095,75,,1.0,55.0,2874302418-65979.jpg,2238578544-111698.jpg,3.0,,,,A1I9RLJQ0BYN21
1096,76,,1.0,56.0,2238560245-182099.jpg,2592380255-205553.jpg,1.0,,,,A1I9RLJQ0BYN21
1097,77,,1.0,57.0,2883273443-68193.jpg,2883254439-140940.jpg,1.0,,,,A1I9RLJQ0BYN21
1098,78,,1.0,58.0,2883256307-365057.jpg,2964210336-293945.jpg,2.0,,,,A1I9RLJQ0BYN21
1099,79,,1.0,59.0,2864907432-362042.jpg,2901947423-70310.jpg,2.0,,,,A1I9RLJQ0BYN21
1100,80,,1.0,60.0,2592380177-354626.jpg,2238576792-334659.jpg,1.0,,,,A1I9RLJQ0BYN21
1101,81,,1.0,61.0,2238580740-186218.jpg,2238521193-26285.jpg,2.0,,,,A1I9RLJQ0BYN21
1102,82,,1.0,62.0,2898635428-69104.jpg,2446759803-49250.jpg,1.0,,,,A1I9RLJQ0BYN21
1103,83,,1.0,63.0,2449442529-124445.jpg,2898632385-217137.jpg,3.0,,,,A1I9RLJQ0BYN21
1104,84,,1.0,64.0,2981241414-145842.jpg,2874301404-139813.jpg,2.0,,,,A1I9RLJQ0BYN21
1105,20,,1.0,0.0,2449442529-124445.jpg,2986408373-73286.jpg,2.0,,,,A2N1LD0IFPHF4B
1106,21,,1.0,1.0,2901941401-292798.jpg,2898631468-68931.jpg,3.0,,,,A2N1LD0IFPHF4B
1107,22,,1.0,2.0,2898618390-216538.jpg,2575120609-129862.jpg,3.0,,,,A2N1LD0IFPHF4B
1108,23,,1.0,3.0,2964213381-294060.jpg,2981244394-145974.jpg,1.0,,,,A2N1LD0IFPHF4B
1109,24,,1.0,4.0,2592380177-354626.jpg,2238117096-228518.jpg,3.0,,,,A2N1LD0IFPHF4B
1110,25,,1.0,5.0,2446758985-197609.jpg,2864909447-362144.jpg,2.0,,,,A2N1LD0IFPHF4B
1111,26,,1.0,6.0,2460547508-51571.jpg,2981232437-369759.jpg,2.0,,,,A2N1LD0IFPHF4B
1112,27,,1.0,7.0,2883273443-68193.jpg,2898627427-366763.jpg,3.0,,,,A2N1LD0IFPHF4B
1113,28,,1.0,8.0,2981231403-71642.jpg,2874305405-214397.jpg,2.0,,,,A2N1LD0IFPHF4B
1114,29,left,1.0,9.0,left.jpg,,,left,1.2184,,A2N1LD0IFPHF4B
1115,30,,1.0,10.0,2238425482-313537.jpg,2238471391-240918.jpg,1.0,,,,A2N1LD0IFPHF4B
1116,31,,1.0,11.0,2592380177-354629.jpg,2579432534-130704.jpg,2.0,,,,A2N1LD0IFPHF4B
1117,32,,1.0,12.0,2460547467-349421.jpg,2981235446-294901.jpg,3.0,,,,A2N1LD0IFPHF4B
1118,33,,1.0,13.0,2898618444-142233.jpg,2898631359-142721.jpg,1.0,,,,A2N1LD0IFPHF4B
1119,34,,1.0,14.0,2575120738-55529.jpg,2238531493-28260.jpg,3.0,,,,A2N1LD0IFPHF4B
1120,35,,1.0,15.0,2898633421-291973.jpg,2512876023-52283.jpg,1.0,,,,A2N1LD0IFPHF4B
1121,36,,1.0,16.0,2458347385-199723.jpg,2238480434-93829.jpg,1.0,,,,A2N1LD0IFPHF4B
1122,37,,1.0,17.0,2964216465-219242.jpg,2864900319-137787.jpg,2.0,,,,A2N1LD0IFPHF4B
1123,38,,1.0,18.0,2238428357-313623.jpg,2984615361-295509.jpg,2.0,,,,A2N1LD0IFPHF4B
1124,39,,1.0,19.0,2864910426-287204.jpg,2864902304-137862.jpg,1.0,,,,A2N1LD0IFPHF4B
1125,40,right,1.0,20.0,right.jpg,,,right,1.223,,A2N1LD0IFPHF4B
1126,41,,1.0,21.0,2238572663-35822.jpg,2864903351-286874.jpg,3.0,,,,A2N1LD0IFPHF4B
1127,42,,1.0,22.0,2898635428-69104.jpg,2898625336-291572.jpg,3.0,,,,A2N1LD0IFPHF4B
1128,43,,1.0,23.0,2238580740-186218.jpg,2238550816-254000.jpg,1.0,,,,A2N1LD0IFPHF4B
1129,44,,1.0,24.0,2901939379-143480.jpg,2898632385-217139.jpg,3.0,,,,A2N1LD0IFPHF4B
1130,45,,1.0,25.0,2898624426-291546.jpg,2981235446-294900.jpg,3.0,,,,A2N1LD0IFPHF4B
1131,46,,1.0,26.0,2874303365-214262.jpg,2864911457-362260.jpg,3.0,,,,A2N1LD0IFPHF4B
1132,47,,1.0,27.0,2874302418-65979.jpg,2238578544-111698.jpg,3.0,,,,A2N1LD0IFPHF4B
1133,48,,1.0,28.0,2592379964-131054.jpg,2238479053-19457.jpg,2.0,,,,A2N1LD0IFPHF4B
1134,49,,1.0,29.0,2238480677-317399.jpg,2238573546-258454.jpg,2.0,,,,A2N1LD0IFPHF4B
1135,50,,1.0,30.0,2901952513-70703.jpg,2868469411-287540.jpg,2.0,,,,A2N1LD0IFPHF4B
1136,51,,1.0,31.0,2452380832-348593.jpg,2238328478-11678.jpg,1.0,,,,A2N1LD0IFPHF4B
1137,52,,1.0,32.0,2874299429-139694.jpg,2986447306-296584.jpg,1.0,,,,A2N1LD0IFPHF4B
1138,53,,1.0,33.0,2449442529-124446.jpg,2446759803-49251.jpg,1.0,,,,A2N1LD0IFPHF4B
1139,54,left,1.0,34.0,left.jpg,,,left,1.0503,,A2N1LD0IFPHF4B
1140,55,,1.0,35.0,2874307433-66280.jpg,2981246400-220365.jpg,2.0,,,,A2N1LD0IFPHF4B
1141,56,,1.0,36.0,2864907432-362042.jpg,2864901420-212147.jpg,1.0,,,,A2N1LD0IFPHF4B
1142,57,,1.0,37.0,2874299429-139695.jpg,2901942443-69923.jpg,2.0,,,,A2N1LD0IFPHF4B
1143,58,,1.0,38.0,2898634397-367080.jpg,2901934408-69289.jpg,2.0,,,,A2N1LD0IFPHF4B
1144,59,,1.0,39.0,2512875899-126682.jpg,2592380177-354628.jpg,2.0,,,,A2N1LD0IFPHF4B
1145,60,,1.0,40.0,2238481198-19822.jpg,2862691449-137104.jpg,1.0,,,,A2N1LD0IFPHF4B
1146,61,,1.0,41.0,2981241414-145842.jpg,2874301404-139813.jpg,2.0,,,,A2N1LD0IFPHF4B
1147,62,,1.0,42.0,2238560245-182099.jpg,2238480980-168129.jpg,3.0,,,,A2N1LD0IFPHF4B
1148,63,left,1.0,43.0,left.jpg,,,left,0.962,,A2N1LD0IFPHF4B
1149,64,,1.0,44.0,2883268471-290842.jpg,2901947448-70314.jpg,3.0,,,,A2N1LD0IFPHF4B
1150,65,,1.0,45.0,2964218374-144967.jpg,2446759306-271734.jpg,2.0,,,,A2N1LD0IFPHF4B
1151,66,,1.0,46.0,2874302418-65978.jpg,2964224310-219528.jpg,1.0,,,,A2N1LD0IFPHF4B
1152,67,,1.0,47.0,2901939379-143479.jpg,2964216376-294181.jpg,3.0,,,,A2N1LD0IFPHF4B
1153,68,right,1.0,48.0,right.jpg,,,right,1.0554,,A2N1LD0IFPHF4B
1154,69,,1.0,49.0,2901947423-70311.jpg,2238573447-333826.jpg,2.0,,,,A2N1LD0IFPHF4B
1155,70,,1.0,50.0,2898617468-68274.jpg,2901946439-144040.jpg,1.0,,,,A2N1LD0IFPHF4B
1156,71,,1.0,51.0,2898635427-367120.jpg,2964221435-219434.jpg,1.0,,,,A2N1LD0IFPHF4B
1157,72,,1.0,52.0,2883256307-365057.jpg,2611628310-206388.jpg,1.0,,,,A2N1LD0IFPHF4B
1158,73,,1.0,53.0,2868474407-362883.jpg,2981246400-220363.jpg,2.0,,,,A2N1LD0IFPHF4B
1159,74,,1.0,54.0,2446759803-49249.jpg,2901951392-368654.jpg,3.0,,,,A2N1LD0IFPHF4B
1160,75,,1.0,55.0,2238481928-19949.jpg,2864900357-361688.jpg,2.0,,,,A2N1LD0IFPHF4B
1161,76,,1.0,56.0,2964223381-294447.jpg,2898628438-68785.jpg,3.0,,,,A2N1LD0IFPHF4B
1162,77,,1.0,57.0,2964222378-71332.jpg,2981240427-370099.jpg,3.0,,,,A2N1LD0IFPHF4B
1163,78,,1.0,58.0,2874301407-363895.jpg,2446761374-124213.jpg,1.0,,,,A2N1LD0IFPHF4B
1164,79,,1.0,59.0,2986451363-73599.jpg,2898626385-216899.jpg,1.0,,,,A2N1LD0IFPHF4B
1165,80,,1.0,60.0,2986451363-73598.jpg,2984628361-295995.jpg,2.0,,,,A2N1LD0IFPHF4B
1166,81,,1.0,61.0,2460547467-349422.jpg,2864909447-362146.jpg,3.0,,,,A2N1LD0IFPHF4B
1167,82,,1.0,62.0,2452381505-199546.jpg,2994401319-148290.jpg,3.0,,,,A2N1LD0IFPHF4B
1168,83,,1.0,63.0,2868475410-213219.jpg,2901946465-218350.jpg,1.0,,,,A2N1LD0IFPHF4B
1169,84,,1.0,64.0,2883268412-365898.jpg,2984626312-370849.jpg,1.0,,,,A2N1LD0IFPHF4B
1170,20,,1.0,0.0,2575120738-55529.jpg,2238531493-28260.jpg,3.0,,,,A2JLNOYPVW7W4V
1171,21,,1.0,1.0,2512875899-126682.jpg,2460547536-274179.jpg,1.0,,,,A2JLNOYPVW7W4V
1172,22,,1.0,2.0,2898617468-68274.jpg,2901943387-368037.jpg,2.0,,,,A2JLNOYPVW7W4V
1173,23,,1.0,3.0,2446758985-197609.jpg,2864909447-362144.jpg,2.0,,,,A2JLNOYPVW7W4V
1174,24,,1.0,4.0,2238572663-35822.jpg,2864903351-286874.jpg,3.0,,,,A2JLNOYPVW7W4V
1175,25,,1.0,5.0,2964218374-144967.jpg,2446759306-271734.jpg,2.0,,,,A2JLNOYPVW7W4V
1176,26,,1.0,6.0,2901947423-70311.jpg,2860312398-62572.jpg,1.0,,,,A2JLNOYPVW7W4V
1177,27,,1.0,7.0,2458347385-199723.jpg,2458347252-348911.jpg,3.0,,,,A2JLNOYPVW7W4V
1178,28,left,1.0,8.0,left.jpg,,,left,1.7678,,A2JLNOYPVW7W4V
1179,29,,1.0,9.0,2874307433-66280.jpg,2981246400-220365.jpg,2.0,,,,A2JLNOYPVW7W4V
1180,30,,1.0,10.0,2868475410-213219.jpg,2868474407-362885.jpg,3.0,,,,A2JLNOYPVW7W4V
1181,31,,1.0,11.0,2868474407-362883.jpg,2981246400-220363.jpg,2.0,,,,A2JLNOYPVW7W4V
1182,32,,1.0,12.0,2898635428-69104.jpg,2898625336-291572.jpg,3.0,,,,A2JLNOYPVW7W4V
1183,33,,1.0,13.0,2864907432-362042.jpg,2864901420-212147.jpg,1.0,,,,A2JLNOYPVW7W4V
1184,34,,1.0,14.0,2964213381-294060.jpg,2981244394-145974.jpg,1.0,,,,A2JLNOYPVW7W4V
1185,35,,1.0,15.0,2238480677-317399.jpg,2238481630-168218.jpg,1.0,,,,A2JLNOYPVW7W4V
1186,36,left,1.0,16.0,left.jpg,,,left,1.0785,,A2JLNOYPVW7W4V
1187,37,,1.0,17.0,2592380177-354626.jpg,2238117096-228518.jpg,3.0,,,,A2JLNOYPVW7W4V
1188,38,,1.0,18.0,2592379964-131054.jpg,2575963989-130576.jpg,1.0,,,,A2JLNOYPVW7W4V
1189,39,,1.0,19.0,2901941401-292798.jpg,2898631468-68931.jpg,3.0,,,,A2JLNOYPVW7W4V
1190,40,,1.0,20.0,2901952513-70703.jpg,2238481198-19821.jpg,3.0,,,,A2JLNOYPVW7W4V
1191,41,,1.0,21.0,2874302418-65979.jpg,2238480648-19714.jpg,2.0,,,,A2JLNOYPVW7W4V
1192,42,,1.0,22.0,2592380177-354629.jpg,2898633421-291974.jpg,1.0,,,,A2JLNOYPVW7W4V
1193,43,,1.0,23.0,2874299429-139695.jpg,2883266388-67750.jpg,1.0,,,,A2JLNOYPVW7W4V
1194,44,,1.0,24.0,2238425482-313537.jpg,2238436322-314047.jpg,2.0,,,,A2JLNOYPVW7W4V
1195,45,,1.0,25.0,2986451363-73598.jpg,2901942443-69925.jpg,3.0,,,,A2JLNOYPVW7W4V
1196,46,,1.0,26.0,2898635427-367120.jpg,2964221435-219434.jpg,1.0,,,,A2JLNOYPVW7W4V
1197,47,,1.0,27.0,2460547508-51571.jpg,2981232437-369759.jpg,2.0,,,,A2JLNOYPVW7W4V
1198,48,,1.0,28.0,2964216465-219242.jpg,2898619327-366362.jpg,3.0,,,,A2JLNOYPVW7W4V
1199,49,,1.0,29.0,2901939379-143480.jpg,2981229442-369621.jpg,2.0,,,,A2JLNOYPVW7W4V
1200,50,right,1.0,30.0,right.jpg,,,right,1.5728,,A2JLNOYPVW7W4V
1201,51,,1.0,31.0,2874301407-363895.jpg,2986397322-371109.jpg,2.0,,,,A2JLNOYPVW7W4V
1202,52,,1.0,32.0,2460547467-349421.jpg,2981235446-294901.jpg,3.0,,,,A2JLNOYPVW7W4V
1203,53,,1.0,33.0,2238428357-313623.jpg,2238499057-320266.jpg,1.0,,,,A2JLNOYPVW7W4V
1204,54,,1.0,34.0,2901939379-143479.jpg,2460547467-349423.jpg,1.0,,,,A2JLNOYPVW7W4V
1205,55,,1.0,35.0,2446759803-49249.jpg,2901951392-368654.jpg,3.0,,,,A2JLNOYPVW7W4V
1206,56,,1.0,36.0,2452380832-348593.jpg,2238481813-19930.jpg,2.0,,,,A2JLNOYPVW7W4V
1207,57,,1.0,37.0,2981241414-145842.jpg,2238516618-25604.jpg,1.0,,,,A2JLNOYPVW7W4V
1208,58,,1.0,38.0,2898618444-142233.jpg,2238555262-330312.jpg,2.0,,,,A2JLNOYPVW7W4V
1209,59,,1.0,39.0,2874302418-65978.jpg,2898633321-291943.jpg,3.0,,,,A2JLNOYPVW7W4V
1210,60,right,1.0,40.0,right.jpg,,,right,1.4801,,A2JLNOYPVW7W4V
1211,61,,1.0,41.0,2874303365-214262.jpg,2238563377-332054.jpg,2.0,,,,A2JLNOYPVW7W4V
1212,62,,1.0,42.0,2238481198-19822.jpg,2862691449-137104.jpg,1.0,,,,A2JLNOYPVW7W4V
1213,63,,1.0,43.0,2460547467-349422.jpg,2864909447-362146.jpg,3.0,,,,A2JLNOYPVW7W4V
1214,64,,1.0,44.0,2981231403-71642.jpg,2427873763-47290.jpg,3.0,,,,A2JLNOYPVW7W4V
1215,65,,1.0,45.0,2238560245-182099.jpg,2592380255-205553.jpg,1.0,,,,A2JLNOYPVW7W4V
1216,66,,1.0,46.0,2449442529-124446.jpg,2460547536-274181.jpg,2.0,,,,A2JLNOYPVW7W4V
1217,67,,1.0,47.0,2898624426-291546.jpg,2981236443-71859.jpg,2.0,,,,A2JLNOYPVW7W4V
1218,68,,1.0,48.0,2986451363-73599.jpg,2898626385-216899.jpg,1.0,,,,A2JLNOYPVW7W4V
1219,69,,1.0,49.0,2874299429-139694.jpg,2981244403-72215.jpg,2.0,,,,A2JLNOYPVW7W4V
1220,70,left,1.0,50.0,left.jpg,,,left,1.4954,,A2JLNOYPVW7W4V
1221,71,,1.0,51.0,2864910426-287204.jpg,2864902304-137862.jpg,1.0,,,,A2JLNOYPVW7W4V
1222,72,,1.0,52.0,2898618390-216538.jpg,2901939327-367670.jpg,2.0,,,,A2JLNOYPVW7W4V
1223,73,,1.0,53.0,2883273443-68193.jpg,2883254439-140940.jpg,1.0,,,,A2JLNOYPVW7W4V
1224,74,,1.0,54.0,2964222378-71332.jpg,2981240424-145794.jpg,1.0,,,,A2JLNOYPVW7W4V
1225,75,,1.0,55.0,2238580740-186218.jpg,2238521193-26285.jpg,2.0,,,,A2JLNOYPVW7W4V
1226,76,,1.0,56.0,2238481928-19949.jpg,2864900357-361688.jpg,2.0,,,,A2JLNOYPVW7W4V
1227,77,,1.0,57.0,2898634397-367080.jpg,2964217461-294238.jpg,3.0,,,,A2JLNOYPVW7W4V
1228,78,,1.0,58.0,2883268471-290842.jpg,2883268471-290843.jpg,1.0,,,,A2JLNOYPVW7W4V
1229,79,,1.0,59.0,2964223381-294447.jpg,2898628438-68785.jpg,3.0,,,,A2JLNOYPVW7W4V
1230,80,,1.0,60.0,2883268412-365898.jpg,2984615361-295510.jpg,2.0,,,,A2JLNOYPVW7W4V
1231,81,,1.0,61.0,2883256307-365057.jpg,2864904453-63933.jpg,3.0,,,,A2JLNOYPVW7W4V
1232,82,,1.0,62.0,2452381505-199546.jpg,2901938432-367627.jpg,1.0,,,,A2JLNOYPVW7W4V
1233,83,,1.0,63.0,2449442529-124445.jpg,2898632385-217137.jpg,3.0,,,,A2JLNOYPVW7W4V
1234,84,,1.0,64.0,2898633421-291973.jpg,2238550049-105691.jpg,3.0,,,,A2JLNOYPVW7W4V
1235,20,,1.0,0.0,2986451363-73599.jpg,2238434559-90406.jpg,3.0,,,,AZCGF2D7QIO10
1236,21,,1.0,1.0,2460547508-51571.jpg,2901941438-69835.jpg,3.0,,,,AZCGF2D7QIO10
1237,22,,1.0,2.0,2898635428-69104.jpg,2901943411-292945.jpg,2.0,,,,AZCGF2D7QIO10
1238,23,,1.0,3.0,2592379964-131054.jpg,2238479053-19457.jpg,2.0,,,,AZCGF2D7QIO10
1239,24,,1.0,4.0,2238480677-317399.jpg,2238573546-258454.jpg,2.0,,,,AZCGF2D7QIO10
1240,25,,1.0,5.0,2981231403-71642.jpg,2427873763-47290.jpg,3.0,,,,AZCGF2D7QIO10
1241,26,,1.0,6.0,2901939379-143480.jpg,2981229442-369621.jpg,2.0,,,,AZCGF2D7QIO10
1242,27,left,1.0,7.0,left.jpg,,,left,0.5834,,AZCGF2D7QIO10
1243,28,,1.0,8.0,2460547467-349421.jpg,2898631394-142727.jpg,1.0,,,,AZCGF2D7QIO10
