,index,demo_encoding_loop.thisTrialN,DemoImage,DemoCorrect,demo_encoding_response.rt,demo_encoding_response.keys,index,demo_test_response.keys,demo_test_response.corr,demo_test_response.rt,demo_test_loop.thisTrialN,DemoImage1,DemoImage2,DemoCorrectTest,subject
0,4,0.0,flower1.jpg,,,,12.0,right,0.0,2.418,0.0,flower1.jpg,flower1_pair.jpg,left,A2AESV6JRC0TC0
1,5,1.0,flower2.jpg,,,,13.0,right,1.0,1.24,1.0,flower2_pair.jpg,flower2.jpg,right,A2AESV6JRC0TC0
2,6,2.0,left.jpg,left,0.914,left,14.0,left,1.0,0.609,2.0,flower3.jpg,flower3_pair.jpg,left,A2AESV6JRC0TC0
3,7,3.0,flower3.jpg,,,,15.0,right,0.0,0.504,3.0,flower4.jpg,flower4_pair.jpg,left,A2AESV6JRC0TC0
4,8,4.0,flower4.jpg,,,,16.0,left,0.0,1.409,4.0,flower5_pair.jpg,flower5.jpg,right,A2AESV6JRC0TC0
5,9,5.0,flower5.jpg,,,,17.0,right,0.0,0.77,5.0,flower6.jpg,flower6_pair.jpg,left,A2AESV6JRC0TC0
6,10,6.0,flower6.jpg,,,,,,,,,,,,A2AESV6JRC0TC0
7,4,0.0,flower1.jpg,,,,12.0,left,1.0,1.6711,0.0,flower1.jpg,flower1_pair.jpg,left,AOI6OCXVWYBX1
8,5,1.0,flower2.jpg,,,,13.0,left,0.0,2.0216,1.0,flower2_pair.jpg,flower2.jpg,right,AOI6OCXVWYBX1
9,6,2.0,left.jpg,left,1.3254,left,14.0,left,1.0,1.7536,2.0,flower3.jpg,flower3_pair.jpg,left,AOI6OCXVWYBX1
10,7,3.0,flower3.jpg,,,,15.0,right,0.0,1.8884,3.0,flower4.jpg,flower4_pair.jpg,left,AOI6OCXVWYBX1
11,8,4.0,flower4.jpg,,,,16.0,right,1.0,2.2632,4.0,flower5_pair.jpg,flower5.jpg,right,AOI6OCXVWYBX1
12,9,5.0,flower5.jpg,,,,17.0,right,0.0,2.1718,5.0,flower6.jpg,flower6_pair.jpg,left,AOI6OCXVWYBX1
13,10,6.0,flower6.jpg,,,,,,,,,,,,AOI6OCXVWYBX1
14,4,0.0,flower1.jpg,,,,12.0,left,1.0,1.8967,0.0,flower1.jpg,flower1_pair.jpg,left,A34WEYAH462CBS
15,5,1.0,flower2.jpg,,,,13.0,right,1.0,1.8851,1.0,flower2_pair.jpg,flower2.jpg,right,A34WEYAH462CBS
16,6,2.0,left.jpg,left,0.9234,left,14.0,left,1.0,1.236,2.0,flower3.jpg,flower3_pair.jpg,left,A34WEYAH462CBS
17,7,3.0,flower3.jpg,,,,15.0,left,1.0,1.6679,3.0,flower4.jpg,flower4_pair.jpg,left,A34WEYAH462CBS
18,8,4.0,flower4.jpg,,,,16.0,right,1.0,1.4415,4.0,flower5_pair.jpg,flower5.jpg,right,A34WEYAH462CBS
19,9,5.0,flower5.jpg,,,,17.0,left,1.0,1.4607,5.0,flower6.jpg,flower6_pair.jpg,left,A34WEYAH462CBS
20,10,6.0,flower6.jpg,,,,,,,,,,,,A34WEYAH462CBS
21,4,0.0,flower1.jpg,,,,12.0,left,1.0,3.2127,0.0,flower1.jpg,flower1_pair.jpg,left,A1R3VQ1011VATX
22,5,1.0,flower2.jpg,,,,13.0,left,0.0,9.2354,1.0,flower2_pair.jpg,flower2.jpg,right,A1R3VQ1011VATX
23,6,2.0,left.jpg,left,1.2322,left,14.0,right,0.0,9.0438,2.0,flower3.jpg,flower3_pair.jpg,left,A1R3VQ1011VATX
24,7,3.0,flower3.jpg,,,,15.0,left,1.0,9.1777,3.0,flower4.jpg,flower4_pair.jpg,left,A1R3VQ1011VATX
25,8,4.0,flower4.jpg,,,,16.0,right,1.0,5.1318,4.0,flower5_pair.jpg,flower5.jpg,right,A1R3VQ1011VATX
26,9,5.0,flower5.jpg,,,,17.0,left,1.0,4.9195,5.0,flower6.jpg,flower6_pair.jpg,left,A1R3VQ1011VATX
27,10,6.0,flower6.jpg,,,,,,,,,,,,A1R3VQ1011VATX
28,4,0.0,flower1.jpg,,,,12.0,left,1.0,14.0393,0.0,flower1.jpg,flower1_pair.jpg,left,A3R2EH58I8Q4YI
29,5,1.0,flower2.jpg,,,,13.0,right,1.0,6.0178,1.0,flower2_pair.jpg,flower2.jpg,right,A3R2EH58I8Q4YI
30,6,2.0,left.jpg,left,0.9834,left,14.0,left,1.0,1.4544,2.0,flower3.jpg,flower3_pair.jpg,left,A3R2EH58I8Q4YI
31,7,3.0,flower3.jpg,,,,15.0,left,1.0,0.9072,3.0,flower4.jpg,flower4_pair.jpg,left,A3R2EH58I8Q4YI
32,8,4.0,flower4.jpg,,,,16.0,right,1.0,1.2301,4.0,flower5_pair.jpg,flower5.jpg,right,A3R2EH58I8Q4YI
33,9,5.0,flower5.jpg,,,,17.0,left,1.0,0.8415,5.0,flower6.jpg,flower6_pair.jpg,left,A3R2EH58I8Q4YI
34,10,6.0,flower6.jpg,,,,,,,,,,,,A3R2EH58I8Q4YI
35,4,0.0,flower1.jpg,,,,12.0,left,1.0,1.3272,0.0,flower1.jpg,flower1_pair.jpg,left,AE3GUAQKXSNQ4
36,5,1.0,flower2.jpg,,,,13.0,left,0.0,1.9025,1.0,flower2_pair.jpg,flower2.jpg,right,AE3GUAQKXSNQ4
37,6,2.0,left.jpg,left,0.7066,left,14.0,left,1.0,1.656,2.0,flower3.jpg,flower3_pair.jpg,left,AE3GUAQKXSNQ4
38,7,3.0,flower3.jpg,,,,15.0,left,1.0,0.9718,3.0,flower4.jpg,flower4_pair.jpg,left,AE3GUAQKXSNQ4
39,8,4.0,flower4.jpg,,,,16.0,right,1.0,1.2871,4.0,flower5_pair.jpg,flower5.jpg,right,AE3GUAQKXSNQ4
40,9,5.0,flower5.jpg,,,,17.0,left,1.0,1.0308,5.0,flower6.jpg,flower6_pair.jpg,left,AE3GUAQKXSNQ4
41,10,6.0,flower6.jpg,,,,,,,,,,,,AE3GUAQKXSNQ4
42,4,0.0,flower1.jpg,,,,12.0,right,0.0,1.6108,0.0,flower1.jpg,flower1_pair.jpg,left,A1XPZRA2XD4GNF
43,5,1.0,flower2.jpg,,,,13.0,left,0.0,1.0825,1.0,flower2_pair.jpg,flower2.jpg,right,A1XPZRA2XD4GNF
44,6,2.0,left.jpg,left,0.311,left,14.0,right,0.0,0.8754,2.0,flower3.jpg,flower3_pair.jpg,left,A1XPZRA2XD4GNF
45,7,3.0,flower3.jpg,,,,15.0,left,1.0,1.2939,3.0,flower4.jpg,flower4_pair.jpg,left,A1XPZRA2XD4GNF
46,8,4.0,flower4.jpg,,,,16.0,right,1.0,0.6377,4.0,flower5_pair.jpg,flower5.jpg,right,A1XPZRA2XD4GNF
47,9,5.0,flower5.jpg,,,,17.0,left,1.0,2.3361,5.0,flower6.jpg,flower6_pair.jpg,left,A1XPZRA2XD4GNF
48,10,6.0,flower6.jpg,,,,,,,,,,,,A1XPZRA2XD4GNF
49,4,0.0,flower1.jpg,,,,12.0,left,1.0,4.884,0.0,flower1.jpg,flower1_pair.jpg,left,A26LH08CVCL8G6
50,5,1.0,flower2.jpg,,,,13.0,right,1.0,1.8556,1.0,flower2_pair.jpg,flower2.jpg,right,A26LH08CVCL8G6
51,6,2.0,left.jpg,left,1.457,left,14.0,left,1.0,1.0127,2.0,flower3.jpg,flower3_pair.jpg,left,A26LH08CVCL8G6
52,7,3.0,flower3.jpg,,,,15.0,right,0.0,1.735700001,3.0,flower4.jpg,flower4_pair.jpg,left,A26LH08CVCL8G6
53,8,4.0,flower4.jpg,,,,16.0,right,1.0,1.0845,4.0,flower5_pair.jpg,flower5.jpg,right,A26LH08CVCL8G6
54,9,5.0,flower5.jpg,,,,17.0,left,1.0,0.697,5.0,flower6.jpg,flower6_pair.jpg,left,A26LH08CVCL8G6
55,10,6.0,flower6.jpg,,,,,,,,,,,,A26LH08CVCL8G6
56,4,0.0,flower1.jpg,,,,12.0,left,1.0,4.1935,0.0,flower1.jpg,flower1_pair.jpg,left,ALYR5CI2SM2JC
57,5,1.0,flower2.jpg,,,,13.0,left,0.0,2.8179,1.0,flower2_pair.jpg,flower2.jpg,right,ALYR5CI2SM2JC
58,6,2.0,left.jpg,left,0.7561,left,14.0,left,1.0,1.6163,2.0,flower3.jpg,flower3_pair.jpg,left,ALYR5CI2SM2JC
59,7,3.0,flower3.jpg,,,,15.0,left,1.0,1.527,3.0,flower4.jpg,flower4_pair.jpg,left,ALYR5CI2SM2JC
60,8,4.0,flower4.jpg,,,,16.0,right,1.0,2.3559,4.0,flower5_pair.jpg,flower5.jpg,right,ALYR5CI2SM2JC
61,9,5.0,flower5.jpg,,,,17.0,right,0.0,2.7721,5.0,flower6.jpg,flower6_pair.jpg,left,ALYR5CI2SM2JC
62,10,6.0,flower6.jpg,,,,,,,,,,,,ALYR5CI2SM2JC
63,4,0.0,flower1.jpg,,,,12.0,left,1.0,5.5035,0.0,flower1.jpg,flower1_pair.jpg,left,A3REPTAHMY4QO
64,5,1.0,flower2.jpg,,,,13.0,right,1.0,2.3942,1.0,flower2_pair.jpg,flower2.jpg,right,A3REPTAHMY4QO
65,6,2.0,left.jpg,left,0.9942,left,14.0,left,1.0,2.5003,2.0,flower3.jpg,flower3_pair.jpg,left,A3REPTAHMY4QO
66,7,3.0,flower3.jpg,,,,15.0,right,0.0,2.7229,3.0,flower4.jpg,flower4_pair.jpg,left,A3REPTAHMY4QO
67,8,4.0,flower4.jpg,,,,16.0,left,0.0,1.0859,4.0,flower5_pair.jpg,flower5.jpg,right,A3REPTAHMY4QO
68,9,5.0,flower5.jpg,,,,17.0,left,1.0,1.2728,5.0,flower6.jpg,flower6_pair.jpg,left,A3REPTAHMY4QO
69,10,6.0,flower6.jpg,,,,,,,,,,,,A3REPTAHMY4QO
70,4,0.0,flower1.jpg,,,,12.0,left,1.0,1.8214,0.0,flower1.jpg,flower1_pair.jpg,left,A2NLR3S7WBULAK
71,5,1.0,flower2.jpg,,,,13.0,left,0.0,2.7435,1.0,flower2_pair.jpg,flower2.jpg,right,A2NLR3S7WBULAK
72,6,2.0,left.jpg,left,1.1314,left,14.0,left,1.0,1.7892,2.0,flower3.jpg,flower3_pair.jpg,left,A2NLR3S7WBULAK
73,7,3.0,flower3.jpg,,,,15.0,right,0.0,1.3801,3.0,flower4.jpg,flower4_pair.jpg,left,A2NLR3S7WBULAK
74,8,4.0,flower4.jpg,,,,16.0,left,0.0,1.4846,4.0,flower5_pair.jpg,flower5.jpg,right,A2NLR3S7WBULAK
75,9,5.0,flower5.jpg,,,,17.0,right,0.0,1.4543,5.0,flower6.jpg,flower6_pair.jpg,left,A2NLR3S7WBULAK
76,10,6.0,flower6.jpg,,,,,,,,,,,,A2NLR3S7WBULAK
77,4,0.0,flower1.jpg,,,,12.0,left,1.0,4.3174,0.0,flower1.jpg,flower1_pair.jpg,left,A3MC0GSXYQ2P7A
78,5,1.0,flower2.jpg,,,,13.0,left,0.0,8.1065,1.0,flower2_pair.jpg,flower2.jpg,right,A3MC0GSXYQ2P7A
79,6,2.0,left.jpg,left,2.05,left,14.0,left,1.0,2.761,2.0,flower3.jpg,flower3_pair.jpg,left,A3MC0GSXYQ2P7A
80,7,3.0,flower3.jpg,,,,15.0,left,1.0,4.1337,3.0,flower4.jpg,flower4_pair.jpg,left,A3MC0GSXYQ2P7A
81,8,4.0,flower4.jpg,,,,16.0,right,1.0,3.0284,4.0,flower5_pair.jpg,flower5.jpg,right,A3MC0GSXYQ2P7A
82,9,5.0,flower5.jpg,,,,17.0,right,0.0,4.6879,5.0,flower6.jpg,flower6_pair.jpg,left,A3MC0GSXYQ2P7A
83,10,6.0,flower6.jpg,,,,,,,,,,,,A3MC0GSXYQ2P7A
84,4,0.0,flower1.jpg,,,,12.0,left,1.0,3.8174,0.0,flower1.jpg,flower1_pair.jpg,left,A2FAAOGWUTTTF5
85,5,1.0,flower2.jpg,,,,13.0,left,0.0,2.8493,1.0,flower2_pair.jpg,flower2.jpg,right,A2FAAOGWUTTTF5
86,6,2.0,left.jpg,left,1.3591,left,14.0,left,1.0,3.009099999,2.0,flower3.jpg,flower3_pair.jpg,left,A2FAAOGWUTTTF5
87,7,3.0,flower3.jpg,,,,15.0,right,0.0,1.769700001,3.0,flower4.jpg,flower4_pair.jpg,left,A2FAAOGWUTTTF5
88,8,4.0,flower4.jpg,,,,16.0,right,1.0,2.0136,4.0,flower5_pair.jpg,flower5.jpg,right,A2FAAOGWUTTTF5
89,9,5.0,flower5.jpg,,,,17.0,right,0.0,3.017400001,5.0,flower6.jpg,flower6_pair.jpg,left,A2FAAOGWUTTTF5
90,10,6.0,flower6.jpg,,,,,,,,,,,,A2FAAOGWUTTTF5
91,4,0.0,flower1.jpg,,,,12.0,right,0.0,8.313,0.0,flower1.jpg,flower1_pair.jpg,left,AG62J8MOAACK3
92,5,1.0,flower2.jpg,,,,13.0,right,1.0,0.893,1.0,flower2_pair.jpg,flower2.jpg,right,AG62J8MOAACK3
93,6,2.0,left.jpg,left,1.6465,left,14.0,right,0.0,0.7939,2.0,flower3.jpg,flower3_pair.jpg,left,AG62J8MOAACK3
94,7,3.0,flower3.jpg,,,,15.0,right,0.0,0.7561,3.0,flower4.jpg,flower4_pair.jpg,left,AG62J8MOAACK3
95,8,4.0,flower4.jpg,,,,16.0,right,1.0,3.140400001,4.0,flower5_pair.jpg,flower5.jpg,right,AG62J8MOAACK3
96,9,5.0,flower5.jpg,,,,17.0,right,0.0,4.4325,5.0,flower6.jpg,flower6_pair.jpg,left,AG62J8MOAACK3
97,10,6.0,flower6.jpg,,,,,,,,,,,,AG62J8MOAACK3
98,4,0.0,flower1.jpg,,,,12.0,left,1.0,4.8364,0.0,flower1.jpg,flower1_pair.jpg,left,A1BH4K9Z8JWLZ1
99,5,1.0,flower2.jpg,,,,13.0,right,1.0,1.7236,1.0,flower2_pair.jpg,flower2.jpg,right,A1BH4K9Z8JWLZ1
100,6,2.0,left.jpg,left,1.0374,left,14.0,left,1.0,1.1374,2.0,flower3.jpg,flower3_pair.jpg,left,A1BH4K9Z8JWLZ1
101,7,3.0,flower3.jpg,,,,15.0,left,1.0,1.5222,3.0,flower4.jpg,flower4_pair.jpg,left,A1BH4K9Z8JWLZ1
102,8,4.0,flower4.jpg,,,,16.0,right,1.0,1.7404,4.0,flower5_pair.jpg,flower5.jpg,right,A1BH4K9Z8JWLZ1
103,9,5.0,flower5.jpg,,,,17.0,left,1.0,1.2191,5.0,flower6.jpg,flower6_pair.jpg,left,A1BH4K9Z8JWLZ1
104,10,6.0,flower6.jpg,,,,,,,,,,,,A1BH4K9Z8JWLZ1
105,4,0.0,flower1.jpg,,,,12.0,right,0.0,279.5007,0.0,flower1.jpg,flower1_pair.jpg,left,AIB8QLWO1TVS
106,5,1.0,flower2.jpg,,,,13.0,right,1.0,0.0966,1.0,flower2_pair.jpg,flower2.jpg,right,AIB8QLWO1TVS
107,6,2.0,left.jpg,left,1.6351,left,14.0,left,1.0,0.1928,2.0,flower3.jpg,flower3_pair.jpg,left,AIB8QLWO1TVS
108,7,3.0,flower3.jpg,,,,15.0,right,0.0,5.5486,3.0,flower4.jpg,flower4_pair.jpg,left,AIB8QLWO1TVS
109,8,4.0,flower4.jpg,,,,16.0,right,1.0,0.1863,4.0,flower5_pair.jpg,flower5.jpg,right,AIB8QLWO1TVS
110,9,5.0,flower5.jpg,,,,17.0,right,0.0,0.187,5.0,flower6.jpg,flower6_pair.jpg,left,AIB8QLWO1TVS
111,10,6.0,flower6.jpg,,,,,,,,,,,,AIB8QLWO1TVS
112,4,0.0,flower1.jpg,,,,12.0,left,1.0,1.7693,0.0,flower1.jpg,flower1_pair.jpg,left,A1I9RLJQ0BYN21
113,5,1.0,flower2.jpg,,,,13.0,right,1.0,1.5669,1.0,flower2_pair.jpg,flower2.jpg,right,A1I9RLJQ0BYN21
114,6,2.0,left.jpg,left,0.941,left,14.0,left,1.0,1.3061,2.0,flower3.jpg,flower3_pair.jpg,left,A1I9RLJQ0BYN21
115,7,3.0,flower3.jpg,,,,15.0,left,1.0,1.6812,3.0,flower4.jpg,flower4_pair.jpg,left,A1I9RLJQ0BYN21
116,8,4.0,flower4.jpg,,,,16.0,right,1.0,1.0636,4.0,flower5_pair.jpg,flower5.jpg,right,A1I9RLJQ0BYN21
117,9,5.0,flower5.jpg,,,,17.0,left,1.0,1.7024,5.0,flower6.jpg,flower6_pair.jpg,left,A1I9RLJQ0BYN21
118,10,6.0,flower6.jpg,,,,,,,,,,,,A1I9RLJQ0BYN21
119,4,0.0,flower1.jpg,,,,12.0,right,0.0,5.374,0.0,flower1.jpg,flower1_pair.jpg,left,A2N1LD0IFPHF4B
120,5,1.0,flower2.jpg,,,,13.0,left,0.0,1.8917,1.0,flower2_pair.jpg,flower2.jpg,right,A2N1LD0IFPHF4B
121,6,2.0,left.jpg,left,1.1362,left,14.0,right,0.0,1.4849,2.0,flower3.jpg,flower3_pair.jpg,left,A2N1LD0IFPHF4B
122,7,3.0,flower3.jpg,,,,15.0,right,0.0,3.3043,3.0,flower4.jpg,flower4_pair.jpg,left,A2N1LD0IFPHF4B
123,8,4.0,flower4.jpg,,,,16.0,right,1.0,3.469,4.0,flower5_pair.jpg,flower5.jpg,right,A2N1LD0IFPHF4B
124,9,5.0,flower5.jpg,,,,17.0,right,0.0,1.2288,5.0,flower6.jpg,flower6_pair.jpg,left,A2N1LD0IFPHF4B
125,10,6.0,flower6.jpg,,,,,,,,,,,,A2N1LD0IFPHF4B
126,4,0.0,flower1.jpg,,,,12.0,right,0.0,65.1381,0.0,flower1.jpg,flower1_pair.jpg,left,A2JLNOYPVW7W4V
127,5,1.0,flower2.jpg,,,,13.0,left,0.0,2.7385,1.0,flower2_pair.jpg,flower2.jpg,right,A2JLNOYPVW7W4V
128,6,2.0,left.jpg,left,1.7581,left,14.0,right,0.0,2.7647,2.0,flower3.jpg,flower3_pair.jpg,left,A2JLNOYPVW7W4V
129,7,3.0,flower3.jpg,,,,15.0,left,1.0,2.0861,3.0,flower4.jpg,flower4_pair.jpg,left,A2JLNOYPVW7W4V
130,8,4.0,flower4.jpg,,,,16.0,right,1.0,2.7469,4.0,flower5_pair.jpg,flower5.jpg,right,A2JLNOYPVW7W4V
131,9,5.0,flower5.jpg,,,,17.0,left,1.0,1.5368,5.0,flower6.jpg,flower6_pair.jpg,left,A2JLNOYPVW7W4V
132,10,6.0,flower6.jpg,,,,,,,,,,,,A2JLNOYPVW7W4V
133,4,0.0,flower1.jpg,,,,12.0,right,0.0,1.2122,0.0,flower1.jpg,flower1_pair.jpg,left,AZCGF2D7QIO10
134,5,1.0,flower2.jpg,,,,13.0,left,0.0,1.8772,1.0,flower2_pair.jpg,flower2.jpg,right,AZCGF2D7QIO10
135,6,2.0,left.jpg,left,0.597,left,14.0,left,1.0,1.2762,2.0,flower3.jpg,flower3_pair.jpg,left,AZCGF2D7QIO10
136,7,3.0,flower3.jpg,,,,15.0,left,1.0,1.2415,3.0,flower4.jpg,flower4_pair.jpg,left,AZCGF2D7QIO10
137,8,4.0,flower4.jpg,,,,16.0,right,1.0,2.6445,4.0,flower5_pair.jpg,flower5.jpg,right,AZCGF2D7QIO10
138,9,5.0,flower5.jpg,,,,17.0,left,1.0,1.177,5.0,flower6.jpg,flower6_pair.jpg,left,AZCGF2D7QIO10
139,10,6.0,flower6.jpg,,,,,,,,,,,,AZCGF2D7QIO10
