button.numClicks,button.timesOn,button.timesOff,workID,Age,Gender,Hours slept (last night),date,expName,psychopyVersion,OS,frameRate,space_key_responce.keys,space_key_responce.rt,demo_encoding_response.keys,demo_encoding_response.corr,demo_encoding_loop.thisRepN,demo_encoding_loop.thisTrialN,demo_encoding_loop.thisN,demo_encoding_loop.thisIndex,demo_encoding_loop.ran,DemoImage,DemoCorrect,demo_encoding_response.rt,demo_test_response.keys,demo_test_response.corr,demo_test_response.rt,demo_test_loop.thisRepN,demo_test_loop.thisTrialN,demo_test_loop.thisN,demo_test_loop.thisIndex,demo_test_loop.ran,DemoImage1,DemoImage2,DemoCorrectTest,test_encoding_response.keys,test_encoding_response.corr,trials.thisRepN,trials.thisTrialN,trials.thisN,trials.thisIndex,trials.ran,target_image,pair,layer,correct,test_encoding_response.rt,key_resp_end.keys,key_resp_end.rt,test_test_response.keys,test_test_response.corr,test_test_response.rt,trials_2.thisRepN,trials_2.thisTrialN,trials_2.thisN,trials_2.thisIndex,trials_2.ran,image1,image2,key_resp_end_2.keys,key_resp_end_2.rt
1,[3.617400000002249],[3.617500000000007],A1R3VQ1011VATX,24,FEMALE,8,2022-10-06_04h50.08.198,memory_pilot_most_recent,2022.2.4,Win32,30.00660145,,,,,,,,,,,,,,,,,,,,,,,,,,,,,,,,,,,,,,,,,,,,,,,,,
,,,A1R3VQ1011VATX,24,FEMALE,8,2022-10-06_04h50.08.198,memory_pilot_most_recent,2022.2.4,Win32,30.00660145,,,,,,,,,,,,,,,,,,,,,,,,,,,,,,,,,,,,,,,,,,,,,,,,,
,,,A1R3VQ1011VATX,24,FEMALE,8,2022-10-06_04h50.08.198,memory_pilot_most_recent,2022.2.4,Win32,30.00660145,space,1.6356,,,,,,,,,,,,,,,,,,,,,,,,,,,,,,,,,,,,,,,,,,,,,,,
,,,A1R3VQ1011VATX,24,FEMALE,8,2022-10-06_04h50.08.198,memory_pilot_most_recent,2022.2.4,Win32,30.00660145,,,,,,,,,,,,,,,,,,,,,,,,,,,,,,,,,,,,,,,,,,,,,,,,,
,,,A1R3VQ1011VATX,24,FEMALE,8,2022-10-06_04h50.08.198,memory_pilot_most_recent,2022.2.4,Win32,30.00660145,,,,1,0,0,0,0,1,flower1.jpg,,,,,,,,,,,,,,,,,,,,,,,,,,,,,,,,,,,,,,,
,,,A1R3VQ1011VATX,24,FEMALE,8,2022-10-06_04h50.08.198,memory_pilot_most_recent,2022.2.4,Win32,30.00660145,,,,1,0,1,1,1,1,flower2.jpg,,,,,,,,,,,,,,,,,,,,,,,,,,,,,,,,,,,,,,,
,,,A1R3VQ1011VATX,24,FEMALE,8,2022-10-06_04h50.08.198,memory_pilot_most_recent,2022.2.4,Win32,30.00660145,,,left,1,0,2,2,2,1,left.jpg,left,1.2322,,,,,,,,,,,,,,,,,,,,,,,,,,,,,,,,,,,,,
,,,A1R3VQ1011VATX,24,FEMALE,8,2022-10-06_04h50.08.198,memory_pilot_most_recent,2022.2.4,Win32,30.00660145,,,,1,0,3,3,3,1,flower3.jpg,,,,,,,,,,,,,,,,,,,,,,,,,,,,,,,,,,,,,,,
,,,A1R3VQ1011VATX,24,FEMALE,8,2022-10-06_04h50.08.198,memory_pilot_most_recent,2022.2.4,Win32,30.00660145,,,,1,0,4,4,4,1,flower4.jpg,,,,,,,,,,,,,,,,,,,,,,,,,,,,,,,,,,,,,,,
,,,A1R3VQ1011VATX,24,FEMALE,8,2022-10-06_04h50.08.198,memory_pilot_most_recent,2022.2.4,Win32,30.00660145,,,,1,0,5,5,5,1,flower5.jpg,,,,,,,,,,,,,,,,,,,,,,,,,,,,,,,,,,,,,,,
,,,A1R3VQ1011VATX,24,FEMALE,8,2022-10-06_04h50.08.198,memory_pilot_most_recent,2022.2.4,Win32,30.00660145,,,,1,0,6,6,6,1,flower6.jpg,,,,,,,,,,,,,,,,,,,,,,,,,,,,,,,,,,,,,,,
,,,A1R3VQ1011VATX,24,FEMALE,8,2022-10-06_04h50.08.198,memory_pilot_most_recent,2022.2.4,Win32,30.00660145,,,,,,,,,,,,,,,,,,,,,,,,,,,,,,,,,,,,,,,,,,,,,,,,,
,,,A1R3VQ1011VATX,24,FEMALE,8,2022-10-06_04h50.08.198,memory_pilot_most_recent,2022.2.4,Win32,30.00660145,,,,,,,,,,,,,left,1,3.2127,0,0,0,0,1,flower1.jpg,flower1_pair.jpg,left,,,,,,,,,,,,,,,,,,,,,,,,,,
,,,A1R3VQ1011VATX,24,FEMALE,8,2022-10-06_04h50.08.198,memory_pilot_most_recent,2022.2.4,Win32,30.00660145,,,,,,,,,,,,,left,0,9.2354,0,1,1,1,1,flower2_pair.jpg,flower2.jpg,right,,,,,,,,,,,,,,,,,,,,,,,,,,
,,,A1R3VQ1011VATX,24,FEMALE,8,2022-10-06_04h50.08.198,memory_pilot_most_recent,2022.2.4,Win32,30.00660145,,,,,,,,,,,,,right,0,9.0438,0,2,2,2,1,flower3.jpg,flower3_pair.jpg,left,,,,,,,,,,,,,,,,,,,,,,,,,,
,,,A1R3VQ1011VATX,24,FEMALE,8,2022-10-06_04h50.08.198,memory_pilot_most_recent,2022.2.4,Win32,30.00660145,,,,,,,,,,,,,left,1,9.1777,0,3,3,3,1,flower4.jpg,flower4_pair.jpg,left,,,,,,,,,,,,,,,,,,,,,,,,,,
,,,A1R3VQ1011VATX,24,FEMALE,8,2022-10-06_04h50.08.198,memory_pilot_most_recent,2022.2.4,Win32,30.00660145,,,,,,,,,,,,,right,1,5.1318,0,4,4,4,1,flower5_pair.jpg,flower5.jpg,right,,,,,,,,,,,,,,,,,,,,,,,,,,
,,,A1R3VQ1011VATX,24,FEMALE,8,2022-10-06_04h50.08.198,memory_pilot_most_recent,2022.2.4,Win32,30.00660145,,,,,,,,,,,,,left,1,4.9195,0,5,5,5,1,flower6.jpg,flower6_pair.jpg,left,,,,,,,,,,,,,,,,,,,,,,,,,,
,,,A1R3VQ1011VATX,24,FEMALE,8,2022-10-06_04h50.08.198,memory_pilot_most_recent,2022.2.4,Win32,30.00660145,,,,,,,,,,,,,,,,,,,,,,,,,,,,,,,,,,,,,,,,,,,,,,,,,
,,,A1R3VQ1011VATX,24,FEMALE,8,2022-10-06_04h50.08.198,memory_pilot_most_recent,2022.2.4,Win32,30.00660145,space,1.1598,,,,,,,,,,,,,,,,,,,,,,,,,,,,,,,,,,,,,,,,,,,,,,,
,,,A1R3VQ1011VATX,24,FEMALE,8,2022-10-06_04h50.08.198,memory_pilot_most_recent,2022.2.4,Win32,30.00660145,,,,,,,,,,,,,,,,,,,,,,,,,1,0,0,0,0,1,2898624426-291546.jpg,2981236443-71859.jpg,2,,,,,,,,,,,,,,,,
,,,A1R3VQ1011VATX,24,FEMALE,8,2022-10-06_04h50.08.198,memory_pilot_most_recent,2022.2.4,Win32,30.00660145,,,,,,,,,,,,,,,,,,,,,,,,,1,0,1,1,1,1,2238572663-35822.jpg,2238571930-184143.jpg,2,,,,,,,,,,,,,,,,
,,,A1R3VQ1011VATX,24,FEMALE,8,2022-10-06_04h50.08.198,memory_pilot_most_recent,2022.2.4,Win32,30.00660145,,,,,,,,,,,,,,,,,,,,,,,,,1,0,2,2,2,1,2964213381-294060.jpg,2964213381-294061.jpg,3,,,,,,,,,,,,,,,,
,,,A1R3VQ1011VATX,24,FEMALE,8,2022-10-06_04h50.08.198,memory_pilot_most_recent,2022.2.4,Win32,30.00660145,,,,,,,,,,,,,,,,,,,,,,,,,1,0,3,3,3,1,2592380177-354626.jpg,2864901386-286797.jpg,2,,,,,,,,,,,,,,,,
,,,A1R3VQ1011VATX,24,FEMALE,8,2022-10-06_04h50.08.198,memory_pilot_most_recent,2022.2.4,Win32,30.00660145,,,,,,,,,,,,,,,,,,,,,,,,,1,0,4,4,4,1,2449442529-124446.jpg,2460547536-274178.jpg,3,,,,,,,,,,,,,,,,
,,,A1R3VQ1011VATX,24,FEMALE,8,2022-10-06_04h50.08.198,memory_pilot_most_recent,2022.2.4,Win32,30.00660145,,,,,,,,,,,,,,,,,,,,,,,,,1,0,5,5,5,1,2964218374-144967.jpg,2446759306-271734.jpg,2,,,,,,,,,,,,,,,,
,,,A1R3VQ1011VATX,24,FEMALE,8,2022-10-06_04h50.08.198,memory_pilot_most_recent,2022.2.4,Win32,30.00660145,,,,,,,,,,,,,,,,,,,,,,,,left,1,0,6,6,6,1,left.jpg,,,left,1.4649,,,,,,,,,,,,,,
,,,A1R3VQ1011VATX,24,FEMALE,8,2022-10-06_04h50.08.198,memory_pilot_most_recent,2022.2.4,Win32,30.00660145,,,,,,,,,,,,,,,,,,,,,,,,,1,0,7,7,7,1,2874302418-65979.jpg,2238480648-19714.jpg,2,,,,,,,,,,,,,,,,
,,,A1R3VQ1011VATX,24,FEMALE,8,2022-10-06_04h50.08.198,memory_pilot_most_recent,2022.2.4,Win32,30.00660145,,,,,,,,,,,,,,,,,,,,,,,,,1,0,8,8,8,1,2986451363-73598.jpg,2901942443-69925.jpg,3,,,,,,,,,,,,,,,,
,,,A1R3VQ1011VATX,24,FEMALE,8,2022-10-06_04h50.08.198,memory_pilot_most_recent,2022.2.4,Win32,30.00660145,,,,,,,,,,,,,,,,,,,,,,,,,1,0,9,9,9,1,2452381505-199546.jpg,2898632385-217138.jpg,2,,,,,,,,,,,,,,,,
,,,A1R3VQ1011VATX,24,FEMALE,8,2022-10-06_04h50.08.198,memory_pilot_most_recent,2022.2.4,Win32,30.00660145,,,,,,,,,,,,,,,,,,,,,,,,,1,0,10,10,10,1,2864907432-362042.jpg,2989726338-74002.jpg,3,,,,,,,,,,,,,,,,
,,,A1R3VQ1011VATX,24,FEMALE,8,2022-10-06_04h50.08.198,memory_pilot_most_recent,2022.2.4,Win32,30.00660145,,,,,,,,,,,,,,,,,,,,,,,,,1,0,11,11,11,1,2460547508-51571.jpg,2452380166-273109.jpg,1,,,,,,,,,,,,,,,,
,,,A1R3VQ1011VATX,24,FEMALE,8,2022-10-06_04h50.08.198,memory_pilot_most_recent,2022.2.4,Win32,30.00660145,,,,,,,,,,,,,,,,,,,,,,,,,1,0,12,12,12,1,2964222378-71332.jpg,2981240424-145794.jpg,1,,,,,,,,,,,,,,,,
,,,A1R3VQ1011VATX,24,FEMALE,8,2022-10-06_04h50.08.198,memory_pilot_most_recent,2022.2.4,Win32,30.00660145,,,,,,,,,,,,,,,,,,,,,,,,,1,0,13,13,13,1,2986451363-73599.jpg,2898626385-216899.jpg,1,,,,,,,,,,,,,,,,
,,,A1R3VQ1011VATX,24,FEMALE,8,2022-10-06_04h50.08.198,memory_pilot_most_recent,2022.2.4,Win32,30.00660145,,,,,,,,,,,,,,,,,,,,,,,,,1,0,14,14,14,1,2238480677-317399.jpg,2238573546-258454.jpg,2,,,,,,,,,,,,,,,,
,,,A1R3VQ1011VATX,24,FEMALE,8,2022-10-06_04h50.08.198,memory_pilot_most_recent,2022.2.4,Win32,30.00660145,,,,,,,,,,,,,,,,,,,,,,,,,1,0,15,15,15,1,2874303365-214262.jpg,2274829821-263682.jpg,1,,,,,,,,,,,,,,,,
,,,A1R3VQ1011VATX,24,FEMALE,8,2022-10-06_04h50.08.198,memory_pilot_most_recent,2022.2.4,Win32,30.00660145,,,,,,,,,,,,,,,,,,,,,,,,,1,0,16,16,16,1,2901939379-143479.jpg,2446758985-197610.jpg,2,,,,,,,,,,,,,,,,
,,,A1R3VQ1011VATX,24,FEMALE,8,2022-10-06_04h50.08.198,memory_pilot_most_recent,2022.2.4,Win32,30.00660145,,,,,,,,,,,,,,,,,,,,,,,,,1,0,17,17,17,1,2874302418-65978.jpg,2238481198-19823.jpg,2,,,,,,,,,,,,,,,,
,,,A1R3VQ1011VATX,24,FEMALE,8,2022-10-06_04h50.08.198,memory_pilot_most_recent,2022.2.4,Win32,30.00660145,,,,,,,,,,,,,,,,,,,,,,,,,1,0,18,18,18,1,2452380832-348593.jpg,2237858942-299356.jpg,3,,,,,,,,,,,,,,,,
,,,A1R3VQ1011VATX,24,FEMALE,8,2022-10-06_04h50.08.198,memory_pilot_most_recent,2022.2.4,Win32,30.00660145,,,,,,,,,,,,,,,,,,,,,,,,,1,0,19,19,19,1,2901941401-292798.jpg,2898618327-366317.jpg,1,,,,,,,,,,,,,,,,
,,,A1R3VQ1011VATX,24,FEMALE,8,2022-10-06_04h50.08.198,memory_pilot_most_recent,2022.2.4,Win32,30.00660145,,,,,,,,,,,,,,,,,,,,,,,,,1,0,20,20,20,1,2868475410-213219.jpg,2868474407-362885.jpg,3,,,,,,,,,,,,,,,,
,,,A1R3VQ1011VATX,24,FEMALE,8,2022-10-06_04h50.08.198,memory_pilot_most_recent,2022.2.4,Win32,30.00660145,,,,,,,,,,,,,,,,,,,,,,,,left,1,0,21,21,21,1,left.jpg,,,left,1.1702,,,,,,,,,,,,,,
,,,A1R3VQ1011VATX,24,FEMALE,8,2022-10-06_04h50.08.198,memory_pilot_most_recent,2022.2.4,Win32,30.00660145,,,,,,,,,,,,,,,,,,,,,,,,,1,0,22,22,22,1,2898635427-367120.jpg,2964221435-219434.jpg,1,,,,,,,,,,,,,,,,
,,,A1R3VQ1011VATX,24,FEMALE,8,2022-10-06_04h50.08.198,memory_pilot_most_recent,2022.2.4,Win32,30.00660145,,,,,,,,,,,,,,,,,,,,,,,,,1,0,23,23,23,1,2964216465-219242.jpg,2898619327-366362.jpg,3,,,,,,,,,,,,,,,,
,,,A1R3VQ1011VATX,24,FEMALE,8,2022-10-06_04h50.08.198,memory_pilot_most_recent,2022.2.4,Win32,30.00660145,,,,,,,,,,,,,,,,,,,,,,,,,1,0,24,24,24,1,2901947423-70311.jpg,2238577590-185467.jpg,3,,,,,,,,,,,,,,,,
,,,A1R3VQ1011VATX,24,FEMALE,8,2022-10-06_04h50.08.198,memory_pilot_most_recent,2022.2.4,Win32,30.00660145,,,,,,,,,,,,,,,,,,,,,,,,,1,0,25,25,25,1,2449442529-124445.jpg,2898632385-217137.jpg,3,,,,,,,,,,,,,,,,
,,,A1R3VQ1011VATX,24,FEMALE,8,2022-10-06_04h50.08.198,memory_pilot_most_recent,2022.2.4,Win32,30.00660145,,,,,,,,,,,,,,,,,,,,,,,,,1,0,26,26,26,1,2238481198-19822.jpg,2862691449-137104.jpg,1,,,,,,,,,,,,,,,,
,,,A1R3VQ1011VATX,24,FEMALE,8,2022-10-06_04h50.08.198,memory_pilot_most_recent,2022.2.4,Win32,30.00660145,,,,,,,,,,,,,,,,,,,,,,,,,1,0,27,27,27,1,2592380177-354629.jpg,2898633421-291974.jpg,1,,,,,,,,,,,,,,,,
,,,A1R3VQ1011VATX,24,FEMALE,8,2022-10-06_04h50.08.198,memory_pilot_most_recent,2022.2.4,Win32,30.00660145,,,,,,,,,,,,,,,,,,,,,,,,,1,0,28,28,28,1,2868474407-362883.jpg,2901948383-70363.jpg,3,,,,,,,,,,,,,,,,
,,,A1R3VQ1011VATX,24,FEMALE,8,2022-10-06_04h50.08.198,memory_pilot_most_recent,2022.2.4,Win32,30.00660145,,,,,,,,,,,,,,,,,,,,,,,,,1,0,29,29,29,1,2883268471-290842.jpg,2901947448-70314.jpg,3,,,,,,,,,,,,,,,,
,,,A1R3VQ1011VATX,24,FEMALE,8,2022-10-06_04h50.08.198,memory_pilot_most_recent,2022.2.4,Win32,30.00660145,,,,,,,,,,,,,,,,,,,,,,,,,1,0,30,30,30,1,2898635428-69104.jpg,2446759803-49250.jpg,1,,,,,,,,,,,,,,,,
,,,A1R3VQ1011VATX,24,FEMALE,8,2022-10-06_04h50.08.198,memory_pilot_most_recent,2022.2.4,Win32,30.00660145,,,,,,,,,,,,,,,,,,,,,,,,,1,0,31,31,31,1,2901939379-143480.jpg,2898632385-217139.jpg,3,,,,,,,,,,,,,,,,
,,,A1R3VQ1011VATX,24,FEMALE,8,2022-10-06_04h50.08.198,memory_pilot_most_recent,2022.2.4,Win32,30.00660145,,,,,,,,,,,,,,,,,,,,,,,,,1,0,32,32,32,1,2898634397-367080.jpg,2964217461-294238.jpg,3,,,,,,,,,,,,,,,,
,,,A1R3VQ1011VATX,24,FEMALE,8,2022-10-06_04h50.08.198,memory_pilot_most_recent,2022.2.4,Win32,30.00660145,,,,,,,,,,,,,,,,,,,,,,,,left,1,0,33,33,33,1,left.jpg,,,left,1.1591,,,,,,,,,,,,,,
,,,A1R3VQ1011VATX,24,FEMALE,8,2022-10-06_04h50.08.198,memory_pilot_most_recent,2022.2.4,Win32,30.00660145,,,,,,,,,,,,,,,,,,,,,,,,,1,0,34,34,34,1,2238481928-19949.jpg,2864900357-361688.jpg,2,,,,,,,,,,,,,,,,
,,,A1R3VQ1011VATX,24,FEMALE,8,2022-10-06_04h50.08.198,memory_pilot_most_recent,2022.2.4,Win32,30.00660145,,,,,,,,,,,,,,,,,,,,,,,,,1,0,35,35,35,1,2238580740-186218.jpg,2238550816-254000.jpg,1,,,,,,,,,,,,,,,,
,,,A1R3VQ1011VATX,24,FEMALE,8,2022-10-06_04h50.08.198,memory_pilot_most_recent,2022.2.4,Win32,30.00660145,,,,,,,,,,,,,,,,,,,,,,,,,1,0,36,36,36,1,2864910426-287204.jpg,2883268412-365899.jpg,2,,,,,,,,,,,,,,,,
,,,A1R3VQ1011VATX,24,FEMALE,8,2022-10-06_04h50.08.198,memory_pilot_most_recent,2022.2.4,Win32,30.00660145,,,,,,,,,,,,,,,,,,,,,,,,,1,0,37,37,37,1,2883256307-365057.jpg,2964210336-293945.jpg,2,,,,,,,,,,,,,,,,
,,,A1R3VQ1011VATX,24,FEMALE,8,2022-10-06_04h50.08.198,memory_pilot_most_recent,2022.2.4,Win32,30.00660145,,,,,,,,,,,,,,,,,,,,,,,,left,1,0,38,38,38,1,left.jpg,,,left,1.5008,,,,,,,,,,,,,,
,,,A1R3VQ1011VATX,24,FEMALE,8,2022-10-06_04h50.08.198,memory_pilot_most_recent,2022.2.4,Win32,30.00660145,,,,,,,,,,,,,,,,,,,,,,,,,1,0,39,39,39,1,2901952513-70703.jpg,2864907361-287062.jpg,1,,,,,,,,,,,,,,,,
,,,A1R3VQ1011VATX,24,FEMALE,8,2022-10-06_04h50.08.198,memory_pilot_most_recent,2022.2.4,Win32,30.00660145,,,,,,,,,,,,,,,,,,,,,,,,,1,0,40,40,40,1,2446759803-49249.jpg,2901951392-368654.jpg,3,,,,,,,,,,,,,,,,
,,,A1R3VQ1011VATX,24,FEMALE,8,2022-10-06_04h50.08.198,memory_pilot_most_recent,2022.2.4,Win32,30.00660145,,,,,,,,,,,,,,,,,,,,,,,,,1,0,41,41,41,1,2898618390-216538.jpg,2901939327-367670.jpg,2,,,,,,,,,,,,,,,,
,,,A1R3VQ1011VATX,24,FEMALE,8,2022-10-06_04h50.08.198,memory_pilot_most_recent,2022.2.4,Win32,30.00660145,,,,,,,,,,,,,,,,,,,,,,,,,1,0,42,42,42,1,2238560245-182099.jpg,2592380255-205553.jpg,1,,,,,,,,,,,,,,,,
,,,A1R3VQ1011VATX,24,FEMALE,8,2022-10-06_04h50.08.198,memory_pilot_most_recent,2022.2.4,Win32,30.00660145,,,,,,,,,,,,,,,,,,,,,,,,,1,0,43,43,43,1,2883273443-68193.jpg,2883254439-140940.jpg,1,,,,,,,,,,,,,,,,
,,,A1R3VQ1011VATX,24,FEMALE,8,2022-10-06_04h50.08.198,memory_pilot_most_recent,2022.2.4,Win32,30.00660145,,,,,,,,,,,,,,,,,,,,,,,,,1,0,44,44,44,1,2458347385-199723.jpg,2427874554-121863.jpg,2,,,,,,,,,,,,,,,,
,,,A1R3VQ1011VATX,24,FEMALE,8,2022-10-06_04h50.08.198,memory_pilot_most_recent,2022.2.4,Win32,30.00660145,,,,,,,,,,,,,,,,,,,,,,,,,1,0,45,45,45,1,2883268412-365898.jpg,2238436252-314037.jpg,3,,,,,,,,,,,,,,,,
,,,A1R3VQ1011VATX,24,FEMALE,8,2022-10-06_04h50.08.198,memory_pilot_most_recent,2022.2.4,Win32,30.00660145,,,,,,,,,,,,,,,,,,,,,,,,right,1,0,46,46,46,1,right.jpg,,,right,2.3748,,,,,,,,,,,,,,
,,,A1R3VQ1011VATX,24,FEMALE,8,2022-10-06_04h50.08.198,memory_pilot_most_recent,2022.2.4,Win32,30.00660145,,,,,,,,,,,,,,,,,,,,,,,,,1,0,47,47,47,1,2981241414-145842.jpg,2874301404-139813.jpg,2,,,,,,,,,,,,,,,,
,,,A1R3VQ1011VATX,24,FEMALE,8,2022-10-06_04h50.08.198,memory_pilot_most_recent,2022.2.4,Win32,30.00660145,,,,,,,,,,,,,,,,,,,,,,,,,1,0,48,48,48,1,2981231403-71642.jpg,2874305405-214397.jpg,2,,,,,,,,,,,,,,,,
,,,A1R3VQ1011VATX,24,FEMALE,8,2022-10-06_04h50.08.198,memory_pilot_most_recent,2022.2.4,Win32,30.00660145,,,,,,,,,,,,,,,,,,,,,,,,,1,0,49,49,49,1,2575120738-55529.jpg,2575120738-55528.jpg,2,,,,,,,,,,,,,,,,
,,,A1R3VQ1011VATX,24,FEMALE,8,2022-10-06_04h50.08.198,memory_pilot_most_recent,2022.2.4,Win32,30.00660145,,,,,,,,,,,,,,,,,,,,,,,,,1,0,50,50,50,1,2446758985-197609.jpg,2981240424-145795.jpg,1,,,,,,,,,,,,,,,,
,,,A1R3VQ1011VATX,24,FEMALE,8,2022-10-06_04h50.08.198,memory_pilot_most_recent,2022.2.4,Win32,30.00660145,,,,,,,,,,,,,,,,,,,,,,,,,1,0,51,51,51,1,2874301407-363895.jpg,2446761374-124213.jpg,1,,,,,,,,,,,,,,,,
,,,A1R3VQ1011VATX,24,FEMALE,8,2022-10-06_04h50.08.198,memory_pilot_most_recent,2022.2.4,Win32,30.00660145,,,,,,,,,,,,,,,,,,,,,,,,,1,0,52,52,52,1,2874299429-139695.jpg,2446760917-347439.jpg,3,,,,,,,,,,,,,,,,
,,,A1R3VQ1011VATX,24,FEMALE,8,2022-10-06_04h50.08.198,memory_pilot_most_recent,2022.2.4,Win32,30.00660145,,,,,,,,,,,,,,,,,,,,,,,,,1,0,53,53,53,1,2898618444-142233.jpg,2898631359-142721.jpg,1,,,,,,,,,,,,,,,,
,,,A1R3VQ1011VATX,24,FEMALE,8,2022-10-06_04h50.08.198,memory_pilot_most_recent,2022.2.4,Win32,30.00660145,,,,,,,,,,,,,,,,,,,,,,,,,1,0,54,54,54,1,2898617468-68274.jpg,2964207374-144577.jpg,3,,,,,,,,,,,,,,,,
,,,A1R3VQ1011VATX,24,FEMALE,8,2022-10-06_04h50.08.198,memory_pilot_most_recent,2022.2.4,Win32,30.00660145,,,,,,,,,,,,,,,,,,,,,,,,,1,0,55,55,55,1,2460547467-349421.jpg,2981235446-294901.jpg,3,,,,,,,,,,,,,,,,
,,,A1R3VQ1011VATX,24,FEMALE,8,2022-10-06_04h50.08.198,memory_pilot_most_recent,2022.2.4,Win32,30.00660145,,,,,,,,,,,,,,,,,,,,,,,,,1,0,56,56,56,1,2874307433-66280.jpg,2984615358-72439.jpg,1,,,,,,,,,,,,,,,,
,,,A1R3VQ1011VATX,24,FEMALE,8,2022-10-06_04h50.08.198,memory_pilot_most_recent,2022.2.4,Win32,30.00660145,,,,,,,,,,,,,,,,,,,,,,,,,1,0,57,57,57,1,2874299429-139694.jpg,2883266367-365742.jpg,3,,,,,,,,,,,,,,,,
,,,A1R3VQ1011VATX,24,FEMALE,8,2022-10-06_04h50.08.198,memory_pilot_most_recent,2022.2.4,Win32,30.00660145,,,,,,,,,,,,,,,,,,,,,,,,,1,0,58,58,58,1,2238425482-313537.jpg,2238471391-240918.jpg,1,,,,,,,,,,,,,,,,
,,,A1R3VQ1011VATX,24,FEMALE,8,2022-10-06_04h50.08.198,memory_pilot_most_recent,2022.2.4,Win32,30.00660145,,,,,,,,,,,,,,,,,,,,,,,,,1,0,59,59,59,1,2238428357-313623.jpg,2238499057-320266.jpg,1,,,,,,,,,,,,,,,,
,,,A1R3VQ1011VATX,24,FEMALE,8,2022-10-06_04h50.08.198,memory_pilot_most_recent,2022.2.4,Win32,30.00660145,,,,,,,,,,,,,,,,,,,,,,,,,1,0,60,60,60,1,2592379964-131054.jpg,2592380272-354673.jpg,3,,,,,,,,,,,,,,,,
,,,A1R3VQ1011VATX,24,FEMALE,8,2022-10-06_04h50.08.198,memory_pilot_most_recent,2022.2.4,Win32,30.00660145,,,,,,,,,,,,,,,,,,,,,,,,,1,0,61,61,61,1,2898633421-291973.jpg,2575118671-277663.jpg,2,,,,,,,,,,,,,,,,
,,,A1R3VQ1011VATX,24,FEMALE,8,2022-10-06_04h50.08.198,memory_pilot_most_recent,2022.2.4,Win32,30.00660145,,,,,,,,,,,,,,,,,,,,,,,,,1,0,62,62,62,1,2460547467-349422.jpg,2868487415-213924.jpg,2,,,,,,,,,,,,,,,,
,,,A1R3VQ1011VATX,24,FEMALE,8,2022-10-06_04h50.08.198,memory_pilot_most_recent,2022.2.4,Win32,30.00660145,,,,,,,,,,,,,,,,,,,,,,,,,1,0,63,63,63,1,2964223381-294447.jpg,2427874231-269884.jpg,1,,,,,,,,,,,,,,,,
,,,A1R3VQ1011VATX,24,FEMALE,8,2022-10-06_04h50.08.198,memory_pilot_most_recent,2022.2.4,Win32,30.00660145,,,,,,,,,,,,,,,,,,,,,,,,,1,0,64,64,64,1,2512875899-126682.jpg,2592380177-354628.jpg,2,,,,,,,,,,,,,,,,
,,,A1R3VQ1011VATX,24,FEMALE,8,2022-10-06_04h50.08.198,memory_pilot_most_recent,2022.2.4,Win32,30.00660145,,,,,,,,,,,,,,,,,,,,,,,,,,,,,,,,,,,,space,2.2466,,,,,,,,,,,,
,,,A1R3VQ1011VATX,24,FEMALE,8,2022-10-06_04h50.08.198,memory_pilot_most_recent,2022.2.4,Win32,30.00660145,,,,,,,,,,,,,,,,,,,,,,,,,,,,,,,,,,,,,,,,,,,,,,,,,
,,,A1R3VQ1011VATX,24,FEMALE,8,2022-10-06_04h50.08.198,memory_pilot_most_recent,2022.2.4,Win32,30.00660145,,,,,,,,,,,,,,,,,,,,,,,,,,,,,,,,,1,left,,,,right,0,1.9038,0,0,0,0,1,2238580740-186218.jpg,2238550816-254000.jpg,,
,,,A1R3VQ1011VATX,24,FEMALE,8,2022-10-06_04h50.08.198,memory_pilot_most_recent,2022.2.4,Win32,30.00660145,,,,,,,,,,,,,,,,,,,,,,,,,,,,,,,,,3,left,,,,right,0,1.1365,0,1,1,1,1,2449442529-124445.jpg,2898632385-217137.jpg,,
,,,A1R3VQ1011VATX,24,FEMALE,8,2022-10-06_04h50.08.198,memory_pilot_most_recent,2022.2.4,Win32,30.00660145,,,,,,,,,,,,,,,,,,,,,,,,,,,,,,,,,2,left,,,,right,0,1.2827,0,2,2,2,1,2898618390-216538.jpg,2901939327-367670.jpg,,
,,,A1R3VQ1011VATX,24,FEMALE,8,2022-10-06_04h50.08.198,memory_pilot_most_recent,2022.2.4,Win32,30.00660145,,,,,,,,,,,,,,,,,,,,,,,,,,,,,,,,,2,left,,,,left,1,3.6716,0,3,3,3,1,2874302418-65979.jpg,2238480648-19714.jpg,,
,,,A1R3VQ1011VATX,24,FEMALE,8,2022-10-06_04h50.08.198,memory_pilot_most_recent,2022.2.4,Win32,30.00660145,,,,,,,,,,,,,,,,,,,,,,,,,,,,,,,,,2,left,,,,right,0,43.6172,0,4,4,4,1,2981231403-71642.jpg,2874305405-214397.jpg,,
,,,A1R3VQ1011VATX,24,FEMALE,8,2022-10-06_04h50.08.198,memory_pilot_most_recent,2022.2.4,Win32,30.00660145,,,,,,,,,,,,,,,,,,,,,,,,,,,,,,,,,2,left,,,,left,1,0.9498,0,5,5,5,1,2981241414-145842.jpg,2874301404-139813.jpg,,
,,,A1R3VQ1011VATX,24,FEMALE,8,2022-10-06_04h50.08.198,memory_pilot_most_recent,2022.2.4,Win32,30.00660145,,,,,,,,,,,,,,,,,,,,,,,,,,,,,,,,,1,left,,,,left,1,0.8074,0,6,6,6,1,2898635427-367120.jpg,2964221435-219434.jpg,,
,,,A1R3VQ1011VATX,24,FEMALE,8,2022-10-06_04h50.08.198,memory_pilot_most_recent,2022.2.4,Win32,30.00660145,,,,,,,,,,,,,,,,,,,,,,,,,,,,,,,,,1,right,,,,right,1,0.736,0,7,7,7,1,2898626385-216899.jpg,2986451363-73599.jpg,,
,,,A1R3VQ1011VATX,24,FEMALE,8,2022-10-06_04h50.08.198,memory_pilot_most_recent,2022.2.4,Win32,30.00660145,,,,,,,,,,,,,,,,,,,,,,,,,,,,,,,,,1,left,,,,left,1,0.7552,0,8,8,8,1,2883273443-68193.jpg,2883254439-140940.jpg,,
,,,A1R3VQ1011VATX,24,FEMALE,8,2022-10-06_04h50.08.198,memory_pilot_most_recent,2022.2.4,Win32,30.00660145,,,,,,,,,,,,,,,,,,,,,,,,,,,,,,,,,2,left,,,,right,0,0.7527,0,9,9,9,1,2883256307-365057.jpg,2964210336-293945.jpg,,
,,,A1R3VQ1011VATX,24,FEMALE,8,2022-10-06_04h50.08.198,memory_pilot_most_recent,2022.2.4,Win32,30.00660145,,,,,,,,,,,,,,,,,,,,,,,,,,,,,,,,,3,left,,,,left,1,0.4461,0,10,10,10,1,2898634397-367080.jpg,2964217461-294238.jpg,,
,,,A1R3VQ1011VATX,24,FEMALE,8,2022-10-06_04h50.08.198,memory_pilot_most_recent,2022.2.4,Win32,30.00660145,,,,,,,,,,,,,,,,,,,,,,,,,,,,,,,,,2,right,,,,right,1,0.4043,0,11,11,11,1,2868487415-213924.jpg,2460547467-349422.jpg,,
,,,A1R3VQ1011VATX,24,FEMALE,8,2022-10-06_04h50.08.198,memory_pilot_most_recent,2022.2.4,Win32,30.00660145,,,,,,,,,,,,,,,,,,,,,,,,,,,,,,,,,2,right,,,,left,0,0.7908,0,12,12,12,1,2883268412-365899.jpg,2864910426-287204.jpg,,
,,,A1R3VQ1011VATX,24,FEMALE,8,2022-10-06_04h50.08.198,memory_pilot_most_recent,2022.2.4,Win32,30.00660145,,,,,,,,,,,,,,,,,,,,,,,,,,,,,,,,,3,right,,,,right,1,0.9974,0,13,13,13,1,2237858942-299356.jpg,2452380832-348593.jpg,,
,,,A1R3VQ1011VATX,24,FEMALE,8,2022-10-06_04h50.08.198,memory_pilot_most_recent,2022.2.4,Win32,30.00660145,,,,,,,,,,,,,,,,,,,,,,,,,,,,,,,,,3,left,,,,right,0,12.2644,0,14,14,14,1,2901939379-143480.jpg,2898632385-217139.jpg,,
,,,A1R3VQ1011VATX,24,FEMALE,8,2022-10-06_04h50.08.198,memory_pilot_most_recent,2022.2.4,Win32,30.00660145,,,,,,,,,,,,,,,,,,,,,,,,,,,,,,,,,2,left,,,,left,1,0.9672,0,15,15,15,1,2964218374-144967.jpg,2446759306-271734.jpg,,
,,,A1R3VQ1011VATX,24,FEMALE,8,2022-10-06_04h50.08.198,memory_pilot_most_recent,2022.2.4,Win32,30.00660145,,,,,,,,,,,,,,,,,,,,,,,,,,,,,,,,,1,right,,,,right,1,0.7656,0,16,16,16,1,2898618327-366317.jpg,2901941401-292798.jpg,,
,,,A1R3VQ1011VATX,24,FEMALE,8,2022-10-06_04h50.08.198,memory_pilot_most_recent,2022.2.4,Win32,30.00660145,,,,,,,,,,,,,,,,,,,,,,,,,,,,,,,,,3,right,,,,left,0,0.5694,0,17,17,17,1,2460547536-274178.jpg,2449442529-124446.jpg,,
,,,A1R3VQ1011VATX,24,FEMALE,8,2022-10-06_04h50.08.198,memory_pilot_most_recent,2022.2.4,Win32,30.00660145,,,,,,,,,,,,,,,,,,,,,,,,,,,,,,,,,3,right,,,,right,1,0.4997,0,18,18,18,1,2964207374-144577.jpg,2898617468-68274.jpg,,
,,,A1R3VQ1011VATX,24,FEMALE,8,2022-10-06_04h50.08.198,memory_pilot_most_recent,2022.2.4,Win32,30.00660145,,,,,,,,,,,,,,,,,,,,,,,,,,,,,,,,,1,left,,,,right,0,3.754,0,19,19,19,1,2898635428-69104.jpg,2446759803-49250.jpg,,
,,,A1R3VQ1011VATX,24,FEMALE,8,2022-10-06_04h50.08.198,memory_pilot_most_recent,2022.2.4,Win32,30.00660145,,,,,,,,,,,,,,,,,,,,,,,,,,,,,,,,,1,right,,,,right,1,55.5645,0,20,20,20,1,2592380255-205553.jpg,2238560245-182099.jpg,,
,,,A1R3VQ1011VATX,24,FEMALE,8,2022-10-06_04h50.08.198,memory_pilot_most_recent,2022.2.4,Win32,30.00660145,,,,,,,,,,,,,,,,,,,,,,,,,,,,,,,,,2,left,,,,left,1,1.1679,0,21,21,21,1,2898633421-291973.jpg,2575118671-277663.jpg,,
,,,A1R3VQ1011VATX,24,FEMALE,8,2022-10-06_04h50.08.198,memory_pilot_most_recent,2022.2.4,Win32,30.00660145,,,,,,,,,,,,,,,,,,,,,,,,,,,,,,,,,3,left,,,,right,0,1.165,0,22,22,22,1,2964213381-294060.jpg,2964213381-294061.jpg,,
,,,A1R3VQ1011VATX,24,FEMALE,8,2022-10-06_04h50.08.198,memory_pilot_most_recent,2022.2.4,Win32,30.00660145,,,,,,,,,,,,,,,,,,,,,,,,,,,,,,,,,2,right,,,,right,1,0.9679,0,23,23,23,1,2427874554-121863.jpg,2458347385-199723.jpg,,
,,,A1R3VQ1011VATX,24,FEMALE,8,2022-10-06_04h50.08.198,memory_pilot_most_recent,2022.2.4,Win32,30.00660145,,,,,,,,,,,,,,,,,,,,,,,,,,,,,,,,,2,left,,,,left,1,0.7261,0,24,24,24,1,2592380177-354626.jpg,2864901386-286797.jpg,,
,,,A1R3VQ1011VATX,24,FEMALE,8,2022-10-06_04h50.08.198,memory_pilot_most_recent,2022.2.4,Win32,30.00660145,,,,,,,,,,,,,,,,,,,,,,,,,,,,,,,,,1,left,,,,left,1,0.8659,0,25,25,25,1,2874303365-214262.jpg,2274829821-263682.jpg,,
,,,A1R3VQ1011VATX,24,FEMALE,8,2022-10-06_04h50.08.198,memory_pilot_most_recent,2022.2.4,Win32,30.00660145,,,,,,,,,,,,,,,,,,,,,,,,,,,,,,,,,2,right,,,,right,1,1.0001,0,26,26,26,1,2238573546-258454.jpg,2238480677-317399.jpg,,
,,,A1R3VQ1011VATX,24,FEMALE,8,2022-10-06_04h50.08.198,memory_pilot_most_recent,2022.2.4,Win32,30.00660145,,,,,,,,,,,,,,,,,,,,,,,,,,,,,,,,,1,right,,,,left,0,0.6187,0,27,27,27,1,2981240424-145794.jpg,2964222378-71332.jpg,,
,,,A1R3VQ1011VATX,24,FEMALE,8,2022-10-06_04h50.08.198,memory_pilot_most_recent,2022.2.4,Win32,30.00660145,,,,,,,,,,,,,,,,,,,,,,,,,,,,,,,,,3,right,,,,right,1,0.5027,0,28,28,28,1,2883266367-365742.jpg,2874299429-139694.jpg,,
,,,A1R3VQ1011VATX,24,FEMALE,8,2022-10-06_04h50.08.198,memory_pilot_most_recent,2022.2.4,Win32,30.00660145,,,,,,,,,,,,,,,,,,,,,,,,,,,,,,,,,3,right,,,,left,0,0.4137,0,29,29,29,1,2238436252-314037.jpg,2883268412-365898.jpg,,
,,,A1R3VQ1011VATX,24,FEMALE,8,2022-10-06_04h50.08.198,memory_pilot_most_recent,2022.2.4,Win32,30.00660145,,,,,,,,,,,,,,,,,,,,,,,,,,,,,,,,,1,left,,,,left,1,0.8103,0,30,30,30,1,2238428357-313623.jpg,2238499057-320266.jpg,,
,,,A1R3VQ1011VATX,24,FEMALE,8,2022-10-06_04h50.08.198,memory_pilot_most_recent,2022.2.4,Win32,30.00660145,,,,,,,,,,,,,,,,,,,,,,,,,,,,,,,,,1,left,,,,left,1,0.7361,0,31,31,31,1,2898618444-142233.jpg,2898631359-142721.jpg,,
,,,A1R3VQ1011VATX,24,FEMALE,8,2022-10-06_04h50.08.198,memory_pilot_most_recent,2022.2.4,Win32,30.00660145,,,,,,,,,,,,,,,,,,,,,,,,,,,,,,,,,3,right,,,,right,1,0.7013,0,32,32,32,1,2868474407-362885.jpg,2868475410-213219.jpg,,
,,,A1R3VQ1011VATX,24,FEMALE,8,2022-10-06_04h50.08.198,memory_pilot_most_recent,2022.2.4,Win32,30.00660145,,,,,,,,,,,,,,,,,,,,,,,,,,,,,,,,,1,right,,,,left,0,0.8802,0,33,33,33,1,2984615358-72439.jpg,2874307433-66280.jpg,,
,,,A1R3VQ1011VATX,24,FEMALE,8,2022-10-06_04h50.08.198,memory_pilot_most_recent,2022.2.4,Win32,30.00660145,,,,,,,,,,,,,,,,,,,,,,,,,,,,,,,,,3,left,,,,left,1,0.9343,0,34,34,34,1,2592379964-131054.jpg,2592380272-354673.jpg,,
,,,A1R3VQ1011VATX,24,FEMALE,8,2022-10-06_04h50.08.198,memory_pilot_most_recent,2022.2.4,Win32,30.00660145,,,,,,,,,,,,,,,,,,,,,,,,,,,,,,,,,1,left,,,,right,0,0.7503,0,35,35,35,1,2460547508-51571.jpg,2452380166-273109.jpg,,
,,,A1R3VQ1011VATX,24,FEMALE,8,2022-10-06_04h50.08.198,memory_pilot_most_recent,2022.2.4,Win32,30.00660145,,,,,,,,,,,,,,,,,,,,,,,,,,,,,,,,,1,left,,,,left,1,0.851,0,36,36,36,1,2964223381-294447.jpg,2427874231-269884.jpg,,
,,,A1R3VQ1011VATX,24,FEMALE,8,2022-10-06_04h50.08.198,memory_pilot_most_recent,2022.2.4,Win32,30.00660145,,,,,,,,,,,,,,,,,,,,,,,,,,,,,,,,,2,right,,,,right,1,0.7147,0,37,37,37,1,2238571930-184143.jpg,2238572663-35822.jpg,,
,,,A1R3VQ1011VATX,24,FEMALE,8,2022-10-06_04h50.08.198,memory_pilot_most_recent,2022.2.4,Win32,30.00660145,,,,,,,,,,,,,,,,,,,,,,,,,,,,,,,,,2,right,,,,left,0,0.7005,0,38,38,38,1,2981236443-71859.jpg,2898624426-291546.jpg,,
,,,A1R3VQ1011VATX,24,FEMALE,8,2022-10-06_04h50.08.198,memory_pilot_most_recent,2022.2.4,Win32,30.00660145,,,,,,,,,,,,,,,,,,,,,,,,,,,,,,,,,3,left,,,,left,1,0.6701,0,39,39,39,1,2901947423-70311.jpg,2238577590-185467.jpg,,
,,,A1R3VQ1011VATX,24,FEMALE,8,2022-10-06_04h50.08.198,memory_pilot_most_recent,2022.2.4,Win32,30.00660145,,,,,,,,,,,,,,,,,,,,,,,,,,,,,,,,,3,left,,,,right,0,0.6145,0,40,40,40,1,2446759803-49249.jpg,2901951392-368654.jpg,,
,,,A1R3VQ1011VATX,24,FEMALE,8,2022-10-06_04h50.08.198,memory_pilot_most_recent,2022.2.4,Win32,30.00660145,,,,,,,,,,,,,,,,,,,,,,,,,,,,,,,,,1,left,,,,left,1,0.5144,0,41,41,41,1,2238425482-313537.jpg,2238471391-240918.jpg,,
,,,A1R3VQ1011VATX,24,FEMALE,8,2022-10-06_04h50.08.198,memory_pilot_most_recent,2022.2.4,Win32,30.00660145,,,,,,,,,,,,,,,,,,,,,,,,,,,,,,,,,2,left,,,,right,0,0.4275,0,42,42,42,1,2238481928-19949.jpg,2864900357-361688.jpg,,
,,,A1R3VQ1011VATX,24,FEMALE,8,2022-10-06_04h50.08.198,memory_pilot_most_recent,2022.2.4,Win32,30.00660145,,,,,,,,,,,,,,,,,,,,,,,,,,,,,,,,,3,right,,,,left,0,0.5838,0,43,43,43,1,2446760917-347439.jpg,2874299429-139695.jpg,,
,,,A1R3VQ1011VATX,24,FEMALE,8,2022-10-06_04h50.08.198,memory_pilot_most_recent,2022.2.4,Win32,30.00660145,,,,,,,,,,,,,,,,,,,,,,,,,,,,,,,,,2,right,,,,right,1,0.5548,0,44,44,44,1,2446758985-197610.jpg,2901939379-143479.jpg,,
,,,A1R3VQ1011VATX,24,FEMALE,8,2022-10-06_04h50.08.198,memory_pilot_most_recent,2022.2.4,Win32,30.00660145,,,,,,,,,,,,,,,,,,,,,,,,,,,,,,,,,3,right,,,,left,0,0.4248,0,45,45,45,1,2901947448-70314.jpg,2883268471-290842.jpg,,
,,,A1R3VQ1011VATX,24,FEMALE,8,2022-10-06_04h50.08.198,memory_pilot_most_recent,2022.2.4,Win32,30.00660145,,,,,,,,,,,,,,,,,,,,,,,,,,,,,,,,,1,right,,,,left,0,0.6845,0,46,46,46,1,2981240424-145795.jpg,2446758985-197609.jpg,,
,,,A1R3VQ1011VATX,24,FEMALE,8,2022-10-06_04h50.08.198,memory_pilot_most_recent,2022.2.4,Win32,30.00660145,,,,,,,,,,,,,,,,,,,,,,,,,,,,,,,,,2,right,,,,right,1,0.7464,0,47,47,47,1,2898632385-217138.jpg,2452381505-199546.jpg,,
,,,A1R3VQ1011VATX,24,FEMALE,8,2022-10-06_04h50.08.198,memory_pilot_most_recent,2022.2.4,Win32,30.00660145,,,,,,,,,,,,,,,,,,,,,,,,,,,,,,,,,3,left,,,,left,1,0.517,0,48,48,48,1,2986451363-73598.jpg,2901942443-69925.jpg,,
,,,A1R3VQ1011VATX,24,FEMALE,8,2022-10-06_04h50.08.198,memory_pilot_most_recent,2022.2.4,Win32,30.00660145,,,,,,,,,,,,,,,,,,,,,,,,,,,,,,,,,1,right,,,,right,1,0.4169,0,49,49,49,1,2864907361-287062.jpg,2901952513-70703.jpg,,
,,,A1R3VQ1011VATX,24,FEMALE,8,2022-10-06_04h50.08.198,memory_pilot_most_recent,2022.2.4,Win32,30.00660145,,,,,,,,,,,,,,,,,,,,,,,,,,,,,,,,,2,right,,,,left,0,0.5004,0,50,50,50,1,2575120738-55528.jpg,2575120738-55529.jpg,,
,,,A1R3VQ1011VATX,24,FEMALE,8,2022-10-06_04h50.08.198,memory_pilot_most_recent,2022.2.4,Win32,30.00660145,,,,,,,,,,,,,,,,,,,,,,,,,,,,,,,,,3,left,,,,right,0,0.63,0,51,51,51,1,2868474407-362883.jpg,2901948383-70363.jpg,,
,,,A1R3VQ1011VATX,24,FEMALE,8,2022-10-06_04h50.08.198,memory_pilot_most_recent,2022.2.4,Win32,30.00660145,,,,,,,,,,,,,,,,,,,,,,,,,,,,,,,,,3,right,,,,left,0,0.5312,0,52,52,52,1,2989726338-74002.jpg,2864907432-362042.jpg,,
,,,A1R3VQ1011VATX,24,FEMALE,8,2022-10-06_04h50.08.198,memory_pilot_most_recent,2022.2.4,Win32,30.00660145,,,,,,,,,,,,,,,,,,,,,,,,,,,,,,,,,3,right,,,,right,1,0.7811,0,53,53,53,1,2898619327-366362.jpg,2964216465-219242.jpg,,
,,,A1R3VQ1011VATX,24,FEMALE,8,2022-10-06_04h50.08.198,memory_pilot_most_recent,2022.2.4,Win32,30.00660145,,,,,,,,,,,,,,,,,,,,,,,,,,,,,,,,,1,left,,,,left,1,0.8441,0,54,54,54,1,2874301407-363895.jpg,2446761374-124213.jpg,,
,,,A1R3VQ1011VATX,24,FEMALE,8,2022-10-06_04h50.08.198,memory_pilot_most_recent,2022.2.4,Win32,30.00660145,,,,,,,,,,,,,,,,,,,,,,,,,,,,,,,,,1,left,,,,left,1,1.1239,0,55,55,55,1,2238481198-19822.jpg,2862691449-137104.jpg,,
,,,A1R3VQ1011VATX,24,FEMALE,8,2022-10-06_04h50.08.198,memory_pilot_most_recent,2022.2.4,Win32,30.00660145,,,,,,,,,,,,,,,,,,,,,,,,,,,,,,,,,3,left,,,,right,0,0.8708,0,56,56,56,1,2460547467-349421.jpg,2981235446-294901.jpg,,
,,,A1R3VQ1011VATX,24,FEMALE,8,2022-10-06_04h50.08.198,memory_pilot_most_recent,2022.2.4,Win32,30.00660145,,,,,,,,,,,,,,,,,,,,,,,,,,,,,,,,,1,left,,,,left,1,0.9298,0,57,57,57,1,2592380177-354629.jpg,2898633421-291974.jpg,,
,,,A1R3VQ1011VATX,24,FEMALE,8,2022-10-06_04h50.08.198,memory_pilot_most_recent,2022.2.4,Win32,30.00660145,,,,,,,,,,,,,,,,,,,,,,,,,,,,,,,,,2,left,,,,right,0,0.6714,0,58,58,58,1,2874302418-65978.jpg,2238481198-19823.jpg,,
,,,A1R3VQ1011VATX,24,FEMALE,8,2022-10-06_04h50.08.198,memory_pilot_most_recent,2022.2.4,Win32,30.00660145,,,,,,,,,,,,,,,,,,,,,,,,,,,,,,,,,2,left,,,,left,1,0.3763,0,59,59,59,1,2512875899-126682.jpg,2592380177-354628.jpg,,
,,,A1R3VQ1011VATX,24,FEMALE,8,2022-10-06_04h50.08.198,memory_pilot_most_recent,2022.2.4,Win32,30.00660145,,,,,,,,,,,,,,,,,,,,,,,,,,,,,,,,,,,,,,,,,,,,,,,,space,11.7951
