button.numClicks,button.timesOn,button.timesOff,workID,Age,Gender,Hours slept (last night),date,expName,psychopyVersion,OS,frameRate,space_key_responce.keys,space_key_responce.rt,demo_encoding_response.keys,demo_encoding_response.corr,demo_encoding_loop.thisRepN,demo_encoding_loop.thisTrialN,demo_encoding_loop.thisN,demo_encoding_loop.thisIndex,demo_encoding_loop.ran,DemoImage,DemoCorrect,demo_test_response.keys,demo_test_response.corr,demo_test_response.rt,demo_test_loop.thisRepN,demo_test_loop.thisTrialN,demo_test_loop.thisN,demo_test_loop.thisIndex,demo_test_loop.ran,DemoImage1,DemoImage2,DemoCorrectTest,test_encoding_response.keys,test_encoding_response.corr,trials.thisRepN,trials.thisTrialN,trials.thisN,trials.thisIndex,trials.ran,target_image,pair,layer,correct,test_encoding_response.rt,key_resp_end.keys,key_resp_end.rt,test_test_response.keys,test_test_response.corr,test_test_response.rt,trials_2.thisRepN,trials_2.thisTrialN,trials_2.thisN,trials_2.thisIndex,trials_2.ran,image1,image2,key_resp_end_2.keys,key_resp_end_2.rt
1,[8.807799999997002],[8.807799999997002],A3DFUI6OKBNNGI,57,Female,8,2022-10-02_08h49.56.408,memory_pilot_most_recent,2022.2.4,Win32,16.1386634,,,,,,,,,,,,,,,,,,,,,,,,,,,,,,,,,,,,,,,,,,,,,,,,
,,,A3DFUI6OKBNNGI,57,Female,8,2022-10-02_08h49.56.408,memory_pilot_most_recent,2022.2.4,Win32,16.1386634,,,,,,,,,,,,,,,,,,,,,,,,,,,,,,,,,,,,,,,,,,,,,,,,
,,,A3DFUI6OKBNNGI,57,Female,8,2022-10-02_08h49.56.408,memory_pilot_most_recent,2022.2.4,Win32,16.1386634,space,3.038,,,,,,,,,,,,,,,,,,,,,,,,,,,,,,,,,,,,,,,,,,,,,,
,,,A3DFUI6OKBNNGI,57,Female,8,2022-10-02_08h49.56.408,memory_pilot_most_recent,2022.2.4,Win32,16.1386634,,,,,,,,,,,,,,,,,,,,,,,,,,,,,,,,,,,,,,,,,,,,,,,,
,,,A3DFUI6OKBNNGI,57,Female,8,2022-10-02_08h49.56.408,memory_pilot_most_recent,2022.2.4,Win32,16.1386634,,,,1,0,0,0,0,1,flower1.jpg,,,,,,,,,,,,,,,,,,,,,,,,,,,,,,,,,,,,,,
,,,A3DFUI6OKBNNGI,57,Female,8,2022-10-02_08h49.56.408,memory_pilot_most_recent,2022.2.4,Win32,16.1386634,,,,1,0,1,1,1,1,flower2.jpg,,,,,,,,,,,,,,,,,,,,,,,,,,,,,,,,,,,,,,
,,,A3DFUI6OKBNNGI,57,Female,8,2022-10-02_08h49.56.408,memory_pilot_most_recent,2022.2.4,Win32,16.1386634,,,,0,0,2,2,2,1,left.jpg,left,,,,,,,,,,,,,,,,,,,,,,,,,,,,,,,,,,,,,
,,,A3DFUI6OKBNNGI,57,Female,8,2022-10-02_08h49.56.408,memory_pilot_most_recent,2022.2.4,Win32,16.1386634,,,,1,0,3,3,3,1,flower3.jpg,,,,,,,,,,,,,,,,,,,,,,,,,,,,,,,,,,,,,,
,,,A3DFUI6OKBNNGI,57,Female,8,2022-10-02_08h49.56.408,memory_pilot_most_recent,2022.2.4,Win32,16.1386634,,,,1,0,4,4,4,1,flower4.jpg,,,,,,,,,,,,,,,,,,,,,,,,,,,,,,,,,,,,,,
,,,A3DFUI6OKBNNGI,57,Female,8,2022-10-02_08h49.56.408,memory_pilot_most_recent,2022.2.4,Win32,16.1386634,,,,1,0,5,5,5,1,flower5.jpg,,,,,,,,,,,,,,,,,,,,,,,,,,,,,,,,,,,,,,
,,,A3DFUI6OKBNNGI,57,Female,8,2022-10-02_08h49.56.408,memory_pilot_most_recent,2022.2.4,Win32,16.1386634,,,,1,0,6,6,6,1,flower6.jpg,,,,,,,,,,,,,,,,,,,,,,,,,,,,,,,,,,,,,,
,,,A3DFUI6OKBNNGI,57,Female,8,2022-10-02_08h49.56.408,memory_pilot_most_recent,2022.2.4,Win32,16.1386634,,,,,,,,,,,,,,,,,,,,,,,,,,,,,,,,,,,,,,,,,,,,,,,,
,,,A3DFUI6OKBNNGI,57,Female,8,2022-10-02_08h49.56.408,memory_pilot_most_recent,2022.2.4,Win32,16.1386634,,,,,,,,,,,,left,1,8.0002,0,0,0,0,1,flower1.jpg,flower1_pair.jpg,left,,,,,,,,,,,,,,,,,,,,,,,,,,
,,,A3DFUI6OKBNNGI,57,Female,8,2022-10-02_08h49.56.408,memory_pilot_most_recent,2022.2.4,Win32,16.1386634,,,,,,,,,,,,left,0,1.7147,0,1,1,1,1,flower2_pair.jpg,flower2.jpg,right,,,,,,,,,,,,,,,,,,,,,,,,,,
,,,A3DFUI6OKBNNGI,57,Female,8,2022-10-02_08h49.56.408,memory_pilot_most_recent,2022.2.4,Win32,16.1386634,,,,,,,,,,,,left,1,2.2386,0,2,2,2,1,flower3.jpg,flower3_pair.jpg,left,,,,,,,,,,,,,,,,,,,,,,,,,,
,,,A3DFUI6OKBNNGI,57,Female,8,2022-10-02_08h49.56.408,memory_pilot_most_recent,2022.2.4,Win32,16.1386634,,,,,,,,,,,,right,0,1.5729,0,3,3,3,1,flower4.jpg,flower4_pair.jpg,left,,,,,,,,,,,,,,,,,,,,,,,,,,
,,,A3DFUI6OKBNNGI,57,Female,8,2022-10-02_08h49.56.408,memory_pilot_most_recent,2022.2.4,Win32,16.1386634,,,,,,,,,,,,right,1,1.5592,0,4,4,4,1,flower5_pair.jpg,flower5.jpg,right,,,,,,,,,,,,,,,,,,,,,,,,,,
,,,A3DFUI6OKBNNGI,57,Female,8,2022-10-02_08h49.56.408,memory_pilot_most_recent,2022.2.4,Win32,16.1386634,,,,,,,,,,,,right,0,2.2281,0,5,5,5,1,flower6.jpg,flower6_pair.jpg,left,,,,,,,,,,,,,,,,,,,,,,,,,,
,,,A3DFUI6OKBNNGI,57,Female,8,2022-10-02_08h49.56.408,memory_pilot_most_recent,2022.2.4,Win32,16.1386634,,,,,,,,,,,,,,,,,,,,,,,,,,,,,,,,,,,,,,,,,,,,,,,,
,,,A3DFUI6OKBNNGI,57,Female,8,2022-10-02_08h49.56.408,memory_pilot_most_recent,2022.2.4,Win32,16.1386634,space,2.5951,,,,,,,,,,,,,,,,,,,,,,,,,,,,,,,,,,,,,,,,,,,,,,
,,,A3DFUI6OKBNNGI,57,Female,8,2022-10-02_08h49.56.408,memory_pilot_most_recent,2022.2.4,Win32,16.1386634,,,,,,,,,,,,,,,,,,,,,,,,1,0,0,0,0,1,2864907432-362042.jpg,2989726338-74002.jpg,3,,,,,,,,,,,,,,,,
,,,A3DFUI6OKBNNGI,57,Female,8,2022-10-02_08h49.56.408,memory_pilot_most_recent,2022.2.4,Win32,16.1386634,,,,,,,,,,,,,,,,,,,,,,,,1,0,1,1,1,1,2874302418-65979.jpg,2238578544-111698.jpg,3,,,,,,,,,,,,,,,,
,,,A3DFUI6OKBNNGI,57,Female,8,2022-10-02_08h49.56.408,memory_pilot_most_recent,2022.2.4,Win32,16.1386634,,,,,,,,,,,,,,,,,,,,,,,,1,0,2,2,2,1,2238560245-182099.jpg,2874314526-289684.jpg,2,,,,,,,,,,,,,,,,
,,,A3DFUI6OKBNNGI,57,Female,8,2022-10-02_08h49.56.408,memory_pilot_most_recent,2022.2.4,Win32,16.1386634,,,,,,,,,,,,,,,,,,,,,,,,1,0,3,3,3,1,2898633421-291973.jpg,2238550049-105691.jpg,3,,,,,,,,,,,,,,,,
,,,A3DFUI6OKBNNGI,57,Female,8,2022-10-02_08h49.56.408,memory_pilot_most_recent,2022.2.4,Win32,16.1386634,,,,,,,,,,,,,,,,,,,,,,,,1,0,4,4,4,1,2883256307-365057.jpg,2864904453-63933.jpg,3,,,,,,,,,,,,,,,,
,,,A3DFUI6OKBNNGI,57,Female,8,2022-10-02_08h49.56.408,memory_pilot_most_recent,2022.2.4,Win32,16.1386634,,,,,,,,,,,,,,,,,,,,,,,,1,0,5,5,5,1,2512875899-126682.jpg,2460547536-274179.jpg,1,,,,,,,,,,,,,,,,
,,,A3DFUI6OKBNNGI,57,Female,8,2022-10-02_08h49.56.408,memory_pilot_most_recent,2022.2.4,Win32,16.1386634,,,,,,,,,,,,,,,,,,,,,,,,1,0,6,6,6,1,2452380832-348593.jpg,2238481813-19930.jpg,2,,,,,,,,,,,,,,,,
,,,A3DFUI6OKBNNGI,57,Female,8,2022-10-02_08h49.56.408,memory_pilot_most_recent,2022.2.4,Win32,16.1386634,,,,,,,,,,,,,,,,,,,,,,,,1,0,7,7,7,1,2446758985-197609.jpg,2864909447-362144.jpg,2,,,,,,,,,,,,,,,,
,,,A3DFUI6OKBNNGI,57,Female,8,2022-10-02_08h49.56.408,memory_pilot_most_recent,2022.2.4,Win32,16.1386634,,,,,,,,,,,,,,,,,,,,,,,,1,0,8,8,8,1,2238480677-317399.jpg,2238573546-258454.jpg,2,,,,,,,,,,,,,,,,
,,,A3DFUI6OKBNNGI,57,Female,8,2022-10-02_08h49.56.408,memory_pilot_most_recent,2022.2.4,Win32,16.1386634,,,,,,,,,,,,,,,,,,,,,,,,1,0,9,9,9,1,2592380177-354626.jpg,2238576792-334659.jpg,1,,,,,,,,,,,,,,,,
,,,A3DFUI6OKBNNGI,57,Female,8,2022-10-02_08h49.56.408,memory_pilot_most_recent,2022.2.4,Win32,16.1386634,,,,,,,,,,,,,,,,,,,,,,,,1,0,10,10,10,1,2452381505-199546.jpg,2901938432-367627.jpg,1,,,,,,,,,,,,,,,,
,,,A3DFUI6OKBNNGI,57,Female,8,2022-10-02_08h49.56.408,memory_pilot_most_recent,2022.2.4,Win32,16.1386634,,,,,,,,,,,,,,,,,,,,,,,,1,0,11,11,11,1,2883268412-365898.jpg,2238436252-314037.jpg,3,,,,,,,,,,,,,,,,
,,,A3DFUI6OKBNNGI,57,Female,8,2022-10-02_08h49.56.408,memory_pilot_most_recent,2022.2.4,Win32,16.1386634,,,,,,,,,,,,,,,,,,,,,,,,1,0,12,12,12,1,2898635427-367120.jpg,2868479517-363220.jpg,2,,,,,,,,,,,,,,,,
,,,A3DFUI6OKBNNGI,57,Female,8,2022-10-02_08h49.56.408,memory_pilot_most_recent,2022.2.4,Win32,16.1386634,,,,,,,,,,,,,,,,,,,,,,,left,1,0,13,13,13,1,left.jpg,,,left,2.1889,,,,,,,,,,,,,,
,,,A3DFUI6OKBNNGI,57,Female,8,2022-10-02_08h49.56.408,memory_pilot_most_recent,2022.2.4,Win32,16.1386634,,,,,,,,,,,,,,,,,,,,,,,,1,0,14,14,14,1,2460547467-349422.jpg,2864909447-362146.jpg,3,,,,,,,,,,,,,,,,
,,,A3DFUI6OKBNNGI,57,Female,8,2022-10-02_08h49.56.408,memory_pilot_most_recent,2022.2.4,Win32,16.1386634,,,,,,,,,,,,,,,,,,,,,,,,1,0,15,15,15,1,2874299429-139695.jpg,2883266388-67750.jpg,1,,,,,,,,,,,,,,,,
,,,A3DFUI6OKBNNGI,57,Female,8,2022-10-02_08h49.56.408,memory_pilot_most_recent,2022.2.4,Win32,16.1386634,,,,,,,,,,,,,,,,,,,,,,,,1,0,16,16,16,1,2446759803-49249.jpg,2446760601-272099.jpg,1,,,,,,,,,,,,,,,,
,,,A3DFUI6OKBNNGI,57,Female,8,2022-10-02_08h49.56.408,memory_pilot_most_recent,2022.2.4,Win32,16.1386634,,,,,,,,,,,,,,,,,,,,,,,,1,0,17,17,17,1,2868474407-362883.jpg,2981246400-220363.jpg,2,,,,,,,,,,,,,,,,
,,,A3DFUI6OKBNNGI,57,Female,8,2022-10-02_08h49.56.408,memory_pilot_most_recent,2022.2.4,Win32,16.1386634,,,,,,,,,,,,,,,,,,,,,,,,1,0,18,18,18,1,2864910426-287204.jpg,2883268412-365899.jpg,2,,,,,,,,,,,,,,,,
,,,A3DFUI6OKBNNGI,57,Female,8,2022-10-02_08h49.56.408,memory_pilot_most_recent,2022.2.4,Win32,16.1386634,,,,,,,,,,,,,,,,,,,,,,,,1,0,19,19,19,1,2986451363-73598.jpg,2237857458-1324.jpg,1,,,,,,,,,,,,,,,,
,,,A3DFUI6OKBNNGI,57,Female,8,2022-10-02_08h49.56.408,memory_pilot_most_recent,2022.2.4,Win32,16.1386634,,,,,,,,,,,,,,,,,,,,,,,,1,0,20,20,20,1,2874307433-66280.jpg,2984615358-72439.jpg,1,,,,,,,,,,,,,,,,
,,,A3DFUI6OKBNNGI,57,Female,8,2022-10-02_08h49.56.408,memory_pilot_most_recent,2022.2.4,Win32,16.1386634,,,,,,,,,,,,,,,,,,,,,,,right,1,0,21,21,21,1,right.jpg,,,right,2.1411,,,,,,,,,,,,,,
,,,A3DFUI6OKBNNGI,57,Female,8,2022-10-02_08h49.56.408,memory_pilot_most_recent,2022.2.4,Win32,16.1386634,,,,,,,,,,,,,,,,,,,,,,,,1,0,22,22,22,1,2964213381-294060.jpg,2981244394-145974.jpg,1,,,,,,,,,,,,,,,,
,,,A3DFUI6OKBNNGI,57,Female,8,2022-10-02_08h49.56.408,memory_pilot_most_recent,2022.2.4,Win32,16.1386634,,,,,,,,,,,,,,,,,,,,,,,,1,0,23,23,23,1,2981231403-71642.jpg,2874305405-214397.jpg,2,,,,,,,,,,,,,,,,
,,,A3DFUI6OKBNNGI,57,Female,8,2022-10-02_08h49.56.408,memory_pilot_most_recent,2022.2.4,Win32,16.1386634,,,,,,,,,,,,,,,,,,,,,,,,1,0,24,24,24,1,2898617468-68274.jpg,2901943387-368037.jpg,2,,,,,,,,,,,,,,,,
,,,A3DFUI6OKBNNGI,57,Female,8,2022-10-02_08h49.56.408,memory_pilot_most_recent,2022.2.4,Win32,16.1386634,,,,,,,,,,,,,,,,,,,,,,,,1,0,25,25,25,1,2449442529-124446.jpg,2446759803-49251.jpg,1,,,,,,,,,,,,,,,,
,,,A3DFUI6OKBNNGI,57,Female,8,2022-10-02_08h49.56.408,memory_pilot_most_recent,2022.2.4,Win32,16.1386634,,,,,,,,,,,,,,,,,,,,,,,,1,0,26,26,26,1,2575120738-55529.jpg,2575120738-55528.jpg,2,,,,,,,,,,,,,,,,
,,,A3DFUI6OKBNNGI,57,Female,8,2022-10-02_08h49.56.408,memory_pilot_most_recent,2022.2.4,Win32,16.1386634,,,,,,,,,,,,,,,,,,,,,,,,1,0,27,27,27,1,2868475410-213219.jpg,2868474407-362885.jpg,3,,,,,,,,,,,,,,,,
,,,A3DFUI6OKBNNGI,57,Female,8,2022-10-02_08h49.56.408,memory_pilot_most_recent,2022.2.4,Win32,16.1386634,,,,,,,,,,,,,,,,,,,,,,,,1,0,28,28,28,1,2964223381-294447.jpg,2898628438-68785.jpg,3,,,,,,,,,,,,,,,,
,,,A3DFUI6OKBNNGI,57,Female,8,2022-10-02_08h49.56.408,memory_pilot_most_recent,2022.2.4,Win32,16.1386634,,,,,,,,,,,,,,,,,,,,,,,,1,0,29,29,29,1,2238572663-35822.jpg,2238571930-184143.jpg,2,,,,,,,,,,,,,,,,
,,,A3DFUI6OKBNNGI,57,Female,8,2022-10-02_08h49.56.408,memory_pilot_most_recent,2022.2.4,Win32,16.1386634,,,,,,,,,,,,,,,,,,,,,,,right,1,0,30,30,30,1,right.jpg,,,right,1.7388,,,,,,,,,,,,,,
,,,A3DFUI6OKBNNGI,57,Female,8,2022-10-02_08h49.56.408,memory_pilot_most_recent,2022.2.4,Win32,16.1386634,,,,,,,,,,,,,,,,,,,,,,,,1,0,31,31,31,1,2964222378-71332.jpg,2981240427-370099.jpg,3,,,,,,,,,,,,,,,,
,,,A3DFUI6OKBNNGI,57,Female,8,2022-10-02_08h49.56.408,memory_pilot_most_recent,2022.2.4,Win32,16.1386634,,,,,,,,,,,,,,,,,,,,,,,,1,0,32,32,32,1,2964218374-144967.jpg,2964218374-144968.jpg,1,,,,,,,,,,,,,,,,
,,,A3DFUI6OKBNNGI,57,Female,8,2022-10-02_08h49.56.408,memory_pilot_most_recent,2022.2.4,Win32,16.1386634,,,,,,,,,,,,,,,,,,,,,,,,1,0,33,33,33,1,2901952513-70703.jpg,2238481198-19821.jpg,3,,,,,,,,,,,,,,,,
,,,A3DFUI6OKBNNGI,57,Female,8,2022-10-02_08h49.56.408,memory_pilot_most_recent,2022.2.4,Win32,16.1386634,,,,,,,,,,,,,,,,,,,,,,,,1,0,34,34,34,1,2460547508-51571.jpg,2981232437-369759.jpg,2,,,,,,,,,,,,,,,,
,,,A3DFUI6OKBNNGI,57,Female,8,2022-10-02_08h49.56.408,memory_pilot_most_recent,2022.2.4,Win32,16.1386634,,,,,,,,,,,,,,,,,,,,,,,,1,0,35,35,35,1,2981241414-145842.jpg,2427873848-47312.jpg,3,,,,,,,,,,,,,,,,
,,,A3DFUI6OKBNNGI,57,Female,8,2022-10-02_08h49.56.408,memory_pilot_most_recent,2022.2.4,Win32,16.1386634,,,,,,,,,,,,,,,,,,,,,,,,1,0,36,36,36,1,2898624426-291546.jpg,2981235446-294900.jpg,3,,,,,,,,,,,,,,,,
,,,A3DFUI6OKBNNGI,57,Female,8,2022-10-02_08h49.56.408,memory_pilot_most_recent,2022.2.4,Win32,16.1386634,,,,,,,,,,,,,,,,,,,,,,,,1,0,37,37,37,1,2238580740-186218.jpg,2238550816-254000.jpg,1,,,,,,,,,,,,,,,,
,,,A3DFUI6OKBNNGI,57,Female,8,2022-10-02_08h49.56.408,memory_pilot_most_recent,2022.2.4,Win32,16.1386634,,,,,,,,,,,,,,,,,,,,,,,,1,0,38,38,38,1,2238428357-313623.jpg,2238499057-320266.jpg,1,,,,,,,,,,,,,,,,
,,,A3DFUI6OKBNNGI,57,Female,8,2022-10-02_08h49.56.408,memory_pilot_most_recent,2022.2.4,Win32,16.1386634,,,,,,,,,,,,,,,,,,,,,,,,1,0,39,39,39,1,2460547467-349421.jpg,2898631394-142727.jpg,1,,,,,,,,,,,,,,,,
,,,A3DFUI6OKBNNGI,57,Female,8,2022-10-02_08h49.56.408,memory_pilot_most_recent,2022.2.4,Win32,16.1386634,,,,,,,,,,,,,,,,,,,,,,,,1,0,40,40,40,1,2592380177-354629.jpg,2579432534-130704.jpg,2,,,,,,,,,,,,,,,,
,,,A3DFUI6OKBNNGI,57,Female,8,2022-10-02_08h49.56.408,memory_pilot_most_recent,2022.2.4,Win32,16.1386634,,,,,,,,,,,,,,,,,,,,,,,,1,0,41,41,41,1,2898634397-367080.jpg,2964217461-294238.jpg,3,,,,,,,,,,,,,,,,
,,,A3DFUI6OKBNNGI,57,Female,8,2022-10-02_08h49.56.408,memory_pilot_most_recent,2022.2.4,Win32,16.1386634,,,,,,,,,,,,,,,,,,,,,,,right,1,0,42,42,42,1,right.jpg,,,right,2.035,,,,,,,,,,,,,,
,,,A3DFUI6OKBNNGI,57,Female,8,2022-10-02_08h49.56.408,memory_pilot_most_recent,2022.2.4,Win32,16.1386634,,,,,,,,,,,,,,,,,,,,,,,,1,0,43,43,43,1,2883268471-290842.jpg,2883268471-290843.jpg,1,,,,,,,,,,,,,,,,
,,,A3DFUI6OKBNNGI,57,Female,8,2022-10-02_08h49.56.408,memory_pilot_most_recent,2022.2.4,Win32,16.1386634,,,,,,,,,,,,,,,,,,,,,,,,1,0,44,44,44,1,2449442529-124445.jpg,2452380171-273112.jpg,1,,,,,,,,,,,,,,,,
,,,A3DFUI6OKBNNGI,57,Female,8,2022-10-02_08h49.56.408,memory_pilot_most_recent,2022.2.4,Win32,16.1386634,,,,,,,,,,,,,,,,,,,,,,,,1,0,45,45,45,1,2874299429-139694.jpg,2981244403-72215.jpg,2,,,,,,,,,,,,,,,,
,,,A3DFUI6OKBNNGI,57,Female,8,2022-10-02_08h49.56.408,memory_pilot_most_recent,2022.2.4,Win32,16.1386634,,,,,,,,,,,,,,,,,,,,,,,,1,0,46,46,46,1,2901939379-143479.jpg,2446758985-197610.jpg,2,,,,,,,,,,,,,,,,
,,,A3DFUI6OKBNNGI,57,Female,8,2022-10-02_08h49.56.408,memory_pilot_most_recent,2022.2.4,Win32,16.1386634,,,,,,,,,,,,,,,,,,,,,,,,1,0,47,47,47,1,2874302418-65978.jpg,2964224310-219528.jpg,1,,,,,,,,,,,,,,,,
,,,A3DFUI6OKBNNGI,57,Female,8,2022-10-02_08h49.56.408,memory_pilot_most_recent,2022.2.4,Win32,16.1386634,,,,,,,,,,,,,,,,,,,,,,,right,1,0,48,48,48,1,right.jpg,,,right,1.9175,,,,,,,,,,,,,,
,,,A3DFUI6OKBNNGI,57,Female,8,2022-10-02_08h49.56.408,memory_pilot_most_recent,2022.2.4,Win32,16.1386634,,,,,,,,,,,,,,,,,,,,,,,,1,0,49,49,49,1,2592379964-131054.jpg,2575963989-130576.jpg,1,,,,,,,,,,,,,,,,
,,,A3DFUI6OKBNNGI,57,Female,8,2022-10-02_08h49.56.408,memory_pilot_most_recent,2022.2.4,Win32,16.1386634,,,,,,,,,,,,,,,,,,,,,,,,1,0,50,50,50,1,2964216465-219242.jpg,2898619327-366362.jpg,3,,,,,,,,,,,,,,,,
,,,A3DFUI6OKBNNGI,57,Female,8,2022-10-02_08h49.56.408,memory_pilot_most_recent,2022.2.4,Win32,16.1386634,,,,,,,,,,,,,,,,,,,,,,,,1,0,51,51,51,1,2238481928-19949.jpg,2981241419-145844.jpg,3,,,,,,,,,,,,,,,,
,,,A3DFUI6OKBNNGI,57,Female,8,2022-10-02_08h49.56.408,memory_pilot_most_recent,2022.2.4,Win32,16.1386634,,,,,,,,,,,,,,,,,,,,,,,,1,0,52,52,52,1,2901939379-143480.jpg,2981229442-369621.jpg,2,,,,,,,,,,,,,,,,
,,,A3DFUI6OKBNNGI,57,Female,8,2022-10-02_08h49.56.408,memory_pilot_most_recent,2022.2.4,Win32,16.1386634,,,,,,,,,,,,,,,,,,,,,,,,1,0,53,53,53,1,2874303365-214262.jpg,2864911457-362260.jpg,3,,,,,,,,,,,,,,,,
,,,A3DFUI6OKBNNGI,57,Female,8,2022-10-02_08h49.56.408,memory_pilot_most_recent,2022.2.4,Win32,16.1386634,,,,,,,,,,,,,,,,,,,,,,,,1,0,54,54,54,1,2901947423-70311.jpg,2238573447-333826.jpg,2,,,,,,,,,,,,,,,,
,,,A3DFUI6OKBNNGI,57,Female,8,2022-10-02_08h49.56.408,memory_pilot_most_recent,2022.2.4,Win32,16.1386634,,,,,,,,,,,,,,,,,,,,,,,,1,0,55,55,55,1,2458347385-199723.jpg,2238480434-93829.jpg,1,,,,,,,,,,,,,,,,
,,,A3DFUI6OKBNNGI,57,Female,8,2022-10-02_08h49.56.408,memory_pilot_most_recent,2022.2.4,Win32,16.1386634,,,,,,,,,,,,,,,,,,,,,,,,1,0,56,56,56,1,2883273443-68193.jpg,2460547508-51572.jpg,2,,,,,,,,,,,,,,,,
,,,A3DFUI6OKBNNGI,57,Female,8,2022-10-02_08h49.56.408,memory_pilot_most_recent,2022.2.4,Win32,16.1386634,,,,,,,,,,,,,,,,,,,,,,,,1,0,57,57,57,1,2986451363-73599.jpg,2860302315-210704.jpg,2,,,,,,,,,,,,,,,,
,,,A3DFUI6OKBNNGI,57,Female,8,2022-10-02_08h49.56.408,memory_pilot_most_recent,2022.2.4,Win32,16.1386634,,,,,,,,,,,,,,,,,,,,,,,,1,0,58,58,58,1,2874301407-363895.jpg,2901947323-70275.jpg,3,,,,,,,,,,,,,,,,
,,,A3DFUI6OKBNNGI,57,Female,8,2022-10-02_08h49.56.408,memory_pilot_most_recent,2022.2.4,Win32,16.1386634,,,,,,,,,,,,,,,,,,,,,,,,1,0,59,59,59,1,2898635428-69104.jpg,2901943411-292945.jpg,2,,,,,,,,,,,,,,,,
,,,A3DFUI6OKBNNGI,57,Female,8,2022-10-02_08h49.56.408,memory_pilot_most_recent,2022.2.4,Win32,16.1386634,,,,,,,,,,,,,,,,,,,,,,,,1,0,60,60,60,1,2898618444-142233.jpg,2898618444-142232.jpg,3,,,,,,,,,,,,,,,,
,,,A3DFUI6OKBNNGI,57,Female,8,2022-10-02_08h49.56.408,memory_pilot_most_recent,2022.2.4,Win32,16.1386634,,,,,,,,,,,,,,,,,,,,,,,,1,0,61,61,61,1,2898618390-216538.jpg,2237856148-989.jpg,1,,,,,,,,,,,,,,,,
,,,A3DFUI6OKBNNGI,57,Female,8,2022-10-02_08h49.56.408,memory_pilot_most_recent,2022.2.4,Win32,16.1386634,,,,,,,,,,,,,,,,,,,,,,,,1,0,62,62,62,1,2238481198-19822.jpg,2238480803-19737.jpg,3,,,,,,,,,,,,,,,,
,,,A3DFUI6OKBNNGI,57,Female,8,2022-10-02_08h49.56.408,memory_pilot_most_recent,2022.2.4,Win32,16.1386634,,,,,,,,,,,,,,,,,,,,,,,,1,0,63,63,63,1,2901941401-292798.jpg,2898631468-68931.jpg,3,,,,,,,,,,,,,,,,
,,,A3DFUI6OKBNNGI,57,Female,8,2022-10-02_08h49.56.408,memory_pilot_most_recent,2022.2.4,Win32,16.1386634,,,,,,,,,,,,,,,,,,,,,,,,1,0,64,64,64,1,2238425482-313537.jpg,2238471391-240918.jpg,1,,,,,,,,,,,,,,,,
,,,A3DFUI6OKBNNGI,57,Female,8,2022-10-02_08h49.56.408,memory_pilot_most_recent,2022.2.4,Win32,16.1386634,,,,,,,,,,,,,,,,,,,,,,,,,,,,,,,,,,,space,55.5992,,,,,,,,,,,,
,,,A3DFUI6OKBNNGI,57,Female,8,2022-10-02_08h49.56.408,memory_pilot_most_recent,2022.2.4,Win32,16.1386634,,,,,,,,,,,,,,,,,,,,,,,,,,,,,,,,,,,,,,,,,,,,,,,,
,,,A3DFUI6OKBNNGI,57,Female,8,2022-10-02_08h49.56.408,memory_pilot_most_recent,2022.2.4,Win32,16.1386634,,,,,,,,,,,,,,,,,,,,,,,,,,,,,,,,3,left,,,,right,0,2.286,0,0,0,0,1,2898624426-291546.jpg,2981235446-294900.jpg,,
,,,A3DFUI6OKBNNGI,57,Female,8,2022-10-02_08h49.56.408,memory_pilot_most_recent,2022.2.4,Win32,16.1386634,,,,,,,,,,,,,,,,,,,,,,,,,,,,,,,,2,right,,,,right,1,2.5724,0,1,1,1,1,2874314526-289684.jpg,2238560245-182099.jpg,,
,,,A3DFUI6OKBNNGI,57,Female,8,2022-10-02_08h49.56.408,memory_pilot_most_recent,2022.2.4,Win32,16.1386634,,,,,,,,,,,,,,,,,,,,,,,,,,,,,,,,1,right,,,,right,1,1.5474,0,2,2,2,1,2237857458-1324.jpg,2986451363-73598.jpg,,
,,,A3DFUI6OKBNNGI,57,Female,8,2022-10-02_08h49.56.408,memory_pilot_most_recent,2022.2.4,Win32,16.1386634,,,,,,,,,,,,,,,,,,,,,,,,,,,,,,,,3,left,,,,right,0,2.193,0,3,3,3,1,2238481928-19949.jpg,2981241419-145844.jpg,,
,,,A3DFUI6OKBNNGI,57,Female,8,2022-10-02_08h49.56.408,memory_pilot_most_recent,2022.2.4,Win32,16.1386634,,,,,,,,,,,,,,,,,,,,,,,,,,,,,,,,1,right,,,,right,1,1.7053,0,4,4,4,1,2238499057-320266.jpg,2238428357-313623.jpg,,
,,,A3DFUI6OKBNNGI,57,Female,8,2022-10-02_08h49.56.408,memory_pilot_most_recent,2022.2.4,Win32,16.1386634,,,,,,,,,,,,,,,,,,,,,,,,,,,,,,,,1,right,,,,left,0,5.1363,0,5,5,5,1,2964224310-219528.jpg,2874302418-65978.jpg,,
,,,A3DFUI6OKBNNGI,57,Female,8,2022-10-02_08h49.56.408,memory_pilot_most_recent,2022.2.4,Win32,16.1386634,,,,,,,,,,,,,,,,,,,,,,,,,,,,,,,,3,left,,,,left,1,1.6338,0,6,6,6,1,2964223381-294447.jpg,2898628438-68785.jpg,,
,,,A3DFUI6OKBNNGI,57,Female,8,2022-10-02_08h49.56.408,memory_pilot_most_recent,2022.2.4,Win32,16.1386634,,,,,,,,,,,,,,,,,,,,,,,,,,,,,,,,1,left,,,,left,1,1.5416,0,7,7,7,1,2883268471-290842.jpg,2883268471-290843.jpg,,
,,,A3DFUI6OKBNNGI,57,Female,8,2022-10-02_08h49.56.408,memory_pilot_most_recent,2022.2.4,Win32,16.1386634,,,,,,,,,,,,,,,,,,,,,,,,,,,,,,,,2,left,,,,left,1,1.6265,0,8,8,8,1,2460547508-51571.jpg,2981232437-369759.jpg,,
,,,A3DFUI6OKBNNGI,57,Female,8,2022-10-02_08h49.56.408,memory_pilot_most_recent,2022.2.4,Win32,16.1386634,,,,,,,,,,,,,,,,,,,,,,,,,,,,,,,,3,right,,,,left,0,2.1333,0,9,9,9,1,2964217461-294238.jpg,2898634397-367080.jpg,,
,,,A3DFUI6OKBNNGI,57,Female,8,2022-10-02_08h49.56.408,memory_pilot_most_recent,2022.2.4,Win32,16.1386634,,,,,,,,,,,,,,,,,,,,,,,,,,,,,,,,1,right,,,,right,1,1.6833,0,10,10,10,1,2238480434-93829.jpg,2458347385-199723.jpg,,
,,,A3DFUI6OKBNNGI,57,Female,8,2022-10-02_08h49.56.408,memory_pilot_most_recent,2022.2.4,Win32,16.1386634,,,,,,,,,,,,,,,,,,,,,,,,,,,,,,,,3,right,,,,left,0,1.2593,0,11,11,11,1,2864911457-362260.jpg,2874303365-214262.jpg,,
,,,A3DFUI6OKBNNGI,57,Female,8,2022-10-02_08h49.56.408,memory_pilot_most_recent,2022.2.4,Win32,16.1386634,,,,,,,,,,,,,,,,,,,,,,,,,,,,,,,,3,right,,,,right,1,1.4288,0,12,12,12,1,2238578544-111698.jpg,2874302418-65979.jpg,,
,,,A3DFUI6OKBNNGI,57,Female,8,2022-10-02_08h49.56.408,memory_pilot_most_recent,2022.2.4,Win32,16.1386634,,,,,,,,,,,,,,,,,,,,,,,,,,,,,,,,3,left,,,,right,0,1.1495,0,13,13,13,1,2901941401-292798.jpg,2898631468-68931.jpg,,
,,,A3DFUI6OKBNNGI,57,Female,8,2022-10-02_08h49.56.408,memory_pilot_most_recent,2022.2.4,Win32,16.1386634,,,,,,,,,,,,,,,,,,,,,,,,,,,,,,,,2,right,,,,left,0,1.1148,0,14,14,14,1,2238571930-184143.jpg,2238572663-35822.jpg,,
,,,A3DFUI6OKBNNGI,57,Female,8,2022-10-02_08h49.56.408,memory_pilot_most_recent,2022.2.4,Win32,16.1386634,,,,,,,,,,,,,,,,,,,,,,,,,,,,,,,,1,left,,,,left,1,0.9658,0,15,15,15,1,2964218374-144967.jpg,2964218374-144968.jpg,,
,,,A3DFUI6OKBNNGI,57,Female,8,2022-10-02_08h49.56.408,memory_pilot_most_recent,2022.2.4,Win32,16.1386634,,,,,,,,,,,,,,,,,,,,,,,,,,,,,,,,2,left,,,,right,0,1.6565,0,16,16,16,1,2901939379-143480.jpg,2981229442-369621.jpg,,
,,,A3DFUI6OKBNNGI,57,Female,8,2022-10-02_08h49.56.408,memory_pilot_most_recent,2022.2.4,Win32,16.1386634,,,,,,,,,,,,,,,,,,,,,,,,,,,,,,,,3,right,,,,right,1,6.8841,0,17,17,17,1,2901947323-70275.jpg,2874301407-363895.jpg,,
,,,A3DFUI6OKBNNGI,57,Female,8,2022-10-02_08h49.56.408,memory_pilot_most_recent,2022.2.4,Win32,16.1386634,,,,,,,,,,,,,,,,,,,,,,,,,,,,,,,,3,right,,,,right,1,1.2378,0,18,18,18,1,2238436252-314037.jpg,2883268412-365898.jpg,,
,,,A3DFUI6OKBNNGI,57,Female,8,2022-10-02_08h49.56.408,memory_pilot_most_recent,2022.2.4,Win32,16.1386634,,,,,,,,,,,,,,,,,,,,,,,,,,,,,,,,2,left,,,,left,1,1.6687,0,19,19,19,1,2901939379-143479.jpg,2446758985-197610.jpg,,
,,,A3DFUI6OKBNNGI,57,Female,8,2022-10-02_08h49.56.408,memory_pilot_most_recent,2022.2.4,Win32,16.1386634,,,,,,,,,,,,,,,,,,,,,,,,,,,,,,,,1,left,,,,left,1,1.7755,0,20,20,20,1,2452381505-199546.jpg,2901938432-367627.jpg,,
,,,A3DFUI6OKBNNGI,57,Female,8,2022-10-02_08h49.56.408,memory_pilot_most_recent,2022.2.4,Win32,16.1386634,,,,,,,,,,,,,,,,,,,,,,,,,,,,,,,,1,left,,,,right,0,1.3122,0,21,21,21,1,2460547467-349421.jpg,2898631394-142727.jpg,,
,,,A3DFUI6OKBNNGI,57,Female,8,2022-10-02_08h49.56.408,memory_pilot_most_recent,2022.2.4,Win32,16.1386634,,,,,,,,,,,,,,,,,,,,,,,,,,,,,,,,1,right,,,,right,1,2.053,0,22,22,22,1,2238471391-240918.jpg,2238425482-313537.jpg,,
,,,A3DFUI6OKBNNGI,57,Female,8,2022-10-02_08h49.56.408,memory_pilot_most_recent,2022.2.4,Win32,16.1386634,,,,,,,,,,,,,,,,,,,,,,,,,,,,,,,,1,right,,,,right,1,3.8297,0,23,23,23,1,2446760601-272099.jpg,2446759803-49249.jpg,,
,,,A3DFUI6OKBNNGI,57,Female,8,2022-10-02_08h49.56.408,memory_pilot_most_recent,2022.2.4,Win32,16.1386634,,,,,,,,,,,,,,,,,,,,,,,,,,,,,,,,2,right,,,,right,1,1.4304,0,24,24,24,1,2981246400-220363.jpg,2868474407-362883.jpg,,
,,,A3DFUI6OKBNNGI,57,Female,8,2022-10-02_08h49.56.408,memory_pilot_most_recent,2022.2.4,Win32,16.1386634,,,,,,,,,,,,,,,,,,,,,,,,,,,,,,,,1,right,,,,right,1,1.6556,0,25,25,25,1,2238576792-334659.jpg,2592380177-354626.jpg,,
,,,A3DFUI6OKBNNGI,57,Female,8,2022-10-02_08h49.56.408,memory_pilot_most_recent,2022.2.4,Win32,16.1386634,,,,,,,,,,,,,,,,,,,,,,,,,,,,,,,,2,left,,,,left,1,3.5173,0,26,26,26,1,2446758985-197609.jpg,2864909447-362144.jpg,,
,,,A3DFUI6OKBNNGI,57,Female,8,2022-10-02_08h49.56.408,memory_pilot_most_recent,2022.2.4,Win32,16.1386634,,,,,,,,,,,,,,,,,,,,,,,,,,,,,,,,3,right,,,,left,0,3.9929,0,27,27,27,1,2238480803-19737.jpg,2238481198-19822.jpg,,
,,,A3DFUI6OKBNNGI,57,Female,8,2022-10-02_08h49.56.408,memory_pilot_most_recent,2022.2.4,Win32,16.1386634,,,,,,,,,,,,,,,,,,,,,,,,,,,,,,,,3,left,,,,right,0,2.1366,0,28,28,28,1,2964216465-219242.jpg,2898619327-366362.jpg,,
,,,A3DFUI6OKBNNGI,57,Female,8,2022-10-02_08h49.56.408,memory_pilot_most_recent,2022.2.4,Win32,16.1386634,,,,,,,,,,,,,,,,,,,,,,,,,,,,,,,,3,right,,,,right,1,1.2199,0,29,29,29,1,2864904453-63933.jpg,2883256307-365057.jpg,,
,,,A3DFUI6OKBNNGI,57,Female,8,2022-10-02_08h49.56.408,memory_pilot_most_recent,2022.2.4,Win32,16.1386634,,,,,,,,,,,,,,,,,,,,,,,,,,,,,,,,2,right,,,,right,1,1.1491,0,30,30,30,1,2575120738-55528.jpg,2575120738-55529.jpg,,
,,,A3DFUI6OKBNNGI,57,Female,8,2022-10-02_08h49.56.408,memory_pilot_most_recent,2022.2.4,Win32,16.1386634,,,,,,,,,,,,,,,,,,,,,,,,,,,,,,,,1,right,,,,right,1,2.1789,0,31,31,31,1,2238550816-254000.jpg,2238580740-186218.jpg,,
,,,A3DFUI6OKBNNGI,57,Female,8,2022-10-02_08h49.56.408,memory_pilot_most_recent,2022.2.4,Win32,16.1386634,,,,,,,,,,,,,,,,,,,,,,,,,,,,,,,,1,right,,,,right,1,2.5616,0,32,32,32,1,2237856148-989.jpg,2898618390-216538.jpg,,
,,,A3DFUI6OKBNNGI,57,Female,8,2022-10-02_08h49.56.408,memory_pilot_most_recent,2022.2.4,Win32,16.1386634,,,,,,,,,,,,,,,,,,,,,,,,,,,,,,,,2,right,,,,left,0,2.7604,0,33,33,33,1,2238573447-333826.jpg,2901947423-70311.jpg,,
,,,A3DFUI6OKBNNGI,57,Female,8,2022-10-02_08h49.56.408,memory_pilot_most_recent,2022.2.4,Win32,16.1386634,,,,,,,,,,,,,,,,,,,,,,,,,,,,,,,,1,left,,,,right,0,3.1184,0,34,34,34,1,2449442529-124446.jpg,2446759803-49251.jpg,,
,,,A3DFUI6OKBNNGI,57,Female,8,2022-10-02_08h49.56.408,memory_pilot_most_recent,2022.2.4,Win32,16.1386634,,,,,,,,,,,,,,,,,,,,,,,,,,,,,,,,1,left,,,,left,1,1.3936,0,35,35,35,1,2512875899-126682.jpg,2460547536-274179.jpg,,
,,,A3DFUI6OKBNNGI,57,Female,8,2022-10-02_08h49.56.408,memory_pilot_most_recent,2022.2.4,Win32,16.1386634,,,,,,,,,,,,,,,,,,,,,,,,,,,,,,,,3,left,,,,right,0,1.7187,0,36,36,36,1,2964222378-71332.jpg,2981240427-370099.jpg,,
,,,A3DFUI6OKBNNGI,57,Female,8,2022-10-02_08h49.56.408,memory_pilot_most_recent,2022.2.4,Win32,16.1386634,,,,,,,,,,,,,,,,,,,,,,,,,,,,,,,,2,left,,,,left,1,1.0878,0,37,37,37,1,2898635428-69104.jpg,2901943411-292945.jpg,,
,,,A3DFUI6OKBNNGI,57,Female,8,2022-10-02_08h49.56.408,memory_pilot_most_recent,2022.2.4,Win32,16.1386634,,,,,,,,,,,,,,,,,,,,,,,,,,,,,,,,3,right,,,,left,0,1.9387,0,38,38,38,1,2427873848-47312.jpg,2981241414-145842.jpg,,
,,,A3DFUI6OKBNNGI,57,Female,8,2022-10-02_08h49.56.408,memory_pilot_most_recent,2022.2.4,Win32,16.1386634,,,,,,,,,,,,,,,,,,,,,,,,,,,,,,,,2,left,,,,left,1,1.3027,0,39,39,39,1,2238480677-317399.jpg,2238573546-258454.jpg,,
,,,A3DFUI6OKBNNGI,57,Female,8,2022-10-02_08h49.56.408,memory_pilot_most_recent,2022.2.4,Win32,16.1386634,,,,,,,,,,,,,,,,,,,,,,,,,,,,,,,,2,left,,,,left,1,0.9466,0,40,40,40,1,2883273443-68193.jpg,2460547508-51572.jpg,,
,,,A3DFUI6OKBNNGI,57,Female,8,2022-10-02_08h49.56.408,memory_pilot_most_recent,2022.2.4,Win32,16.1386634,,,,,,,,,,,,,,,,,,,,,,,,,,,,,,,,2,left,,,,right,0,1.2293,0,41,41,41,1,2864910426-287204.jpg,2883268412-365899.jpg,,
,,,A3DFUI6OKBNNGI,57,Female,8,2022-10-02_08h49.56.408,memory_pilot_most_recent,2022.2.4,Win32,16.1386634,,,,,,,,,,,,,,,,,,,,,,,,,,,,,,,,2,left,,,,left,1,1.783,0,42,42,42,1,2592380177-354629.jpg,2579432534-130704.jpg,,
,,,A3DFUI6OKBNNGI,57,Female,8,2022-10-02_08h49.56.408,memory_pilot_most_recent,2022.2.4,Win32,16.1386634,,,,,,,,,,,,,,,,,,,,,,,,,,,,,,,,2,right,,,,right,1,1.4954,0,43,43,43,1,2238481813-19930.jpg,2452380832-348593.jpg,,
,,,A3DFUI6OKBNNGI,57,Female,8,2022-10-02_08h49.56.408,memory_pilot_most_recent,2022.2.4,Win32,16.1386634,,,,,,,,,,,,,,,,,,,,,,,,,,,,,,,,1,left,,,,left,1,1.8591,0,44,44,44,1,2592379964-131054.jpg,2575963989-130576.jpg,,
,,,A3DFUI6OKBNNGI,57,Female,8,2022-10-02_08h49.56.408,memory_pilot_most_recent,2022.2.4,Win32,16.1386634,,,,,,,,,,,,,,,,,,,,,,,,,,,,,,,,2,left,,,,right,0,1.4168,0,45,45,45,1,2986451363-73599.jpg,2860302315-210704.jpg,,
,,,A3DFUI6OKBNNGI,57,Female,8,2022-10-02_08h49.56.408,memory_pilot_most_recent,2022.2.4,Win32,16.1386634,,,,,,,,,,,,,,,,,,,,,,,,,,,,,,,,3,right,,,,right,1,1.8305,0,46,46,46,1,2898618444-142232.jpg,2898618444-142233.jpg,,
,,,A3DFUI6OKBNNGI,57,Female,8,2022-10-02_08h49.56.408,memory_pilot_most_recent,2022.2.4,Win32,16.1386634,,,,,,,,,,,,,,,,,,,,,,,,,,,,,,,,2,right,,,,right,1,0.3127,0,47,47,47,1,2981244403-72215.jpg,2874299429-139694.jpg,,
,,,A3DFUI6OKBNNGI,57,Female,8,2022-10-02_08h49.56.408,memory_pilot_most_recent,2022.2.4,Win32,16.1386634,,,,,,,,,,,,,,,,,,,,,,,,,,,,,,,,1,left,,,,right,0,0.2154,0,48,48,48,1,2449442529-124445.jpg,2452380171-273112.jpg,,
,,,A3DFUI6OKBNNGI,57,Female,8,2022-10-02_08h49.56.408,memory_pilot_most_recent,2022.2.4,Win32,16.1386634,,,,,,,,,,,,,,,,,,,,,,,,,,,,,,,,3,right,,,,right,1,0.1194,0,49,49,49,1,2238481198-19821.jpg,2901952513-70703.jpg,,
,,,A3DFUI6OKBNNGI,57,Female,8,2022-10-02_08h49.56.408,memory_pilot_most_recent,2022.2.4,Win32,16.1386634,,,,,,,,,,,,,,,,,,,,,,,,,,,,,,,,2,left,,,,right,0,0.3068,0,50,50,50,1,2981231403-71642.jpg,2874305405-214397.jpg,,
,,,A3DFUI6OKBNNGI,57,Female,8,2022-10-02_08h49.56.408,memory_pilot_most_recent,2022.2.4,Win32,16.1386634,,,,,,,,,,,,,,,,,,,,,,,,,,,,,,,,1,left,,,,right,0,0.1084,0,51,51,51,1,2874299429-139695.jpg,2883266388-67750.jpg,,
,,,A3DFUI6OKBNNGI,57,Female,8,2022-10-02_08h49.56.408,memory_pilot_most_recent,2022.2.4,Win32,16.1386634,,,,,,,,,,,,,,,,,,,,,,,,,,,,,,,,2,right,,,,right,1,0.1085,0,52,52,52,1,2901943387-368037.jpg,2898617468-68274.jpg,,
,,,A3DFUI6OKBNNGI,57,Female,8,2022-10-02_08h49.56.408,memory_pilot_most_recent,2022.2.4,Win32,16.1386634,,,,,,,,,,,,,,,,,,,,,,,,,,,,,,,,3,right,,,,right,1,0.1078,0,53,53,53,1,2864909447-362146.jpg,2460547467-349422.jpg,,
,,,A3DFUI6OKBNNGI,57,Female,8,2022-10-02_08h49.56.408,memory_pilot_most_recent,2022.2.4,Win32,16.1386634,,,,,,,,,,,,,,,,,,,,,,,,,,,,,,,,1,left,,,,right,0,0.1012,0,54,54,54,1,2874307433-66280.jpg,2984615358-72439.jpg,,
,,,A3DFUI6OKBNNGI,57,Female,8,2022-10-02_08h49.56.408,memory_pilot_most_recent,2022.2.4,Win32,16.1386634,,,,,,,,,,,,,,,,,,,,,,,,,,,,,,,,3,left,,,,right,0,0.1183,0,55,55,55,1,2868475410-213219.jpg,2868474407-362885.jpg,,
,,,A3DFUI6OKBNNGI,57,Female,8,2022-10-02_08h49.56.408,memory_pilot_most_recent,2022.2.4,Win32,16.1386634,,,,,,,,,,,,,,,,,,,,,,,,,,,,,,,,3,left,,,,right,0,0.0082,0,56,56,56,1,2898633421-291973.jpg,2238550049-105691.jpg,,
,,,A3DFUI6OKBNNGI,57,Female,8,2022-10-02_08h49.56.408,memory_pilot_most_recent,2022.2.4,Win32,16.1386634,,,,,,,,,,,,,,,,,,,,,,,,,,,,,,,,3,left,,,,right,0,0.1151,0,57,57,57,1,2864907432-362042.jpg,2989726338-74002.jpg,,
,,,A3DFUI6OKBNNGI,57,Female,8,2022-10-02_08h49.56.408,memory_pilot_most_recent,2022.2.4,Win32,16.1386634,,,,,,,,,,,,,,,,,,,,,,,,,,,,,,,,2,right,,,,right,1,0.0088,0,58,58,58,1,2868479517-363220.jpg,2898635427-367120.jpg,,
,,,A3DFUI6OKBNNGI,57,Female,8,2022-10-02_08h49.56.408,memory_pilot_most_recent,2022.2.4,Win32,16.1386634,,,,,,,,,,,,,,,,,,,,,,,,,,,,,,,,1,right,,,,right,1,0.1232,0,59,59,59,1,2981244394-145974.jpg,2964213381-294060.jpg,,
,,,A3DFUI6OKBNNGI,57,Female,8,2022-10-02_08h49.56.408,memory_pilot_most_recent,2022.2.4,Win32,16.1386634,,,,,,,,,,,,,,,,,,,,,,,,,,,,,,,,,,,,,,,,,,,,,,,space,12.5566
