,index,test_encoding_response.keys,test_encoding_response.corr,trials.thisTrialN,target_image,pair,layer,correct,test_encoding_response.rt,key_resp_end.keys,subject
0,20,,1.0,0.0,2512875899-126682.jpg,2460547536-274179.jpg,1.0,,,,A3SSIUMI7ONK5W
1,21,,1.0,1.0,2964213381-294060.jpg,2458348012-349114.jpg,2.0,,,,A3SSIUMI7ONK5W
2,22,,1.0,2.0,2452381505-199546.jpg,2898632385-217138.jpg,2.0,,,,A3SSIUMI7ONK5W
3,23,,1.0,3.0,2874299429-139694.jpg,2883266367-365742.jpg,3.0,,,,A3SSIUMI7ONK5W
4,24,,1.0,4.0,2460547467-349422.jpg,2868487415-213924.jpg,2.0,,,,A3SSIUMI7ONK5W
5,25,,1.0,5.0,2986451363-73599.jpg,2898626385-216899.jpg,1.0,,,,A3SSIUMI7ONK5W
6,26,,1.0,6.0,2449442529-124445.jpg,2986408373-73286.jpg,2.0,,,,A3SSIUMI7ONK5W
7,27,,1.0,7.0,2874303365-214262.jpg,2238563377-332054.jpg,2.0,,,,A3SSIUMI7ONK5W
8,28,left,1.0,8.0,left.jpg,,,left,2.01,,A3SSIUMI7ONK5W
9,29,,1.0,9.0,2238481198-19822.jpg,2901946436-293242.jpg,2.0,,,,A3SSIUMI7ONK5W
10,30,,1.0,10.0,2449442529-124446.jpg,2460547536-274181.jpg,2.0,,,,A3SSIUMI7ONK5W
11,31,,1.0,11.0,2874299429-139695.jpg,2901942443-69923.jpg,2.0,,,,A3SSIUMI7ONK5W
12,32,,1.0,12.0,2238580740-186218.jpg,2964220333-71258.jpg,3.0,,,,A3SSIUMI7ONK5W
13,33,,1.0,13.0,2238425482-313537.jpg,2238471391-240918.jpg,1.0,,,,A3SSIUMI7ONK5W
14,34,,1.0,14.0,2901947423-70311.jpg,2860312398-62572.jpg,1.0,,,,A3SSIUMI7ONK5W
15,35,,1.0,15.0,2898618444-142233.jpg,2898631359-142721.jpg,1.0,,,,A3SSIUMI7ONK5W
16,36,left,1.0,16.0,left.jpg,,,left,2.1138,,A3SSIUMI7ONK5W
17,37,,1.0,17.0,2446759803-49249.jpg,2901951392-368654.jpg,3.0,,,,A3SSIUMI7ONK5W
18,38,,1.0,18.0,2964223381-294447.jpg,2427874231-269884.jpg,1.0,,,,A3SSIUMI7ONK5W
19,39,,1.0,19.0,2592379964-131054.jpg,2238479053-19457.jpg,2.0,,,,A3SSIUMI7ONK5W
20,40,,1.0,20.0,2592380177-354629.jpg,2579432534-130704.jpg,2.0,,,,A3SSIUMI7ONK5W
21,41,,1.0,21.0,2868474407-362883.jpg,2460547732-349518.jpg,1.0,,,,A3SSIUMI7ONK5W
22,42,,1.0,22.0,2864910426-287204.jpg,2864902304-137862.jpg,1.0,,,,A3SSIUMI7ONK5W
23,43,,1.0,23.0,2901939379-143480.jpg,2981229442-369621.jpg,2.0,,,,A3SSIUMI7ONK5W
24,44,,1.0,24.0,2883268471-290842.jpg,2883268471-290843.jpg,1.0,,,,A3SSIUMI7ONK5W
25,45,,1.0,25.0,2238560245-182099.jpg,2592380255-205553.jpg,1.0,,,,A3SSIUMI7ONK5W
26,46,,1.0,26.0,2458347385-199723.jpg,2238480434-93829.jpg,1.0,,,,A3SSIUMI7ONK5W
27,47,,1.0,27.0,2981241414-145842.jpg,2427873848-47312.jpg,3.0,,,,A3SSIUMI7ONK5W
28,48,,1.0,28.0,2874301407-363895.jpg,2901947323-70275.jpg,3.0,,,,A3SSIUMI7ONK5W
29,49,,1.0,29.0,2901939379-143479.jpg,2446758985-197610.jpg,2.0,,,,A3SSIUMI7ONK5W
30,50,,1.0,30.0,2964216465-219242.jpg,2898619327-366362.jpg,3.0,,,,A3SSIUMI7ONK5W
31,51,,0.0,31.0,left.jpg,,,left,,,A3SSIUMI7ONK5W
32,52,,1.0,32.0,2460547508-51571.jpg,2452380166-273109.jpg,1.0,,,,A3SSIUMI7ONK5W
33,53,,1.0,33.0,2874307433-66280.jpg,2981231422-369714.jpg,3.0,,,,A3SSIUMI7ONK5W
34,54,,1.0,34.0,2238481928-19949.jpg,2981241419-145844.jpg,3.0,,,,A3SSIUMI7ONK5W
35,55,,1.0,35.0,2238572663-35822.jpg,2238584894-113161.jpg,1.0,,,,A3SSIUMI7ONK5W
36,56,,1.0,36.0,2964218374-144967.jpg,2981231446-294732.jpg,3.0,,,,A3SSIUMI7ONK5W
37,57,,1.0,37.0,2901941401-292798.jpg,2898631468-68931.jpg,3.0,,,,A3SSIUMI7ONK5W
38,58,,1.0,38.0,2452380832-348593.jpg,2238328478-11678.jpg,1.0,,,,A3SSIUMI7ONK5W
39,59,,1.0,39.0,2898635427-367120.jpg,2964221435-219434.jpg,1.0,,,,A3SSIUMI7ONK5W
40,60,,1.0,40.0,2964222378-71332.jpg,2981240427-370099.jpg,3.0,,,,A3SSIUMI7ONK5W
41,61,,1.0,41.0,2446758985-197609.jpg,2898624426-291544.jpg,3.0,,,,A3SSIUMI7ONK5W
42,62,,0.0,42.0,right.jpg,,,right,,,A3SSIUMI7ONK5W
43,63,,1.0,43.0,2864907432-362042.jpg,2989726338-74002.jpg,3.0,,,,A3SSIUMI7ONK5W
44,64,,1.0,44.0,2981231403-71642.jpg,2579432519-130698.jpg,1.0,,,,A3SSIUMI7ONK5W
45,65,,1.0,45.0,2874302418-65979.jpg,2237857458-1325.jpg,1.0,,,,A3SSIUMI7ONK5W
46,66,,1.0,46.0,2898617468-68274.jpg,2901943387-368037.jpg,2.0,,,,A3SSIUMI7ONK5W
47,67,,1.0,47.0,2898618390-216538.jpg,2901939327-367670.jpg,2.0,,,,A3SSIUMI7ONK5W
48,68,,1.0,48.0,2901952513-70703.jpg,2238481198-19821.jpg,3.0,,,,A3SSIUMI7ONK5W
49,69,left,0.0,49.0,right.jpg,,,right,0.7762,,A3SSIUMI7ONK5W
50,70,,1.0,50.0,2460547467-349421.jpg,2452380166-273110.jpg,2.0,,,,A3SSIUMI7ONK5W
51,71,,1.0,51.0,2868475410-213219.jpg,2868474407-362885.jpg,3.0,,,,A3SSIUMI7ONK5W
52,72,,1.0,52.0,2238428357-313623.jpg,2238499057-320266.jpg,1.0,,,,A3SSIUMI7ONK5W
53,73,,1.0,53.0,2883268412-365898.jpg,2238436252-314037.jpg,3.0,,,,A3SSIUMI7ONK5W
54,74,,1.0,54.0,2592380177-354626.jpg,2238117096-228518.jpg,3.0,,,,A3SSIUMI7ONK5W
55,75,,1.0,55.0,2883273443-68193.jpg,2460547508-51572.jpg,2.0,,,,A3SSIUMI7ONK5W
56,76,,1.0,56.0,2986451363-73598.jpg,2984628361-295995.jpg,2.0,,,,A3SSIUMI7ONK5W
57,77,,1.0,57.0,2874302418-65978.jpg,2238481198-19823.jpg,2.0,,,,A3SSIUMI7ONK5W
58,78,,1.0,58.0,2575120738-55529.jpg,2238531493-28260.jpg,3.0,,,,A3SSIUMI7ONK5W
59,79,,1.0,59.0,2898624426-291546.jpg,2964218432-369263.jpg,1.0,,,,A3SSIUMI7ONK5W
60,80,,1.0,60.0,2898633421-291973.jpg,2575118671-277663.jpg,2.0,,,,A3SSIUMI7ONK5W
61,81,,1.0,61.0,2898635428-69104.jpg,2898625336-291572.jpg,3.0,,,,A3SSIUMI7ONK5W
62,82,,1.0,62.0,2883256307-365057.jpg,2864904453-63933.jpg,3.0,,,,A3SSIUMI7ONK5W
63,83,,1.0,63.0,2898634397-367080.jpg,2901934408-69289.jpg,2.0,,,,A3SSIUMI7ONK5W
64,84,,1.0,64.0,2238480677-317399.jpg,2238481630-168218.jpg,1.0,,,,A3SSIUMI7ONK5W
65,20,,1.0,0.0,2446758985-197609.jpg,2864909447-362144.jpg,2.0,,,,A2NVX39CZ34V4E
66,21,,1.0,1.0,2460547467-349422.jpg,2864909447-362146.jpg,3.0,,,,A2NVX39CZ34V4E
67,22,,1.0,2.0,2874302418-65979.jpg,2237857458-1325.jpg,1.0,,,,A2NVX39CZ34V4E
68,23,,1.0,3.0,2868475410-213219.jpg,2238480803-19739.jpg,2.0,,,,A2NVX39CZ34V4E
69,24,,1.0,4.0,2964218374-144967.jpg,2446759306-271734.jpg,2.0,,,,A2NVX39CZ34V4E
70,25,,1.0,5.0,2901939379-143480.jpg,2981229442-369621.jpg,2.0,,,,A2NVX39CZ34V4E
71,26,left,1.0,6.0,left.jpg,,,left,1.147,,A2NVX39CZ34V4E
72,27,,1.0,7.0,2883256307-365057.jpg,2864904453-63933.jpg,3.0,,,,A2NVX39CZ34V4E
73,28,,1.0,8.0,2238560245-182099.jpg,2238480980-168129.jpg,3.0,,,,A2NVX39CZ34V4E
74,29,,1.0,9.0,2874303365-214262.jpg,2274829821-263682.jpg,1.0,,,,A2NVX39CZ34V4E
75,30,,1.0,10.0,2964216465-219242.jpg,2898619327-366362.jpg,3.0,,,,A2NVX39CZ34V4E
76,31,,1.0,11.0,2238572663-35822.jpg,2864903351-286874.jpg,3.0,,,,A2NVX39CZ34V4E
77,32,,1.0,12.0,2238425482-313537.jpg,2898633480-217190.jpg,3.0,,,,A2NVX39CZ34V4E
78,33,,1.0,13.0,2898635427-367120.jpg,2868479517-363220.jpg,2.0,,,,A2NVX39CZ34V4E
79,34,,1.0,14.0,2898635428-69104.jpg,2446759803-49250.jpg,1.0,,,,A2NVX39CZ34V4E
80,35,,1.0,15.0,2883268471-290842.jpg,2883255450-215310.jpg,2.0,,,,A2NVX39CZ34V4E
81,36,right,1.0,16.0,right.jpg,,,right,0.8167,,A2NVX39CZ34V4E
82,37,,1.0,17.0,2460547508-51571.jpg,2901941438-69835.jpg,3.0,,,,A2NVX39CZ34V4E
83,38,,1.0,18.0,2874307433-66280.jpg,2984615358-72439.jpg,1.0,,,,A2NVX39CZ34V4E
84,39,,1.0,19.0,2898624426-291546.jpg,2981235446-294900.jpg,3.0,,,,A2NVX39CZ34V4E
85,40,,1.0,20.0,2874301407-363895.jpg,2986397322-371109.jpg,2.0,,,,A2NVX39CZ34V4E
86,41,,1.0,21.0,2898634397-367080.jpg,2237944827-301472.jpg,1.0,,,,A2NVX39CZ34V4E
87,42,,1.0,22.0,2898618444-142233.jpg,2898631359-142721.jpg,1.0,,,,A2NVX39CZ34V4E
88,43,,1.0,23.0,2901939379-143479.jpg,2964216376-294181.jpg,3.0,,,,A2NVX39CZ34V4E
89,44,,1.0,24.0,2986451363-73598.jpg,2237857458-1324.jpg,1.0,,,,A2NVX39CZ34V4E
90,45,,1.0,25.0,2452380832-348593.jpg,2238481813-19930.jpg,2.0,,,,A2NVX39CZ34V4E
91,46,,1.0,26.0,2238428357-313623.jpg,2238499057-320266.jpg,1.0,,,,A2NVX39CZ34V4E
92,47,left,1.0,27.0,left.jpg,,,left,1.2135,,A2NVX39CZ34V4E
93,48,,1.0,28.0,2238481198-19822.jpg,2862691449-137104.jpg,1.0,,,,A2NVX39CZ34V4E
94,49,,1.0,29.0,2981231403-71642.jpg,2427873763-47290.jpg,3.0,,,,A2NVX39CZ34V4E
95,50,,1.0,30.0,2901941401-292798.jpg,2981243412-370222.jpg,2.0,,,,A2NVX39CZ34V4E
96,51,,1.0,31.0,2238481928-19949.jpg,2883264367-365620.jpg,1.0,,,,A2NVX39CZ34V4E
97,52,,1.0,32.0,2883268412-365898.jpg,2984626312-370849.jpg,1.0,,,,A2NVX39CZ34V4E
98,53,,1.0,33.0,2238580740-186218.jpg,2238521193-26285.jpg,2.0,,,,A2NVX39CZ34V4E
99,54,,1.0,34.0,2898617468-68274.jpg,2901946439-144040.jpg,1.0,,,,A2NVX39CZ34V4E
100,55,,1.0,35.0,2592380177-354626.jpg,2238117096-228518.jpg,3.0,,,,A2NVX39CZ34V4E
101,56,,1.0,36.0,2986451363-73599.jpg,2898626385-216899.jpg,1.0,,,,A2NVX39CZ34V4E
102,57,,1.0,37.0,2874299429-139694.jpg,2981244403-72215.jpg,2.0,,,,A2NVX39CZ34V4E
103,58,,1.0,38.0,2575120738-55529.jpg,2864906345-212360.jpg,1.0,,,,A2NVX39CZ34V4E
104,59,right,1.0,39.0,right.jpg,,,right,1.3978,,A2NVX39CZ34V4E
105,60,,1.0,40.0,2449442529-124446.jpg,2460547536-274178.jpg,3.0,,,,A2NVX39CZ34V4E
106,61,,1.0,41.0,2592379964-131054.jpg,2592380272-354673.jpg,3.0,,,,A2NVX39CZ34V4E
107,62,,1.0,42.0,2238480677-317399.jpg,2238480278-19661.jpg,3.0,,,,A2NVX39CZ34V4E
108,63,,1.0,43.0,2864910426-287204.jpg,2864902304-137862.jpg,1.0,,,,A2NVX39CZ34V4E
109,64,,1.0,44.0,2901947423-70311.jpg,2238573447-333826.jpg,2.0,,,,A2NVX39CZ34V4E
110,65,,1.0,45.0,2460547467-349421.jpg,2981235446-294901.jpg,3.0,,,,A2NVX39CZ34V4E
111,66,,1.0,46.0,2446759803-49249.jpg,2898618440-216547.jpg,2.0,,,,A2NVX39CZ34V4E
112,67,,1.0,47.0,2458347385-199723.jpg,2427874554-121863.jpg,2.0,,,,A2NVX39CZ34V4E
113,68,left,1.0,48.0,left.jpg,,,left,1.0617,,A2NVX39CZ34V4E
114,69,,1.0,49.0,2964223381-294447.jpg,2898628438-68785.jpg,3.0,,,,A2NVX39CZ34V4E
115,70,,1.0,50.0,2874302418-65978.jpg,2898633321-291943.jpg,3.0,,,,A2NVX39CZ34V4E
116,71,,1.0,51.0,2874299429-139695.jpg,2901942443-69923.jpg,2.0,,,,A2NVX39CZ34V4E
117,72,,1.0,52.0,2898633421-291973.jpg,2575118671-277663.jpg,2.0,,,,A2NVX39CZ34V4E
118,73,,1.0,53.0,2964213381-294060.jpg,2458348012-349114.jpg,2.0,,,,A2NVX39CZ34V4E
119,74,,1.0,54.0,2901952513-70703.jpg,2864907361-287062.jpg,1.0,,,,A2NVX39CZ34V4E
120,75,,1.0,55.0,2864907432-362042.jpg,2901947423-70310.jpg,2.0,,,,A2NVX39CZ34V4E
121,76,,1.0,56.0,2883273443-68193.jpg,2460547508-51572.jpg,2.0,,,,A2NVX39CZ34V4E
122,77,,1.0,57.0,2898618390-216538.jpg,2237856148-989.jpg,1.0,,,,A2NVX39CZ34V4E
123,78,,1.0,58.0,2964222378-71332.jpg,2981240427-370099.jpg,3.0,,,,A2NVX39CZ34V4E
124,79,,1.0,59.0,2452381505-199546.jpg,2994401319-148290.jpg,3.0,,,,A2NVX39CZ34V4E
125,80,,1.0,60.0,2868474407-362883.jpg,2901948383-70363.jpg,3.0,,,,A2NVX39CZ34V4E
126,81,,1.0,61.0,2981241414-145842.jpg,2874301404-139813.jpg,2.0,,,,A2NVX39CZ34V4E
127,82,,1.0,62.0,2449442529-124445.jpg,2452380171-273112.jpg,1.0,,,,A2NVX39CZ34V4E
128,83,,1.0,63.0,2592380177-354629.jpg,2898633421-291974.jpg,1.0,,,,A2NVX39CZ34V4E
129,84,,1.0,64.0,2512875899-126682.jpg,2460547536-274179.jpg,1.0,,,,A2NVX39CZ34V4E
130,20,,1.0,0.0,2898635428-69104.jpg,2901943411-292945.jpg,2.0,,,,A28OD52SMLYQ16
131,21,,1.0,1.0,2874302418-65979.jpg,2238480648-19714.jpg,2.0,,,,A28OD52SMLYQ16
132,22,,1.0,2.0,2874307433-66280.jpg,2981246400-220365.jpg,2.0,,,,A28OD52SMLYQ16
133,23,,1.0,3.0,2981231403-71642.jpg,2579432519-130698.jpg,1.0,,,,A28OD52SMLYQ16
134,24,,1.0,4.0,2874303365-214262.jpg,2238563377-332054.jpg,2.0,,,,A28OD52SMLYQ16
135,25,,1.0,5.0,2238480677-317399.jpg,2238480278-19661.jpg,3.0,,,,A28OD52SMLYQ16
136,26,,1.0,6.0,2883268412-365898.jpg,2984615361-295510.jpg,2.0,,,,A28OD52SMLYQ16
137,27,right,1.0,7.0,right.jpg,,,right,1.104,,A28OD52SMLYQ16
138,28,,1.0,8.0,2898618444-142233.jpg,2898631359-142721.jpg,1.0,,,,A28OD52SMLYQ16
139,29,,1.0,9.0,2460547508-51571.jpg,2901941438-69835.jpg,3.0,,,,A28OD52SMLYQ16
140,30,,1.0,10.0,2238560245-182099.jpg,2874314526-289684.jpg,2.0,,,,A28OD52SMLYQ16
141,31,,1.0,11.0,2238580740-186218.jpg,2238521193-26285.jpg,2.0,,,,A28OD52SMLYQ16
142,32,,1.0,12.0,2238481928-19949.jpg,2864900357-361688.jpg,2.0,,,,A28OD52SMLYQ16
143,33,,1.0,13.0,2901939379-143480.jpg,2901942428-69919.jpg,1.0,,,,A28OD52SMLYQ16
144,34,,1.0,14.0,2575120738-55529.jpg,2864906345-212360.jpg,1.0,,,,A28OD52SMLYQ16
145,35,,1.0,15.0,2874299429-139694.jpg,2981244403-72215.jpg,2.0,,,,A28OD52SMLYQ16
146,36,right,1.0,16.0,right.jpg,,,right,1.078,,A28OD52SMLYQ16
147,37,,1.0,17.0,2898633421-291973.jpg,2512876023-52283.jpg,1.0,,,,A28OD52SMLYQ16
148,38,,1.0,18.0,2458347385-199723.jpg,2458347252-348911.jpg,3.0,,,,A28OD52SMLYQ16
149,39,,1.0,19.0,2986451363-73599.jpg,2898626385-216899.jpg,1.0,,,,A28OD52SMLYQ16
150,40,,1.0,20.0,2964222378-71332.jpg,2981240427-370099.jpg,3.0,,,,A28OD52SMLYQ16
151,41,,1.0,21.0,2446759803-49249.jpg,2446760601-272099.jpg,1.0,,,,A28OD52SMLYQ16
152,42,,1.0,22.0,2460547467-349421.jpg,2898631394-142727.jpg,1.0,,,,A28OD52SMLYQ16
153,43,,1.0,23.0,2874301407-363895.jpg,2986397322-371109.jpg,2.0,,,,A28OD52SMLYQ16
154,44,,1.0,24.0,2898635427-367120.jpg,2898621427-366486.jpg,3.0,,,,A28OD52SMLYQ16
155,45,,1.0,25.0,2868474407-362883.jpg,2981246400-220363.jpg,2.0,,,,A28OD52SMLYQ16
156,46,,1.0,26.0,2898618390-216538.jpg,2237856148-989.jpg,1.0,,,,A28OD52SMLYQ16
157,47,right,1.0,27.0,right.jpg,,,right,0.94,,A28OD52SMLYQ16
158,48,,1.0,28.0,2901947423-70311.jpg,2238577590-185467.jpg,3.0,,,,A28OD52SMLYQ16
159,49,,1.0,29.0,2901952513-70703.jpg,2238481198-19821.jpg,3.0,,,,A28OD52SMLYQ16
160,50,,1.0,30.0,2864907432-362042.jpg,2989726338-74002.jpg,3.0,,,,A28OD52SMLYQ16
161,51,,1.0,31.0,2452380832-348593.jpg,2238328478-11678.jpg,1.0,,,,A28OD52SMLYQ16
162,52,,1.0,32.0,2238428357-313623.jpg,2984615361-295509.jpg,2.0,,,,A28OD52SMLYQ16
163,53,,1.0,33.0,2592380177-354629.jpg,2898633421-291974.jpg,1.0,,,,A28OD52SMLYQ16
164,54,,1.0,34.0,2868475410-213219.jpg,2868474407-362885.jpg,3.0,,,,A28OD52SMLYQ16
165,55,,1.0,35.0,2981241414-145842.jpg,2427873848-47312.jpg,3.0,,,,A28OD52SMLYQ16
166,56,,1.0,36.0,2592379964-131054.jpg,2575963989-130576.jpg,1.0,,,,A28OD52SMLYQ16
167,57,,1.0,37.0,2592380177-354626.jpg,2864901386-286797.jpg,2.0,,,,A28OD52SMLYQ16
168,58,,1.0,38.0,2986451363-73598.jpg,2984628361-295995.jpg,2.0,,,,A28OD52SMLYQ16
169,59,left,1.0,39.0,left.jpg,,,left,0.969,,A28OD52SMLYQ16
170,60,,1.0,40.0,2898617468-68274.jpg,2964207374-144577.jpg,3.0,,,,A28OD52SMLYQ16
171,61,,1.0,41.0,2898634397-367080.jpg,2901934408-69289.jpg,2.0,,,,A28OD52SMLYQ16
172,62,,1.0,42.0,2874302418-65978.jpg,2238481198-19823.jpg,2.0,,,,A28OD52SMLYQ16
173,63,,1.0,43.0,2964216465-219242.jpg,2864900319-137787.jpg,2.0,,,,A28OD52SMLYQ16
174,64,,1.0,44.0,2883273443-68193.jpg,2898627427-366763.jpg,3.0,,,,A28OD52SMLYQ16
175,65,,1.0,45.0,2901939379-143479.jpg,2446758985-197610.jpg,2.0,,,,A28OD52SMLYQ16
176,66,,1.0,46.0,2883268471-290842.jpg,2883268471-290843.jpg,1.0,,,,A28OD52SMLYQ16
177,67,,1.0,47.0,2452381505-199546.jpg,2994401319-148290.jpg,3.0,,,,A28OD52SMLYQ16
178,68,left,1.0,48.0,left.jpg,,,left,0.987,,A28OD52SMLYQ16
179,69,,1.0,49.0,2964218374-144967.jpg,2964218374-144968.jpg,1.0,,,,A28OD52SMLYQ16
180,70,,1.0,50.0,2512875899-126682.jpg,2986447332-371497.jpg,3.0,,,,A28OD52SMLYQ16
181,71,,1.0,51.0,2449442529-124445.jpg,2898632385-217137.jpg,3.0,,,,A28OD52SMLYQ16
182,72,,1.0,52.0,2874299429-139695.jpg,2883266388-67750.jpg,1.0,,,,A28OD52SMLYQ16
183,73,,1.0,53.0,2238572663-35822.jpg,2238584894-113161.jpg,1.0,,,,A28OD52SMLYQ16
184,74,,1.0,54.0,2460547467-349422.jpg,2864909447-362146.jpg,3.0,,,,A28OD52SMLYQ16
185,75,,1.0,55.0,2901941401-292798.jpg,2898618327-366317.jpg,1.0,,,,A28OD52SMLYQ16
186,76,,1.0,56.0,2864910426-287204.jpg,2883268412-365899.jpg,2.0,,,,A28OD52SMLYQ16
187,77,,1.0,57.0,2238481198-19822.jpg,2238480803-19737.jpg,3.0,,,,A28OD52SMLYQ16
188,78,,1.0,58.0,2964213381-294060.jpg,2964213381-294061.jpg,3.0,,,,A28OD52SMLYQ16
189,79,,1.0,59.0,2238425482-313537.jpg,2238471391-240918.jpg,1.0,,,,A28OD52SMLYQ16
190,80,,1.0,60.0,2898624426-291546.jpg,2981235446-294900.jpg,3.0,,,,A28OD52SMLYQ16
191,81,,1.0,61.0,2446758985-197609.jpg,2864909447-362144.jpg,2.0,,,,A28OD52SMLYQ16
192,82,,1.0,62.0,2964223381-294447.jpg,2427874231-269884.jpg,1.0,,,,A28OD52SMLYQ16
193,83,,1.0,63.0,2449442529-124446.jpg,2460547536-274178.jpg,3.0,,,,A28OD52SMLYQ16
194,84,,1.0,64.0,2883256307-365057.jpg,2611628310-206388.jpg,1.0,,,,A28OD52SMLYQ16
195,20,,1.0,0.0,2592380177-354626.jpg,2238576792-334659.jpg,1.0,,,,A344BXT88DM2ZH
196,21,,1.0,1.0,2446758985-197609.jpg,2864909447-362144.jpg,2.0,,,,A344BXT88DM2ZH
197,22,,1.0,2.0,2238572663-35822.jpg,2238584894-113161.jpg,1.0,,,,A344BXT88DM2ZH
198,23,,1.0,3.0,2901939379-143479.jpg,2964216376-294181.jpg,3.0,,,,A344BXT88DM2ZH
199,24,,1.0,4.0,2238580740-186218.jpg,2964220333-71258.jpg,3.0,,,,A344BXT88DM2ZH
200,25,,1.0,5.0,2592380177-354629.jpg,2898633421-291974.jpg,1.0,,,,A344BXT88DM2ZH
201,26,,1.0,6.0,2874301407-363895.jpg,2446761374-124213.jpg,1.0,,,,A344BXT88DM2ZH
202,27,,1.0,7.0,2874302418-65979.jpg,2238480648-19714.jpg,2.0,,,,A344BXT88DM2ZH
203,28,,0.0,8.0,left.jpg,,,left,,,A344BXT88DM2ZH
204,29,,1.0,9.0,2592379964-131054.jpg,2575963989-130576.jpg,1.0,,,,A344BXT88DM2ZH
205,30,,1.0,10.0,2898617468-68274.jpg,2901943387-368037.jpg,2.0,,,,A344BXT88DM2ZH
206,31,,1.0,11.0,2452380832-348593.jpg,2237858942-299356.jpg,3.0,,,,A344BXT88DM2ZH
207,32,,1.0,12.0,2981231403-71642.jpg,2427873763-47290.jpg,3.0,,,,A344BXT88DM2ZH
208,33,,1.0,13.0,2874299429-139695.jpg,2446760917-347439.jpg,3.0,,,,A344BXT88DM2ZH
209,34,,1.0,14.0,2986451363-73599.jpg,2860302315-210704.jpg,2.0,,,,A344BXT88DM2ZH
210,35,,1.0,15.0,2460547508-51571.jpg,2452380166-273109.jpg,1.0,,,,A344BXT88DM2ZH
211,36,,1.0,16.0,2874302418-65978.jpg,2898633321-291943.jpg,3.0,,,,A344BXT88DM2ZH
212,37,,1.0,17.0,2864907432-362042.jpg,2901947423-70310.jpg,2.0,,,,A344BXT88DM2ZH
213,38,,1.0,18.0,2883268471-290842.jpg,2883268471-290843.jpg,1.0,,,,A344BXT88DM2ZH
214,39,left,1.0,19.0,left.jpg,,,left,2.072,,A344BXT88DM2ZH
215,40,,1.0,20.0,2238560245-182099.jpg,2238480980-168129.jpg,3.0,,,,A344BXT88DM2ZH
216,41,,1.0,21.0,2238428357-313623.jpg,2238499057-320266.jpg,1.0,,,,A344BXT88DM2ZH
217,42,,1.0,22.0,2460547467-349421.jpg,2981235446-294901.jpg,3.0,,,,A344BXT88DM2ZH
218,43,,1.0,23.0,2512875899-126682.jpg,2986447332-371497.jpg,3.0,,,,A344BXT88DM2ZH
219,44,,1.0,24.0,2874303365-214262.jpg,2238563377-332054.jpg,2.0,,,,A344BXT88DM2ZH
220,45,,1.0,25.0,2901939379-143480.jpg,2981229442-369621.jpg,2.0,,,,A344BXT88DM2ZH
221,46,right,0.0,26.0,left.jpg,,,left,1.6401,,A344BXT88DM2ZH
222,47,,1.0,27.0,2901947423-70311.jpg,2238577590-185467.jpg,3.0,,,,A344BXT88DM2ZH
223,48,,1.0,28.0,2964223381-294447.jpg,2901941438-69836.jpg,2.0,,,,A344BXT88DM2ZH
224,49,,1.0,29.0,2864910426-287204.jpg,2883268412-365899.jpg,2.0,,,,A344BXT88DM2ZH
225,50,,1.0,30.0,2964216465-219242.jpg,2898619327-366362.jpg,3.0,,,,A344BXT88DM2ZH
226,51,,1.0,31.0,2874299429-139694.jpg,2986447306-296584.jpg,1.0,,,,A344BXT88DM2ZH
227,52,,1.0,32.0,2238425482-313537.jpg,2238436322-314047.jpg,2.0,,,,A344BXT88DM2ZH
228,53,,1.0,33.0,2883268412-365898.jpg,2984626312-370849.jpg,1.0,,,,A344BXT88DM2ZH
229,54,,1.0,34.0,2868474407-362883.jpg,2901948383-70363.jpg,3.0,,,,A344BXT88DM2ZH
230,55,,1.0,35.0,2898618390-216538.jpg,2575120609-129862.jpg,3.0,,,,A344BXT88DM2ZH
231,56,,1.0,36.0,2898635427-367120.jpg,2964221435-219434.jpg,1.0,,,,A344BXT88DM2ZH
232,57,,1.0,37.0,2238481198-19822.jpg,2238480803-19737.jpg,3.0,,,,A344BXT88DM2ZH
233,58,,1.0,38.0,2238481928-19949.jpg,2883264367-365620.jpg,1.0,,,,A344BXT88DM2ZH
234,59,,1.0,39.0,2964213381-294060.jpg,2458348012-349114.jpg,2.0,,,,A344BXT88DM2ZH
235,60,,1.0,40.0,2898634397-367080.jpg,2964217461-294238.jpg,3.0,,,,A344BXT88DM2ZH
236,61,,1.0,41.0,2981241414-145842.jpg,2238516618-25604.jpg,1.0,,,,A344BXT88DM2ZH
237,62,,1.0,42.0,2898624426-291546.jpg,2964218432-369263.jpg,1.0,,,,A344BXT88DM2ZH
238,63,,1.0,43.0,2449442529-124446.jpg,2446759803-49251.jpg,1.0,,,,A344BXT88DM2ZH
239,64,left,1.0,44.0,left.jpg,,,left,1.2145,,A344BXT88DM2ZH
240,65,,1.0,45.0,2446759803-49249.jpg,2898618440-216547.jpg,2.0,,,,A344BXT88DM2ZH
241,66,,1.0,46.0,2898633421-291973.jpg,2575118671-277663.jpg,2.0,,,,A344BXT88DM2ZH
242,67,,1.0,47.0,2883256307-365057.jpg,2864904453-63933.jpg,3.0,,,,A344BXT88DM2ZH
243,68,right,1.0,48.0,right.jpg,,,right,0.196,,A344BXT88DM2ZH
244,69,,1.0,49.0,2883273443-68193.jpg,2898627427-366763.jpg,3.0,,,,A344BXT88DM2ZH
245,70,,1.0,50.0,2575120738-55529.jpg,2864906345-212360.jpg,1.0,,,,A344BXT88DM2ZH
246,71,,1.0,51.0,2964218374-144967.jpg,2446759306-271734.jpg,2.0,,,,A344BXT88DM2ZH
247,72,,1.0,52.0,2901941401-292798.jpg,2898631468-68931.jpg,3.0,,,,A344BXT88DM2ZH
248,73,,1.0,53.0,2898618444-142233.jpg,2898618444-142232.jpg,3.0,,,,A344BXT88DM2ZH
249,74,,1.0,54.0,2898635428-69104.jpg,2898625336-291572.jpg,3.0,,,,A344BXT88DM2ZH
250,75,,1.0,55.0,2460547467-349422.jpg,2868487415-213924.jpg,2.0,,,,A344BXT88DM2ZH
251,76,,1.0,56.0,2452381505-199546.jpg,2901938432-367627.jpg,1.0,,,,A344BXT88DM2ZH
252,77,,1.0,57.0,2449442529-124445.jpg,2452380171-273112.jpg,1.0,,,,A344BXT88DM2ZH
253,78,,1.0,58.0,2901952513-70703.jpg,2864907361-287062.jpg,1.0,,,,A344BXT88DM2ZH
254,79,,1.0,59.0,2458347385-199723.jpg,2427874554-121863.jpg,2.0,,,,A344BXT88DM2ZH
255,80,,1.0,60.0,2238480677-317399.jpg,2238573546-258454.jpg,2.0,,,,A344BXT88DM2ZH
256,81,,1.0,61.0,2964222378-71332.jpg,2901933382-367209.jpg,2.0,,,,A344BXT88DM2ZH
257,82,,1.0,62.0,2986451363-73598.jpg,2984628361-295995.jpg,2.0,,,,A344BXT88DM2ZH
258,83,,1.0,63.0,2868475410-213219.jpg,2901946465-218350.jpg,1.0,,,,A344BXT88DM2ZH
259,84,,1.0,64.0,2874307433-66280.jpg,2981246400-220365.jpg,2.0,,,,A344BXT88DM2ZH
260,20,,1.0,0.0,2898618444-142233.jpg,2898631359-142721.jpg,1.0,,,,A2MIFJZZPOCI6
261,21,,1.0,1.0,2868475410-213219.jpg,2238480803-19739.jpg,2.0,,,,A2MIFJZZPOCI6
262,22,,1.0,2.0,2898618390-216538.jpg,2901939327-367670.jpg,2.0,,,,A2MIFJZZPOCI6
263,23,,1.0,3.0,2592379964-131054.jpg,2592380272-354673.jpg,3.0,,,,A2MIFJZZPOCI6
264,24,,1.0,4.0,2981231403-71642.jpg,2427873763-47290.jpg,3.0,,,,A2MIFJZZPOCI6
265,25,,1.0,5.0,2901941401-292798.jpg,2981243412-370222.jpg,2.0,,,,A2MIFJZZPOCI6
266,26,,1.0,6.0,2449442529-124446.jpg,2446759803-49251.jpg,1.0,,,,A2MIFJZZPOCI6
267,27,,1.0,7.0,2964213381-294060.jpg,2981244394-145974.jpg,1.0,,,,A2MIFJZZPOCI6
268,28,right,1.0,8.0,right.jpg,,,right,1.1093,,A2MIFJZZPOCI6
269,29,,1.0,9.0,2874301407-363895.jpg,2446761374-124213.jpg,1.0,,,,A2MIFJZZPOCI6
270,30,,1.0,10.0,2874303365-214262.jpg,2238563377-332054.jpg,2.0,,,,A2MIFJZZPOCI6
271,31,,1.0,11.0,2964216465-219242.jpg,2238544191-252422.jpg,1.0,,,,A2MIFJZZPOCI6
272,32,,1.0,12.0,2964223381-294447.jpg,2901941438-69836.jpg,2.0,,,,A2MIFJZZPOCI6
273,33,,1.0,13.0,2238572663-35822.jpg,2238571930-184143.jpg,2.0,,,,A2MIFJZZPOCI6
274,34,,1.0,14.0,2964222378-71332.jpg,2981240427-370099.jpg,3.0,,,,A2MIFJZZPOCI6
275,35,,1.0,15.0,2883256307-365057.jpg,2864904453-63933.jpg,3.0,,,,A2MIFJZZPOCI6
276,36,,1.0,16.0,2238580740-186218.jpg,2238521193-26285.jpg,2.0,,,,A2MIFJZZPOCI6
277,37,,1.0,17.0,2874302418-65978.jpg,2964224310-219528.jpg,1.0,,,,A2MIFJZZPOCI6
278,38,,1.0,18.0,2460547467-349421.jpg,2452380166-273110.jpg,2.0,,,,A2MIFJZZPOCI6
279,39,,1.0,19.0,2883268471-290842.jpg,2901947448-70314.jpg,3.0,,,,A2MIFJZZPOCI6
280,40,,1.0,20.0,2898635428-69104.jpg,2898625336-291572.jpg,3.0,,,,A2MIFJZZPOCI6
281,41,,1.0,21.0,2874299429-139695.jpg,2446760917-347439.jpg,3.0,,,,A2MIFJZZPOCI6
282,42,,0.0,22.0,right.jpg,,,right,,,A2MIFJZZPOCI6
283,43,,1.0,23.0,2238425482-313537.jpg,2238436322-314047.jpg,2.0,,,,A2MIFJZZPOCI6
284,44,,1.0,24.0,2575120738-55529.jpg,2864906345-212360.jpg,1.0,,,,A2MIFJZZPOCI6
285,45,,1.0,25.0,2592380177-354626.jpg,2238576792-334659.jpg,1.0,,,,A2MIFJZZPOCI6
286,46,,1.0,26.0,2460547467-349422.jpg,2868487415-213924.jpg,2.0,,,,A2MIFJZZPOCI6
287,47,,1.0,27.0,2964218374-144967.jpg,2964218374-144968.jpg,1.0,,,,A2MIFJZZPOCI6
288,48,,1.0,28.0,2864907432-362042.jpg,2989726338-74002.jpg,3.0,,,,A2MIFJZZPOCI6
289,49,,1.0,29.0,2874299429-139694.jpg,2883266367-365742.jpg,3.0,,,,A2MIFJZZPOCI6
290,50,,0.0,30.0,right.jpg,,,right,,,A2MIFJZZPOCI6
291,51,,1.0,31.0,2458347385-199723.jpg,2458347252-348911.jpg,3.0,,,,A2MIFJZZPOCI6
292,52,,1.0,32.0,2981241414-145842.jpg,2238516618-25604.jpg,1.0,,,,A2MIFJZZPOCI6
293,53,,1.0,33.0,2512875899-126682.jpg,2592380177-354628.jpg,2.0,,,,A2MIFJZZPOCI6
294,54,,1.0,34.0,2901939379-143479.jpg,2964216376-294181.jpg,3.0,,,,A2MIFJZZPOCI6
295,55,,1.0,35.0,2883268412-365898.jpg,2984615361-295510.jpg,2.0,,,,A2MIFJZZPOCI6
296,56,,1.0,36.0,2901947423-70311.jpg,2860312398-62572.jpg,1.0,,,,A2MIFJZZPOCI6
297,57,,1.0,37.0,2986451363-73598.jpg,2901942443-69925.jpg,3.0,,,,A2MIFJZZPOCI6
298,58,,1.0,38.0,2901952513-70703.jpg,2238481198-19821.jpg,3.0,,,,A2MIFJZZPOCI6
299,59,,1.0,39.0,2449442529-124445.jpg,2452380171-273112.jpg,1.0,,,,A2MIFJZZPOCI6
300,60,,1.0,40.0,2898633421-291973.jpg,2575118671-277663.jpg,2.0,,,,A2MIFJZZPOCI6
301,61,,1.0,41.0,2898635427-367120.jpg,2964221435-219434.jpg,1.0,,,,A2MIFJZZPOCI6
302,62,,1.0,42.0,2238481928-19949.jpg,2864900357-361688.jpg,2.0,,,,A2MIFJZZPOCI6
303,63,,0.0,43.0,right.jpg,,,right,,,A2MIFJZZPOCI6
304,64,,1.0,44.0,2452380832-348593.jpg,2238328478-11678.jpg,1.0,,,,A2MIFJZZPOCI6
305,65,,1.0,45.0,2898624426-291546.jpg,2981235446-294900.jpg,3.0,,,,A2MIFJZZPOCI6
306,66,left,1.0,46.0,left.jpg,,,left,2.4899,,A2MIFJZZPOCI6
307,67,,1.0,47.0,2592380177-354629.jpg,2579432534-130704.jpg,2.0,,,,A2MIFJZZPOCI6
308,68,,1.0,48.0,2238560245-182099.jpg,2592380255-205553.jpg,1.0,,,,A2MIFJZZPOCI6
309,69,,1.0,49.0,2460547508-51571.jpg,2901941438-69835.jpg,3.0,,,,A2MIFJZZPOCI6
310,70,,1.0,50.0,2898617468-68274.jpg,2964207374-144577.jpg,3.0,,,,A2MIFJZZPOCI6
311,71,,1.0,51.0,2986451363-73599.jpg,2898626385-216899.jpg,1.0,,,,A2MIFJZZPOCI6
312,72,,1.0,52.0,2874302418-65979.jpg,2237857458-1325.jpg,1.0,,,,A2MIFJZZPOCI6
313,73,,1.0,53.0,2874307433-66280.jpg,2981246400-220365.jpg,2.0,,,,A2MIFJZZPOCI6
314,74,,1.0,54.0,2446758985-197609.jpg,2864909447-362144.jpg,2.0,,,,A2MIFJZZPOCI6
315,75,,1.0,55.0,2238480677-317399.jpg,2238480278-19661.jpg,3.0,,,,A2MIFJZZPOCI6
316,76,,1.0,56.0,2452381505-199546.jpg,2901938432-367627.jpg,1.0,,,,A2MIFJZZPOCI6
317,77,,1.0,57.0,2898634397-367080.jpg,2964217461-294238.jpg,3.0,,,,A2MIFJZZPOCI6
318,78,,1.0,58.0,2864910426-287204.jpg,2901939433-69672.jpg,3.0,,,,A2MIFJZZPOCI6
319,79,,1.0,59.0,2868474407-362883.jpg,2981246400-220363.jpg,2.0,,,,A2MIFJZZPOCI6
320,80,,1.0,60.0,2883273443-68193.jpg,2883254439-140940.jpg,1.0,,,,A2MIFJZZPOCI6
321,81,,1.0,61.0,2238481198-19822.jpg,2901946436-293242.jpg,2.0,,,,A2MIFJZZPOCI6
322,82,,1.0,62.0,2446759803-49249.jpg,2901951392-368654.jpg,3.0,,,,A2MIFJZZPOCI6
323,83,,1.0,63.0,2901939379-143480.jpg,2901942428-69919.jpg,1.0,,,,A2MIFJZZPOCI6
324,84,,1.0,64.0,2238428357-313623.jpg,2984615361-295509.jpg,2.0,,,,A2MIFJZZPOCI6
325,20,,1.0,0.0,2592380177-354629.jpg,2898633421-291974.jpg,1.0,,,,A3N5E6HZDBRFNC
326,21,,1.0,1.0,2512875899-126682.jpg,2460547536-274179.jpg,1.0,,,,A3N5E6HZDBRFNC
327,22,,1.0,2.0,2898618444-142233.jpg,2898618444-142232.jpg,3.0,,,,A3N5E6HZDBRFNC
328,23,,1.0,3.0,2964218374-144967.jpg,2964218374-144968.jpg,1.0,,,,A3N5E6HZDBRFNC
329,24,,1.0,4.0,2452381505-199546.jpg,2898632385-217138.jpg,2.0,,,,A3N5E6HZDBRFNC
330,25,,1.0,5.0,2898618390-216538.jpg,2575120609-129862.jpg,3.0,,,,A3N5E6HZDBRFNC
331,26,,1.0,6.0,2238428357-313623.jpg,2238499057-320266.jpg,1.0,,,,A3N5E6HZDBRFNC
332,27,,1.0,7.0,2868474407-362883.jpg,2460547732-349518.jpg,1.0,,,,A3N5E6HZDBRFNC
333,28,,1.0,8.0,2901939379-143479.jpg,2446758985-197610.jpg,2.0,,,,A3N5E6HZDBRFNC
334,29,,1.0,9.0,2898633421-291973.jpg,2238550049-105691.jpg,3.0,,,,A3N5E6HZDBRFNC
335,30,,1.0,10.0,2238480677-317399.jpg,2238480278-19661.jpg,3.0,,,,A3N5E6HZDBRFNC
336,31,left,1.0,11.0,left.jpg,,,left,1.207,,A3N5E6HZDBRFNC
337,32,,1.0,12.0,2874301407-363895.jpg,2986397322-371109.jpg,2.0,,,,A3N5E6HZDBRFNC
338,33,,1.0,13.0,2238425482-313537.jpg,2898633480-217190.jpg,3.0,,,,A3N5E6HZDBRFNC
339,34,,1.0,14.0,2898634397-367080.jpg,2901934408-69289.jpg,2.0,,,,A3N5E6HZDBRFNC
340,35,,1.0,15.0,2460547467-349421.jpg,2452380166-273110.jpg,2.0,,,,A3N5E6HZDBRFNC
341,36,,1.0,16.0,2452380832-348593.jpg,2237858942-299356.jpg,3.0,,,,A3N5E6HZDBRFNC
342,37,left,1.0,17.0,left.jpg,,,left,0.92,,A3N5E6HZDBRFNC
343,38,,1.0,18.0,2901947423-70311.jpg,2238573447-333826.jpg,2.0,,,,A3N5E6HZDBRFNC
344,39,,1.0,19.0,2883268412-365898.jpg,2238436252-314037.jpg,3.0,,,,A3N5E6HZDBRFNC
345,40,,1.0,20.0,2898617468-68274.jpg,2964207374-144577.jpg,3.0,,,,A3N5E6HZDBRFNC
346,41,,1.0,21.0,2238560245-182099.jpg,2874314526-289684.jpg,2.0,,,,A3N5E6HZDBRFNC
347,42,,1.0,22.0,2901941401-292798.jpg,2898618327-366317.jpg,1.0,,,,A3N5E6HZDBRFNC
348,43,,1.0,23.0,2883256307-365057.jpg,2964210336-293945.jpg,2.0,,,,A3N5E6HZDBRFNC
349,44,,1.0,24.0,2575120738-55529.jpg,2864906345-212360.jpg,1.0,,,,A3N5E6HZDBRFNC
350,45,,1.0,25.0,2460547467-349422.jpg,2898618440-216545.jpg,1.0,,,,A3N5E6HZDBRFNC
351,46,,1.0,26.0,2898635427-367120.jpg,2898621427-366486.jpg,3.0,,,,A3N5E6HZDBRFNC
352,47,right,1.0,27.0,right.jpg,,,right,1.041,,A3N5E6HZDBRFNC
353,48,,1.0,28.0,2874302418-65979.jpg,2238480648-19714.jpg,2.0,,,,A3N5E6HZDBRFNC
354,49,,1.0,29.0,2449442529-124446.jpg,2446759803-49251.jpg,1.0,,,,A3N5E6HZDBRFNC
355,50,,1.0,30.0,2238481198-19822.jpg,2238480803-19737.jpg,3.0,,,,A3N5E6HZDBRFNC
356,51,,1.0,31.0,2446759803-49249.jpg,2901951392-368654.jpg,3.0,,,,A3N5E6HZDBRFNC
357,52,,1.0,32.0,2864907432-362042.jpg,2864901420-212147.jpg,1.0,,,,A3N5E6HZDBRFNC
358,53,,1.0,33.0,2874302418-65978.jpg,2898633321-291943.jpg,3.0,,,,A3N5E6HZDBRFNC
359,54,,1.0,34.0,2460547508-51571.jpg,2981232437-369759.jpg,2.0,,,,A3N5E6HZDBRFNC
360,55,,1.0,35.0,2238481928-19949.jpg,2864900357-361688.jpg,2.0,,,,A3N5E6HZDBRFNC
361,56,,1.0,36.0,2238580740-186218.jpg,2238550816-254000.jpg,1.0,,,,A3N5E6HZDBRFNC
362,57,,1.0,37.0,2964213381-294060.jpg,2458348012-349114.jpg,2.0,,,,A3N5E6HZDBRFNC
363,58,,1.0,38.0,2874299429-139694.jpg,2986447306-296584.jpg,1.0,,,,A3N5E6HZDBRFNC
364,59,,1.0,39.0,2449442529-124445.jpg,2898632385-217137.jpg,3.0,,,,A3N5E6HZDBRFNC
365,60,left,1.0,40.0,left.jpg,,,left,1.076,,A3N5E6HZDBRFNC
366,61,,1.0,41.0,2868475410-213219.jpg,2901946465-218350.jpg,1.0,,,,A3N5E6HZDBRFNC
367,62,,1.0,42.0,2898624426-291546.jpg,2981235446-294900.jpg,3.0,,,,A3N5E6HZDBRFNC
368,63,,1.0,43.0,2986451363-73599.jpg,2238434559-90406.jpg,3.0,,,,A3N5E6HZDBRFNC
369,64,,1.0,44.0,2964216465-219242.jpg,2864900319-137787.jpg,2.0,,,,A3N5E6HZDBRFNC
370,65,,1.0,45.0,2883268471-290842.jpg,2883255450-215310.jpg,2.0,,,,A3N5E6HZDBRFNC
371,66,,1.0,46.0,2458347385-199723.jpg,2458347252-348911.jpg,3.0,,,,A3N5E6HZDBRFNC
372,67,,1.0,47.0,2592379964-131054.jpg,2575963989-130576.jpg,1.0,,,,A3N5E6HZDBRFNC
373,68,right,1.0,48.0,right.jpg,,,right,1.014,,A3N5E6HZDBRFNC
374,69,,1.0,49.0,2986451363-73598.jpg,2237857458-1324.jpg,1.0,,,,A3N5E6HZDBRFNC
375,70,,1.0,50.0,2898635428-69104.jpg,2901943411-292945.jpg,2.0,,,,A3N5E6HZDBRFNC
376,71,,1.0,51.0,2883273443-68193.jpg,2883254439-140940.jpg,1.0,,,,A3N5E6HZDBRFNC
377,72,,1.0,52.0,2981231403-71642.jpg,2874305405-214397.jpg,2.0,,,,A3N5E6HZDBRFNC
378,73,,1.0,53.0,2446758985-197609.jpg,2864909447-362144.jpg,2.0,,,,A3N5E6HZDBRFNC
379,74,,1.0,54.0,2592380177-354626.jpg,2238576792-334659.jpg,1.0,,,,A3N5E6HZDBRFNC
380,75,,1.0,55.0,2874299429-139695.jpg,2446760917-347439.jpg,3.0,,,,A3N5E6HZDBRFNC
381,76,,1.0,56.0,2981241414-145842.jpg,2238516618-25604.jpg,1.0,,,,A3N5E6HZDBRFNC
382,77,,1.0,57.0,2901952513-70703.jpg,2238481198-19821.jpg,3.0,,,,A3N5E6HZDBRFNC
383,78,,1.0,58.0,2864910426-287204.jpg,2864902304-137862.jpg,1.0,,,,A3N5E6HZDBRFNC
384,79,,1.0,59.0,2238572663-35822.jpg,2238584894-113161.jpg,1.0,,,,A3N5E6HZDBRFNC
385,80,,1.0,60.0,2964223381-294447.jpg,2898628438-68785.jpg,3.0,,,,A3N5E6HZDBRFNC
386,81,,1.0,61.0,2964222378-71332.jpg,2901933382-367209.jpg,2.0,,,,A3N5E6HZDBRFNC
387,82,,1.0,62.0,2901939379-143480.jpg,2981229442-369621.jpg,2.0,,,,A3N5E6HZDBRFNC
388,83,,1.0,63.0,2874303365-214262.jpg,2864911457-362260.jpg,3.0,,,,A3N5E6HZDBRFNC
389,84,,1.0,64.0,2874307433-66280.jpg,2981246400-220365.jpg,2.0,,,,A3N5E6HZDBRFNC
390,20,,1.0,0.0,2874302418-65979.jpg,2238480648-19714.jpg,2.0,,,,A287I4G1Q0K003
391,21,,1.0,1.0,2446758985-197609.jpg,2981240424-145795.jpg,1.0,,,,A287I4G1Q0K003
392,22,,1.0,2.0,2898624426-291546.jpg,2964218432-369263.jpg,1.0,,,,A287I4G1Q0K003
393,23,,1.0,3.0,2901941401-292798.jpg,2898618327-366317.jpg,1.0,,,,A287I4G1Q0K003
394,24,,1.0,4.0,2901939379-143480.jpg,2898632385-217139.jpg,3.0,,,,A287I4G1Q0K003
395,25,,1.0,5.0,2868475410-213219.jpg,2901946465-218350.jpg,1.0,,,,A287I4G1Q0K003
396,26,,1.0,6.0,2460547467-349422.jpg,2868487415-213924.jpg,2.0,,,,A287I4G1Q0K003
397,27,,1.0,7.0,2458347385-199723.jpg,2427874554-121863.jpg,2.0,,,,A287I4G1Q0K003
398,28,,1.0,8.0,2874302418-65978.jpg,2898633321-291943.jpg,3.0,,,,A287I4G1Q0K003
399,29,,1.0,9.0,2898618444-142233.jpg,2898631359-142721.jpg,1.0,,,,A287I4G1Q0K003
400,30,,1.0,10.0,2901939379-143479.jpg,2460547467-349423.jpg,1.0,,,,A287I4G1Q0K003
401,31,,1.0,11.0,2898634397-367080.jpg,2901934408-69289.jpg,2.0,,,,A287I4G1Q0K003
402,32,,1.0,12.0,2238572663-35822.jpg,2238584894-113161.jpg,1.0,,,,A287I4G1Q0K003
403,33,,1.0,13.0,2238428357-313623.jpg,2238499057-320266.jpg,1.0,,,,A287I4G1Q0K003
404,34,,0.0,14.0,right.jpg,,,right,,,A287I4G1Q0K003
405,35,,1.0,15.0,2446759803-49249.jpg,2446760601-272099.jpg,1.0,,,,A287I4G1Q0K003
406,36,,1.0,16.0,2864907432-362042.jpg,2864901420-212147.jpg,1.0,,,,A287I4G1Q0K003
407,37,,1.0,17.0,2449442529-124445.jpg,2986408373-73286.jpg,2.0,,,,A287I4G1Q0K003
408,38,,1.0,18.0,2592379964-131054.jpg,2575963989-130576.jpg,1.0,,,,A287I4G1Q0K003
409,39,,1.0,19.0,2460547467-349421.jpg,2452380166-273110.jpg,2.0,,,,A287I4G1Q0K003
410,40,,1.0,20.0,2592380177-354626.jpg,2238576792-334659.jpg,1.0,,,,A287I4G1Q0K003
411,41,,1.0,21.0,2981241414-145842.jpg,2427873848-47312.jpg,3.0,,,,A287I4G1Q0K003
412,42,,0.0,22.0,right.jpg,,,right,,,A287I4G1Q0K003
413,43,,1.0,23.0,2452381505-199546.jpg,2994401319-148290.jpg,3.0,,,,A287I4G1Q0K003
414,44,,1.0,24.0,2238480677-317399.jpg,2238481630-168218.jpg,1.0,,,,A287I4G1Q0K003
415,45,,1.0,25.0,2874307433-66280.jpg,2981246400-220365.jpg,2.0,,,,A287I4G1Q0K003
416,46,,1.0,26.0,2964218374-144967.jpg,2446759306-271734.jpg,2.0,,,,A287I4G1Q0K003
417,47,,1.0,27.0,2898635428-69104.jpg,2446759803-49250.jpg,1.0,,,,A287I4G1Q0K003
418,48,,0.0,28.0,left.jpg,,,left,,,A287I4G1Q0K003
419,49,,1.0,29.0,2883268471-290842.jpg,2883268471-290843.jpg,1.0,,,,A287I4G1Q0K003
420,50,,1.0,30.0,2883256307-365057.jpg,2864904453-63933.jpg,3.0,,,,A287I4G1Q0K003
421,51,,1.0,31.0,2964216465-219242.jpg,2864900319-137787.jpg,2.0,,,,A287I4G1Q0K003
422,52,,1.0,32.0,2964223381-294447.jpg,2901941438-69836.jpg,2.0,,,,A287I4G1Q0K003
423,53,,1.0,33.0,2874299429-139694.jpg,2981244403-72215.jpg,2.0,,,,A287I4G1Q0K003
424,54,,1.0,34.0,2898633421-291973.jpg,2575118671-277663.jpg,2.0,,,,A287I4G1Q0K003
425,55,,1.0,35.0,2981231403-71642.jpg,2874305405-214397.jpg,2.0,,,,A287I4G1Q0K003
426,56,,1.0,36.0,2986451363-73598.jpg,2984628361-295995.jpg,2.0,,,,A287I4G1Q0K003
427,57,,1.0,37.0,2238481198-19822.jpg,2862691449-137104.jpg,1.0,,,,A287I4G1Q0K003
428,58,,1.0,38.0,2898618390-216538.jpg,2237856148-989.jpg,1.0,,,,A287I4G1Q0K003
429,59,,1.0,39.0,2868474407-362883.jpg,2901948383-70363.jpg,3.0,,,,A287I4G1Q0K003
430,60,,1.0,40.0,2874299429-139695.jpg,2901942443-69923.jpg,2.0,,,,A287I4G1Q0K003
431,61,,1.0,41.0,2986451363-73599.jpg,2898626385-216899.jpg,1.0,,,,A287I4G1Q0K003
432,62,,1.0,42.0,2512875899-126682.jpg,2460547536-274179.jpg,1.0,,,,A287I4G1Q0K003
433,63,,0.0,43.0,right.jpg,,,right,,,A287I4G1Q0K003
434,64,,1.0,44.0,2238425482-313537.jpg,2238436322-314047.jpg,2.0,,,,A287I4G1Q0K003
435,65,,1.0,45.0,2238580740-186218.jpg,2238521193-26285.jpg,2.0,,,,A287I4G1Q0K003
436,66,,1.0,46.0,2592380177-354629.jpg,2512875587-350044.jpg,3.0,,,,A287I4G1Q0K003
437,67,,1.0,47.0,2874301407-363895.jpg,2446761374-124213.jpg,1.0,,,,A287I4G1Q0K003
438,68,,1.0,48.0,2901947423-70311.jpg,2238573447-333826.jpg,2.0,,,,A287I4G1Q0K003
439,69,,1.0,49.0,2460547508-51571.jpg,2901941438-69835.jpg,3.0,,,,A287I4G1Q0K003
440,70,,1.0,50.0,2452380832-348593.jpg,2237858942-299356.jpg,3.0,,,,A287I4G1Q0K003
441,71,,1.0,51.0,2898635427-367120.jpg,2898621427-366486.jpg,3.0,,,,A287I4G1Q0K003
442,72,,1.0,52.0,2238560245-182099.jpg,2238480980-168129.jpg,3.0,,,,A287I4G1Q0K003
443,73,,1.0,53.0,2883268412-365898.jpg,2238436252-314037.jpg,3.0,,,,A287I4G1Q0K003
444,74,,0.0,54.0,right.jpg,,,right,,,A287I4G1Q0K003
445,75,,1.0,55.0,2898617468-68274.jpg,2964207374-144577.jpg,3.0,,,,A287I4G1Q0K003
446,76,,1.0,56.0,2964213381-294060.jpg,2964213381-294061.jpg,3.0,,,,A287I4G1Q0K003
447,77,,1.0,57.0,2864910426-287204.jpg,2901939433-69672.jpg,3.0,,,,A287I4G1Q0K003
448,78,,1.0,58.0,2901952513-70703.jpg,2868469411-287540.jpg,2.0,,,,A287I4G1Q0K003
449,79,,1.0,59.0,2964222378-71332.jpg,2901933382-367209.jpg,2.0,,,,A287I4G1Q0K003
450,80,,1.0,60.0,2883273443-68193.jpg,2898627427-366763.jpg,3.0,,,,A287I4G1Q0K003
451,81,,1.0,61.0,2449442529-124446.jpg,2460547536-274178.jpg,3.0,,,,A287I4G1Q0K003
452,82,,1.0,62.0,2238481928-19949.jpg,2981241419-145844.jpg,3.0,,,,A287I4G1Q0K003
453,83,,1.0,63.0,2874303365-214262.jpg,2864911457-362260.jpg,3.0,,,,A287I4G1Q0K003
454,84,,1.0,64.0,2575120738-55529.jpg,2238531493-28260.jpg,3.0,,,,A287I4G1Q0K003
455,20,,1.0,0.0,2898624426-291546.jpg,2981236443-71859.jpg,2.0,,,,A1YGV1J2URRQDG
456,21,,1.0,1.0,2238572663-35822.jpg,2238571930-184143.jpg,2.0,,,,A1YGV1J2URRQDG
457,22,,1.0,2.0,2964213381-294060.jpg,2964213381-294061.jpg,3.0,,,,A1YGV1J2URRQDG
458,23,,1.0,3.0,2592380177-354626.jpg,2864901386-286797.jpg,2.0,,,,A1YGV1J2URRQDG
459,24,,1.0,4.0,2449442529-124446.jpg,2460547536-274178.jpg,3.0,,,,A1YGV1J2URRQDG
460,25,,1.0,5.0,2964218374-144967.jpg,2446759306-271734.jpg,2.0,,,,A1YGV1J2URRQDG
461,26,,0.0,6.0,left.jpg,,,left,,,A1YGV1J2URRQDG
462,27,,1.0,7.0,2874302418-65979.jpg,2238480648-19714.jpg,2.0,,,,A1YGV1J2URRQDG
463,28,,1.0,8.0,2986451363-73598.jpg,2901942443-69925.jpg,3.0,,,,A1YGV1J2URRQDG
464,29,,1.0,9.0,2452381505-199546.jpg,2898632385-217138.jpg,2.0,,,,A1YGV1J2URRQDG
465,30,,1.0,10.0,2864907432-362042.jpg,2989726338-74002.jpg,3.0,,,,A1YGV1J2URRQDG
466,31,,1.0,11.0,2460547508-51571.jpg,2452380166-273109.jpg,1.0,,,,A1YGV1J2URRQDG
467,32,,1.0,12.0,2964222378-71332.jpg,2981240424-145794.jpg,1.0,,,,A1YGV1J2URRQDG
468,33,,1.0,13.0,2986451363-73599.jpg,2898626385-216899.jpg,1.0,,,,A1YGV1J2URRQDG
469,34,,1.0,14.0,2238480677-317399.jpg,2238573546-258454.jpg,2.0,,,,A1YGV1J2URRQDG
470,35,,1.0,15.0,2874303365-214262.jpg,2274829821-263682.jpg,1.0,,,,A1YGV1J2URRQDG
471,36,,1.0,16.0,2901939379-143479.jpg,2446758985-197610.jpg,2.0,,,,A1YGV1J2URRQDG
472,37,,1.0,17.0,2874302418-65978.jpg,2238481198-19823.jpg,2.0,,,,A1YGV1J2URRQDG
473,38,,1.0,18.0,2452380832-348593.jpg,2237858942-299356.jpg,3.0,,,,A1YGV1J2URRQDG
474,39,,1.0,19.0,2901941401-292798.jpg,2898618327-366317.jpg,1.0,,,,A1YGV1J2URRQDG
475,40,,1.0,20.0,2868475410-213219.jpg,2868474407-362885.jpg,3.0,,,,A1YGV1J2URRQDG
476,41,,0.0,21.0,left.jpg,,,left,,,A1YGV1J2URRQDG
477,42,,1.0,22.0,2898635427-367120.jpg,2964221435-219434.jpg,1.0,,,,A1YGV1J2URRQDG
478,43,,1.0,23.0,2964216465-219242.jpg,2898619327-366362.jpg,3.0,,,,A1YGV1J2URRQDG
479,44,,1.0,24.0,2901947423-70311.jpg,2238577590-185467.jpg,3.0,,,,A1YGV1J2URRQDG
480,45,,1.0,25.0,2449442529-124445.jpg,2898632385-217137.jpg,3.0,,,,A1YGV1J2URRQDG
481,46,,1.0,26.0,2238481198-19822.jpg,2862691449-137104.jpg,1.0,,,,A1YGV1J2URRQDG
482,47,,1.0,27.0,2592380177-354629.jpg,2898633421-291974.jpg,1.0,,,,A1YGV1J2URRQDG
483,48,,1.0,28.0,2868474407-362883.jpg,2901948383-70363.jpg,3.0,,,,A1YGV1J2URRQDG
484,49,,1.0,29.0,2883268471-290842.jpg,2901947448-70314.jpg,3.0,,,,A1YGV1J2URRQDG
485,50,,1.0,30.0,2898635428-69104.jpg,2446759803-49250.jpg,1.0,,,,A1YGV1J2URRQDG
486,51,,1.0,31.0,2901939379-143480.jpg,2898632385-217139.jpg,3.0,,,,A1YGV1J2URRQDG
487,52,,1.0,32.0,2898634397-367080.jpg,2964217461-294238.jpg,3.0,,,,A1YGV1J2URRQDG
488,53,,0.0,33.0,left.jpg,,,left,,,A1YGV1J2URRQDG
489,54,,1.0,34.0,2238481928-19949.jpg,2864900357-361688.jpg,2.0,,,,A1YGV1J2URRQDG
490,55,,1.0,35.0,2238580740-186218.jpg,2238550816-254000.jpg,1.0,,,,A1YGV1J2URRQDG
491,56,,1.0,36.0,2864910426-287204.jpg,2883268412-365899.jpg,2.0,,,,A1YGV1J2URRQDG
492,57,,1.0,37.0,2883256307-365057.jpg,2964210336-293945.jpg,2.0,,,,A1YGV1J2URRQDG
493,58,,0.0,38.0,left.jpg,,,left,,,A1YGV1J2URRQDG
494,59,,1.0,39.0,2901952513-70703.jpg,2864907361-287062.jpg,1.0,,,,A1YGV1J2URRQDG
495,60,,1.0,40.0,2446759803-49249.jpg,2901951392-368654.jpg,3.0,,,,A1YGV1J2URRQDG
496,61,,1.0,41.0,2898618390-216538.jpg,2901939327-367670.jpg,2.0,,,,A1YGV1J2URRQDG
497,62,,1.0,42.0,2238560245-182099.jpg,2592380255-205553.jpg,1.0,,,,A1YGV1J2URRQDG
498,63,,1.0,43.0,2883273443-68193.jpg,2883254439-140940.jpg,1.0,,,,A1YGV1J2URRQDG
499,64,,1.0,44.0,2458347385-199723.jpg,2427874554-121863.jpg,2.0,,,,A1YGV1J2URRQDG
500,65,,1.0,45.0,2883268412-365898.jpg,2238436252-314037.jpg,3.0,,,,A1YGV1J2URRQDG
501,66,,0.0,46.0,right.jpg,,,right,,,A1YGV1J2URRQDG
502,67,,1.0,47.0,2981241414-145842.jpg,2874301404-139813.jpg,2.0,,,,A1YGV1J2URRQDG
503,68,,1.0,48.0,2981231403-71642.jpg,2874305405-214397.jpg,2.0,,,,A1YGV1J2URRQDG
504,69,,1.0,49.0,2575120738-55529.jpg,2575120738-55528.jpg,2.0,,,,A1YGV1J2URRQDG
505,70,,1.0,50.0,2446758985-197609.jpg,2981240424-145795.jpg,1.0,,,,A1YGV1J2URRQDG
506,71,,1.0,51.0,2874301407-363895.jpg,2446761374-124213.jpg,1.0,,,,A1YGV1J2URRQDG
507,72,,1.0,52.0,2874299429-139695.jpg,2446760917-347439.jpg,3.0,,,,A1YGV1J2URRQDG
508,73,,1.0,53.0,2898618444-142233.jpg,2898631359-142721.jpg,1.0,,,,A1YGV1J2URRQDG
509,74,,1.0,54.0,2898617468-68274.jpg,2964207374-144577.jpg,3.0,,,,A1YGV1J2URRQDG
510,75,,1.0,55.0,2460547467-349421.jpg,2981235446-294901.jpg,3.0,,,,A1YGV1J2URRQDG
511,76,,1.0,56.0,2874307433-66280.jpg,2984615358-72439.jpg,1.0,,,,A1YGV1J2URRQDG
512,77,,1.0,57.0,2874299429-139694.jpg,2883266367-365742.jpg,3.0,,,,A1YGV1J2URRQDG
513,78,,1.0,58.0,2238425482-313537.jpg,2238471391-240918.jpg,1.0,,,,A1YGV1J2URRQDG
514,79,,1.0,59.0,2238428357-313623.jpg,2238499057-320266.jpg,1.0,,,,A1YGV1J2URRQDG
515,80,,1.0,60.0,2592379964-131054.jpg,2592380272-354673.jpg,3.0,,,,A1YGV1J2URRQDG
516,81,,1.0,61.0,2898633421-291973.jpg,2575118671-277663.jpg,2.0,,,,A1YGV1J2URRQDG
517,82,,1.0,62.0,2460547467-349422.jpg,2868487415-213924.jpg,2.0,,,,A1YGV1J2URRQDG
518,83,,1.0,63.0,2964223381-294447.jpg,2427874231-269884.jpg,1.0,,,,A1YGV1J2URRQDG
519,84,,1.0,64.0,2512875899-126682.jpg,2592380177-354628.jpg,2.0,,,,A1YGV1J2URRQDG
520,20,,1.0,0.0,2238425482-313537.jpg,2898633480-217190.jpg,3.0,,,,A1AW4WCRVLE1C6
521,21,,1.0,1.0,2986451363-73599.jpg,2238434559-90406.jpg,3.0,,,,A1AW4WCRVLE1C6
522,22,,1.0,2.0,2874303365-214262.jpg,2864911457-362260.jpg,3.0,,,,A1AW4WCRVLE1C6
523,23,,1.0,3.0,2460547467-349421.jpg,2452380166-273110.jpg,2.0,,,,A1AW4WCRVLE1C6
524,24,,1.0,4.0,2512875899-126682.jpg,2592380177-354628.jpg,2.0,,,,A1AW4WCRVLE1C6
525,25,,1.0,5.0,2901941401-292798.jpg,2898631468-68931.jpg,3.0,,,,A1AW4WCRVLE1C6
526,26,,1.0,6.0,2864907432-362042.jpg,2989726338-74002.jpg,3.0,,,,A1AW4WCRVLE1C6
527,27,right,1.0,7.0,right.jpg,,,right,1.4756,,A1AW4WCRVLE1C6
528,28,,1.0,8.0,2898624426-291546.jpg,2964218432-369263.jpg,1.0,,,,A1AW4WCRVLE1C6
529,29,,1.0,9.0,2901939379-143480.jpg,2901942428-69919.jpg,1.0,,,,A1AW4WCRVLE1C6
530,30,,1.0,10.0,2883268412-365898.jpg,2238436252-314037.jpg,3.0,,,,A1AW4WCRVLE1C6
531,31,,1.0,11.0,2981241414-145842.jpg,2874301404-139813.jpg,2.0,,,,A1AW4WCRVLE1C6
532,32,,1.0,12.0,2964222378-71332.jpg,2981240424-145794.jpg,1.0,,,,A1AW4WCRVLE1C6
533,33,,1.0,13.0,2238572663-35822.jpg,2238571930-184143.jpg,2.0,,,,A1AW4WCRVLE1C6
534,34,,1.0,14.0,2898635427-367120.jpg,2964221435-219434.jpg,1.0,,,,A1AW4WCRVLE1C6
535,35,,1.0,15.0,2238481928-19949.jpg,2883264367-365620.jpg,1.0,,,,A1AW4WCRVLE1C6
536,36,,1.0,16.0,2964223381-294447.jpg,2898628438-68785.jpg,3.0,,,,A1AW4WCRVLE1C6
537,37,,1.0,17.0,2868475410-213219.jpg,2901946465-218350.jpg,1.0,,,,A1AW4WCRVLE1C6
538,38,,0.0,18.0,left.jpg,,,left,,,A1AW4WCRVLE1C6
539,39,,1.0,19.0,2901952513-70703.jpg,2868469411-287540.jpg,2.0,,,,A1AW4WCRVLE1C6
540,40,,1.0,20.0,2898634397-367080.jpg,2964217461-294238.jpg,3.0,,,,A1AW4WCRVLE1C6
541,41,,1.0,21.0,2874307433-66280.jpg,2984615358-72439.jpg,1.0,,,,A1AW4WCRVLE1C6
542,42,,1.0,22.0,2874302418-65978.jpg,2238481198-19823.jpg,2.0,,,,A1AW4WCRVLE1C6
543,43,,1.0,23.0,2449442529-124446.jpg,2460547536-274181.jpg,2.0,,,,A1AW4WCRVLE1C6
544,44,,1.0,24.0,2901939379-143479.jpg,2446758985-197610.jpg,2.0,,,,A1AW4WCRVLE1C6
545,45,,1.0,25.0,2446758985-197609.jpg,2864909447-362144.jpg,2.0,,,,A1AW4WCRVLE1C6
546,46,,1.0,26.0,2883256307-365057.jpg,2611628310-206388.jpg,1.0,,,,A1AW4WCRVLE1C6
547,47,,1.0,27.0,2981231403-71642.jpg,2874305405-214397.jpg,2.0,,,,A1AW4WCRVLE1C6
548,48,right,1.0,28.0,right.jpg,,,right,1.2634,,A1AW4WCRVLE1C6
549,49,,1.0,29.0,2986451363-73598.jpg,2237857458-1324.jpg,1.0,,,,A1AW4WCRVLE1C6
550,50,,1.0,30.0,2883268471-290842.jpg,2883255450-215310.jpg,2.0,,,,A1AW4WCRVLE1C6
551,51,,1.0,31.0,2449442529-124445.jpg,2898632385-217137.jpg,3.0,,,,A1AW4WCRVLE1C6
552,52,,1.0,32.0,2868474407-362883.jpg,2460547732-349518.jpg,1.0,,,,A1AW4WCRVLE1C6
553,53,,1.0,33.0,2238428357-313623.jpg,2986408339-146952.jpg,3.0,,,,A1AW4WCRVLE1C6
554,54,,1.0,34.0,2575120738-55529.jpg,2238531493-28260.jpg,3.0,,,,A1AW4WCRVLE1C6
555,55,,1.0,35.0,2446759803-49249.jpg,2898618440-216547.jpg,2.0,,,,A1AW4WCRVLE1C6
556,56,,1.0,36.0,2898618390-216538.jpg,2237856148-989.jpg,1.0,,,,A1AW4WCRVLE1C6
557,57,,1.0,37.0,2883273443-68193.jpg,2898627427-366763.jpg,3.0,,,,A1AW4WCRVLE1C6
558,58,,1.0,38.0,2874301407-363895.jpg,2986397322-371109.jpg,2.0,,,,A1AW4WCRVLE1C6
559,59,,1.0,39.0,2238580740-186218.jpg,2238550816-254000.jpg,1.0,,,,A1AW4WCRVLE1C6
560,60,,1.0,40.0,2592380177-354629.jpg,2579432534-130704.jpg,2.0,,,,A1AW4WCRVLE1C6
561,61,left,1.0,41.0,left.jpg,,,left,1.2436,,A1AW4WCRVLE1C6
562,62,,1.0,42.0,2452381505-199546.jpg,2994401319-148290.jpg,3.0,,,,A1AW4WCRVLE1C6
563,63,,1.0,43.0,2964216465-219242.jpg,2238544191-252422.jpg,1.0,,,,A1AW4WCRVLE1C6
564,64,,1.0,44.0,2238560245-182099.jpg,2874314526-289684.jpg,2.0,,,,A1AW4WCRVLE1C6
565,65,,1.0,45.0,2238480677-317399.jpg,2238481630-168218.jpg,1.0,,,,A1AW4WCRVLE1C6
566,66,,1.0,46.0,2874299429-139694.jpg,2883266367-365742.jpg,3.0,,,,A1AW4WCRVLE1C6
567,67,,1.0,47.0,2898617468-68274.jpg,2964207374-144577.jpg,3.0,,,,A1AW4WCRVLE1C6
568,68,,1.0,48.0,2238481198-19822.jpg,2862691449-137104.jpg,1.0,,,,A1AW4WCRVLE1C6
569,69,,1.0,49.0,2874299429-139695.jpg,2883266388-67750.jpg,1.0,,,,A1AW4WCRVLE1C6
570,70,,1.0,50.0,2592380177-354626.jpg,2864901386-286797.jpg,2.0,,,,A1AW4WCRVLE1C6
571,71,,1.0,51.0,2964218374-144967.jpg,2964218374-144968.jpg,1.0,,,,A1AW4WCRVLE1C6
572,72,,1.0,52.0,2864910426-287204.jpg,2901939433-69672.jpg,3.0,,,,A1AW4WCRVLE1C6
573,73,,1.0,53.0,2592379964-131054.jpg,2238479053-19457.jpg,2.0,,,,A1AW4WCRVLE1C6
574,74,left,1.0,54.0,left.jpg,,,left,0.5355,,A1AW4WCRVLE1C6
575,75,,1.0,55.0,2452380832-348593.jpg,2237858942-299356.jpg,3.0,,,,A1AW4WCRVLE1C6
576,76,,1.0,56.0,2898635428-69104.jpg,2898625336-291572.jpg,3.0,,,,A1AW4WCRVLE1C6
577,77,,1.0,57.0,2898633421-291973.jpg,2512876023-52283.jpg,1.0,,,,A1AW4WCRVLE1C6
578,78,,1.0,58.0,2901947423-70311.jpg,2860312398-62572.jpg,1.0,,,,A1AW4WCRVLE1C6
579,79,,1.0,59.0,2964213381-294060.jpg,2964213381-294061.jpg,3.0,,,,A1AW4WCRVLE1C6
580,80,,1.0,60.0,2458347385-199723.jpg,2238480434-93829.jpg,1.0,,,,A1AW4WCRVLE1C6
581,81,,1.0,61.0,2460547467-349422.jpg,2864909447-362146.jpg,3.0,,,,A1AW4WCRVLE1C6
582,82,,1.0,62.0,2898618444-142233.jpg,2238555262-330312.jpg,2.0,,,,A1AW4WCRVLE1C6
583,83,,1.0,63.0,2874302418-65979.jpg,2238480648-19714.jpg,2.0,,,,A1AW4WCRVLE1C6
584,84,,1.0,64.0,2460547508-51571.jpg,2981232437-369759.jpg,2.0,,,,A1AW4WCRVLE1C6
585,20,,1.0,0.0,2901941401-292798.jpg,2898618327-366317.jpg,1.0,,,,A2Q0XPK1CBAKFA
586,21,,1.0,1.0,2964222378-71332.jpg,2981240427-370099.jpg,3.0,,,,A2Q0XPK1CBAKFA
587,22,,1.0,2.0,2981241414-145842.jpg,2427873848-47312.jpg,3.0,,,,A2Q0XPK1CBAKFA
588,23,,1.0,3.0,2901947423-70311.jpg,2860312398-62572.jpg,1.0,,,,A2Q0XPK1CBAKFA
589,24,,1.0,4.0,2874299429-139694.jpg,2986447306-296584.jpg,1.0,,,,A2Q0XPK1CBAKFA
590,25,,1.0,5.0,2981231403-71642.jpg,2427873763-47290.jpg,3.0,,,,A2Q0XPK1CBAKFA
591,26,,1.0,6.0,2446759803-49249.jpg,2898618440-216547.jpg,2.0,,,,A2Q0XPK1CBAKFA
592,27,,1.0,7.0,2874299429-139695.jpg,2446760917-347439.jpg,3.0,,,,A2Q0XPK1CBAKFA
593,28,,1.0,8.0,2864910426-287204.jpg,2901939433-69672.jpg,3.0,,,,A2Q0XPK1CBAKFA
594,29,left,1.0,9.0,left.jpg,,,left,2.035,,A2Q0XPK1CBAKFA
595,30,,1.0,10.0,2238560245-182099.jpg,2592380255-205553.jpg,1.0,,,,A2Q0XPK1CBAKFA
596,31,,1.0,11.0,2449442529-124445.jpg,2986408373-73286.jpg,2.0,,,,A2Q0XPK1CBAKFA
597,32,,1.0,12.0,2898624426-291546.jpg,2981236443-71859.jpg,2.0,,,,A2Q0XPK1CBAKFA
598,33,,1.0,13.0,2964223381-294447.jpg,2427874231-269884.jpg,1.0,,,,A2Q0XPK1CBAKFA
599,34,,1.0,14.0,2452381505-199546.jpg,2898632385-217138.jpg,2.0,,,,A2Q0XPK1CBAKFA
600,35,,1.0,15.0,2986451363-73598.jpg,2237857458-1324.jpg,1.0,,,,A2Q0XPK1CBAKFA
601,36,,1.0,16.0,2460547467-349421.jpg,2452380166-273110.jpg,2.0,,,,A2Q0XPK1CBAKFA
602,37,,1.0,17.0,2864907432-362042.jpg,2989726338-74002.jpg,3.0,,,,A2Q0XPK1CBAKFA
603,38,,1.0,18.0,2883268412-365898.jpg,2984626312-370849.jpg,1.0,,,,A2Q0XPK1CBAKFA
604,39,,1.0,19.0,2868475410-213219.jpg,2868474407-362885.jpg,3.0,,,,A2Q0XPK1CBAKFA
605,40,left,0.0,20.0,right.jpg,,,right,0.0154,,A2Q0XPK1CBAKFA
606,41,,1.0,21.0,2868474407-362883.jpg,2460547732-349518.jpg,1.0,,,,A2Q0XPK1CBAKFA
607,42,,1.0,22.0,2964213381-294060.jpg,2964213381-294061.jpg,3.0,,,,A2Q0XPK1CBAKFA
608,43,,1.0,23.0,2898618444-142233.jpg,2238555262-330312.jpg,2.0,,,,A2Q0XPK1CBAKFA
609,44,,1.0,24.0,2901952513-70703.jpg,2868469411-287540.jpg,2.0,,,,A2Q0XPK1CBAKFA
610,45,,1.0,25.0,2460547508-51571.jpg,2981232437-369759.jpg,2.0,,,,A2Q0XPK1CBAKFA
611,46,left,0.0,26.0,right.jpg,,,right,0.0151,,A2Q0XPK1CBAKFA
612,47,,1.0,27.0,2238572663-35822.jpg,2238584894-113161.jpg,1.0,,,,A2Q0XPK1CBAKFA
613,48,,1.0,28.0,2898634397-367080.jpg,2237944827-301472.jpg,1.0,,,,A2Q0XPK1CBAKFA
614,49,,1.0,29.0,2898635427-367120.jpg,2868479517-363220.jpg,2.0,,,,A2Q0XPK1CBAKFA
615,50,,1.0,30.0,2883256307-365057.jpg,2611628310-206388.jpg,1.0,,,,A2Q0XPK1CBAKFA
616,51,,1.0,31.0,2901939379-143480.jpg,2898632385-217139.jpg,3.0,,,,A2Q0XPK1CBAKFA
617,52,,1.0,32.0,2446758985-197609.jpg,2898624426-291544.jpg,3.0,,,,A2Q0XPK1CBAKFA
618,53,,1.0,33.0,2238425482-313537.jpg,2238436322-314047.jpg,2.0,,,,A2Q0XPK1CBAKFA
619,54,,1.0,34.0,2898633421-291973.jpg,2512876023-52283.jpg,1.0,,,,A2Q0XPK1CBAKFA
620,55,,1.0,35.0,2901939379-143479.jpg,2964216376-294181.jpg,3.0,,,,A2Q0XPK1CBAKFA
621,56,,1.0,36.0,2874303365-214262.jpg,2238563377-332054.jpg,2.0,,,,A2Q0XPK1CBAKFA
622,57,,1.0,37.0,2592379964-131054.jpg,2575963989-130576.jpg,1.0,,,,A2Q0XPK1CBAKFA
623,58,,1.0,38.0,2986451363-73599.jpg,2860302315-210704.jpg,2.0,,,,A2Q0XPK1CBAKFA
624,59,,1.0,39.0,2238580740-186218.jpg,2238521193-26285.jpg,2.0,,,,A2Q0XPK1CBAKFA
625,60,,1.0,40.0,2898617468-68274.jpg,2964207374-144577.jpg,3.0,,,,A2Q0XPK1CBAKFA
626,61,,1.0,41.0,2874302418-65978.jpg,2238481198-19823.jpg,2.0,,,,A2Q0XPK1CBAKFA
627,62,left,0.0,42.0,right.jpg,,,right,0.0148,,A2Q0XPK1CBAKFA
628,63,,1.0,43.0,2238480677-317399.jpg,2238480278-19661.jpg,3.0,,,,A2Q0XPK1CBAKFA
629,64,,1.0,44.0,2575120738-55529.jpg,2864906345-212360.jpg,1.0,,,,A2Q0XPK1CBAKFA
630,65,,1.0,45.0,2964218374-144967.jpg,2964218374-144968.jpg,1.0,,,,A2Q0XPK1CBAKFA
631,66,,1.0,46.0,2964216465-219242.jpg,2238544191-252422.jpg,1.0,,,,A2Q0XPK1CBAKFA
632,67,,1.0,47.0,2238428357-313623.jpg,2986408339-146952.jpg,3.0,,,,A2Q0XPK1CBAKFA
633,68,,1.0,48.0,2592380177-354629.jpg,2898633421-291974.jpg,1.0,,,,A2Q0XPK1CBAKFA
634,69,,1.0,49.0,2883268471-290842.jpg,2901947448-70314.jpg,3.0,,,,A2Q0XPK1CBAKFA
635,70,,1.0,50.0,2512875899-126682.jpg,2592380177-354628.jpg,2.0,,,,A2Q0XPK1CBAKFA
636,71,,1.0,51.0,2883273443-68193.jpg,2460547508-51572.jpg,2.0,,,,A2Q0XPK1CBAKFA
637,72,,1.0,52.0,2874301407-363895.jpg,2901947323-70275.jpg,3.0,,,,A2Q0XPK1CBAKFA
638,73,,1.0,53.0,2458347385-199723.jpg,2458347252-348911.jpg,3.0,,,,A2Q0XPK1CBAKFA
639,74,left,0.0,54.0,right.jpg,,,right,0.0144,,A2Q0XPK1CBAKFA
640,75,,1.0,55.0,2238481198-19822.jpg,2901946436-293242.jpg,2.0,,,,A2Q0XPK1CBAKFA
641,76,,1.0,56.0,2452380832-348593.jpg,2238481813-19930.jpg,2.0,,,,A2Q0XPK1CBAKFA
642,77,,1.0,57.0,2898618390-216538.jpg,2901939327-367670.jpg,2.0,,,,A2Q0XPK1CBAKFA
643,78,,1.0,58.0,2874307433-66280.jpg,2981231422-369714.jpg,3.0,,,,A2Q0XPK1CBAKFA
644,79,,1.0,59.0,2898635428-69104.jpg,2446759803-49250.jpg,1.0,,,,A2Q0XPK1CBAKFA
645,80,,1.0,60.0,2238481928-19949.jpg,2981241419-145844.jpg,3.0,,,,A2Q0XPK1CBAKFA
646,81,,1.0,61.0,2592380177-354626.jpg,2238576792-334659.jpg,1.0,,,,A2Q0XPK1CBAKFA
647,82,,1.0,62.0,2460547467-349422.jpg,2898618440-216545.jpg,1.0,,,,A2Q0XPK1CBAKFA
648,83,,1.0,63.0,2874302418-65979.jpg,2238578544-111698.jpg,3.0,,,,A2Q0XPK1CBAKFA
649,84,,1.0,64.0,2449442529-124446.jpg,2460547536-274181.jpg,2.0,,,,A2Q0XPK1CBAKFA
650,20,,1.0,0.0,2874299429-139695.jpg,2883266388-67750.jpg,1.0,,,,A1NLJ1L4VCQYV2
651,21,,1.0,1.0,2458347385-199723.jpg,2238480434-93829.jpg,1.0,,,,A1NLJ1L4VCQYV2
652,22,,1.0,2.0,2868475410-213219.jpg,2238480803-19739.jpg,2.0,,,,A1NLJ1L4VCQYV2
653,23,,1.0,3.0,2901941401-292798.jpg,2981243412-370222.jpg,2.0,,,,A1NLJ1L4VCQYV2
654,24,,1.0,4.0,2874307433-66280.jpg,2981231422-369714.jpg,3.0,,,,A1NLJ1L4VCQYV2
655,25,,1.0,5.0,2874302418-65978.jpg,2238481198-19823.jpg,2.0,,,,A1NLJ1L4VCQYV2
656,26,,1.0,6.0,2592380177-354626.jpg,2864901386-286797.jpg,2.0,,,,A1NLJ1L4VCQYV2
657,27,,1.0,7.0,2238560245-182099.jpg,2874314526-289684.jpg,2.0,,,,A1NLJ1L4VCQYV2
658,28,,1.0,8.0,2898618390-216538.jpg,2237856148-989.jpg,1.0,,,,A1NLJ1L4VCQYV2
659,29,,1.0,9.0,2883273443-68193.jpg,2460547508-51572.jpg,2.0,,,,A1NLJ1L4VCQYV2
660,30,,1.0,10.0,2460547467-349422.jpg,2898618440-216545.jpg,1.0,,,,A1NLJ1L4VCQYV2
661,31,,1.0,11.0,2864907432-362042.jpg,2989726338-74002.jpg,3.0,,,,A1NLJ1L4VCQYV2
662,32,left,1.0,12.0,left.jpg,,,left,0.71,,A1NLJ1L4VCQYV2
663,33,,1.0,13.0,2981231403-71642.jpg,2874305405-214397.jpg,2.0,,,,A1NLJ1L4VCQYV2
664,34,,1.0,14.0,2986451363-73599.jpg,2238434559-90406.jpg,3.0,,,,A1NLJ1L4VCQYV2
665,35,,1.0,15.0,2864910426-287204.jpg,2864902304-137862.jpg,1.0,,,,A1NLJ1L4VCQYV2
666,36,,1.0,16.0,2986451363-73598.jpg,2237857458-1324.jpg,1.0,,,,A1NLJ1L4VCQYV2
667,37,,1.0,17.0,2874302418-65979.jpg,2238578544-111698.jpg,3.0,,,,A1NLJ1L4VCQYV2
668,38,,1.0,18.0,2592380177-354629.jpg,2898633421-291974.jpg,1.0,,,,A1NLJ1L4VCQYV2
669,39,,1.0,19.0,2238580740-186218.jpg,2238550816-254000.jpg,1.0,,,,A1NLJ1L4VCQYV2
670,40,,1.0,20.0,2446759803-49249.jpg,2898618440-216547.jpg,2.0,,,,A1NLJ1L4VCQYV2
671,41,,1.0,21.0,2898617468-68274.jpg,2901946439-144040.jpg,1.0,,,,A1NLJ1L4VCQYV2
672,42,right,1.0,22.0,right.jpg,,,right,0.583,,A1NLJ1L4VCQYV2
673,43,,1.0,23.0,2874303365-214262.jpg,2864911457-362260.jpg,3.0,,,,A1NLJ1L4VCQYV2
674,44,,1.0,24.0,2238428357-313623.jpg,2986408339-146952.jpg,3.0,,,,A1NLJ1L4VCQYV2
675,45,,1.0,25.0,2901939379-143479.jpg,2964216376-294181.jpg,3.0,,,,A1NLJ1L4VCQYV2
676,46,,1.0,26.0,2964223381-294447.jpg,2427874231-269884.jpg,1.0,,,,A1NLJ1L4VCQYV2
677,47,,1.0,27.0,2592379964-131054.jpg,2238479053-19457.jpg,2.0,,,,A1NLJ1L4VCQYV2
678,48,,1.0,28.0,2898633421-291973.jpg,2575118671-277663.jpg,2.0,,,,A1NLJ1L4VCQYV2
679,49,,1.0,29.0,2238481928-19949.jpg,2883264367-365620.jpg,1.0,,,,A1NLJ1L4VCQYV2
680,50,,1.0,30.0,2452380832-348593.jpg,2237858942-299356.jpg,3.0,,,,A1NLJ1L4VCQYV2
681,51,left,1.0,31.0,left.jpg,,,left,0.575,,A1NLJ1L4VCQYV2
682,52,,1.0,32.0,2874299429-139694.jpg,2986447306-296584.jpg,1.0,,,,A1NLJ1L4VCQYV2
683,53,,1.0,33.0,2901947423-70311.jpg,2238577590-185467.jpg,3.0,,,,A1NLJ1L4VCQYV2
684,54,,1.0,34.0,2868474407-362883.jpg,2901948383-70363.jpg,3.0,,,,A1NLJ1L4VCQYV2
685,55,,1.0,35.0,2898618444-142233.jpg,2898618444-142232.jpg,3.0,,,,A1NLJ1L4VCQYV2
686,56,,1.0,36.0,2901952513-70703.jpg,2864907361-287062.jpg,1.0,,,,A1NLJ1L4VCQYV2
687,57,,1.0,37.0,2238425482-313537.jpg,2898633480-217190.jpg,3.0,,,,A1NLJ1L4VCQYV2
688,58,,1.0,38.0,2452381505-199546.jpg,2994401319-148290.jpg,3.0,,,,A1NLJ1L4VCQYV2
689,59,,1.0,39.0,2898624426-291546.jpg,2981236443-71859.jpg,2.0,,,,A1NLJ1L4VCQYV2
690,60,,1.0,40.0,2575120738-55529.jpg,2575120738-55528.jpg,2.0,,,,A1NLJ1L4VCQYV2
691,61,,1.0,41.0,2512875899-126682.jpg,2986447332-371497.jpg,3.0,,,,A1NLJ1L4VCQYV2
692,62,,1.0,42.0,2460547467-349421.jpg,2898631394-142727.jpg,1.0,,,,A1NLJ1L4VCQYV2
693,63,,1.0,43.0,2964213381-294060.jpg,2981244394-145974.jpg,1.0,,,,A1NLJ1L4VCQYV2
694,64,left,1.0,44.0,left.jpg,,,left,0.719,,A1NLJ1L4VCQYV2
695,65,,1.0,45.0,2898634397-367080.jpg,2237944827-301472.jpg,1.0,,,,A1NLJ1L4VCQYV2
696,66,,1.0,46.0,2964222378-71332.jpg,2981240427-370099.jpg,3.0,,,,A1NLJ1L4VCQYV2
697,67,left,1.0,47.0,left.jpg,,,left,0.601,,A1NLJ1L4VCQYV2
698,68,,1.0,48.0,2449442529-124445.jpg,2986408373-73286.jpg,2.0,,,,A1NLJ1L4VCQYV2
699,69,,1.0,49.0,2981241414-145842.jpg,2238516618-25604.jpg,1.0,,,,A1NLJ1L4VCQYV2
700,70,,1.0,50.0,2964218374-144967.jpg,2981231446-294732.jpg,3.0,,,,A1NLJ1L4VCQYV2
701,71,,1.0,51.0,2460547508-51571.jpg,2981232437-369759.jpg,2.0,,,,A1NLJ1L4VCQYV2
702,72,,1.0,52.0,2901939379-143480.jpg,2981229442-369621.jpg,2.0,,,,A1NLJ1L4VCQYV2
703,73,,1.0,53.0,2964216465-219242.jpg,2238544191-252422.jpg,1.0,,,,A1NLJ1L4VCQYV2
704,74,,1.0,54.0,2449442529-124446.jpg,2460547536-274178.jpg,3.0,,,,A1NLJ1L4VCQYV2
705,75,,1.0,55.0,2898635427-367120.jpg,2898621427-366486.jpg,3.0,,,,A1NLJ1L4VCQYV2
706,76,,1.0,56.0,2898635428-69104.jpg,2898625336-291572.jpg,3.0,,,,A1NLJ1L4VCQYV2
707,77,,1.0,57.0,2446758985-197609.jpg,2981240424-145795.jpg,1.0,,,,A1NLJ1L4VCQYV2
708,78,,1.0,58.0,2883268412-365898.jpg,2984615361-295510.jpg,2.0,,,,A1NLJ1L4VCQYV2
709,79,,1.0,59.0,2883268471-290842.jpg,2883255450-215310.jpg,2.0,,,,A1NLJ1L4VCQYV2
710,80,,1.0,60.0,2238480677-317399.jpg,2238480278-19661.jpg,3.0,,,,A1NLJ1L4VCQYV2
711,81,,1.0,61.0,2238481198-19822.jpg,2901946436-293242.jpg,2.0,,,,A1NLJ1L4VCQYV2
712,82,,1.0,62.0,2883256307-365057.jpg,2964210336-293945.jpg,2.0,,,,A1NLJ1L4VCQYV2
713,83,,1.0,63.0,2874301407-363895.jpg,2446761374-124213.jpg,1.0,,,,A1NLJ1L4VCQYV2
714,84,,1.0,64.0,2238572663-35822.jpg,2238571930-184143.jpg,2.0,,,,A1NLJ1L4VCQYV2
715,20,,1.0,0.0,2238481198-19822.jpg,2238480803-19737.jpg,3.0,,,,A1PX4CR15QC57J
716,21,,1.0,1.0,2238428357-313623.jpg,2986408339-146952.jpg,3.0,,,,A1PX4CR15QC57J
717,22,,1.0,2.0,2238560245-182099.jpg,2238480980-168129.jpg,3.0,,,,A1PX4CR15QC57J
718,23,,1.0,3.0,2901952513-70703.jpg,2864907361-287062.jpg,1.0,,,,A1PX4CR15QC57J
719,24,,1.0,4.0,2964216465-219242.jpg,2238544191-252422.jpg,1.0,,,,A1PX4CR15QC57J
720,25,,1.0,5.0,2901947423-70311.jpg,2238577590-185467.jpg,3.0,,,,A1PX4CR15QC57J
721,26,,0.0,6.0,right.jpg,,,right,,,A1PX4CR15QC57J
722,27,,1.0,7.0,2898617468-68274.jpg,2901946439-144040.jpg,1.0,,,,A1PX4CR15QC57J
723,28,,1.0,8.0,2986451363-73598.jpg,2901942443-69925.jpg,3.0,,,,A1PX4CR15QC57J
724,29,,1.0,9.0,2874302418-65978.jpg,2964224310-219528.jpg,1.0,,,,A1PX4CR15QC57J
725,30,,1.0,10.0,2452381505-199546.jpg,2901938432-367627.jpg,1.0,,,,A1PX4CR15QC57J
726,31,,1.0,11.0,2592380177-354629.jpg,2579432534-130704.jpg,2.0,,,,A1PX4CR15QC57J
727,32,,1.0,12.0,2238425482-313537.jpg,2238471391-240918.jpg,1.0,,,,A1PX4CR15QC57J
728,33,,1.0,13.0,2446758985-197609.jpg,2898624426-291544.jpg,3.0,,,,A1PX4CR15QC57J
729,34,,1.0,14.0,2449442529-124445.jpg,2898632385-217137.jpg,3.0,,,,A1PX4CR15QC57J
730,35,,1.0,15.0,2460547467-349422.jpg,2868487415-213924.jpg,2.0,,,,A1PX4CR15QC57J
731,36,,1.0,16.0,2592380177-354626.jpg,2864901386-286797.jpg,2.0,,,,A1PX4CR15QC57J
732,37,,1.0,17.0,2874299429-139695.jpg,2901942443-69923.jpg,2.0,,,,A1PX4CR15QC57J
733,38,,1.0,18.0,2901939379-143480.jpg,2901942428-69919.jpg,1.0,,,,A1PX4CR15QC57J
734,39,,1.0,19.0,2898618390-216538.jpg,2575120609-129862.jpg,3.0,,,,A1PX4CR15QC57J
735,40,,1.0,20.0,2898635427-367120.jpg,2898621427-366486.jpg,3.0,,,,A1PX4CR15QC57J
736,41,,1.0,21.0,2868474407-362883.jpg,2981246400-220363.jpg,2.0,,,,A1PX4CR15QC57J
737,42,,1.0,22.0,2883273443-68193.jpg,2898627427-366763.jpg,3.0,,,,A1PX4CR15QC57J
738,43,left,1.0,23.0,left.jpg,,,left,1.548,,A1PX4CR15QC57J
739,44,,1.0,24.0,2446759803-49249.jpg,2901951392-368654.jpg,3.0,,,,A1PX4CR15QC57J
740,45,,1.0,25.0,2452380832-348593.jpg,2238328478-11678.jpg,1.0,,,,A1PX4CR15QC57J
741,46,,1.0,26.0,2868475410-213219.jpg,2868474407-362885.jpg,3.0,,,,A1PX4CR15QC57J
742,47,right,1.0,27.0,right.jpg,,,right,1.244,,A1PX4CR15QC57J
743,48,,1.0,28.0,2874302418-65979.jpg,2237857458-1325.jpg,1.0,,,,A1PX4CR15QC57J
744,49,,1.0,29.0,2460547467-349421.jpg,2898631394-142727.jpg,1.0,,,,A1PX4CR15QC57J
745,50,,1.0,30.0,2238572663-35822.jpg,2238584894-113161.jpg,1.0,,,,A1PX4CR15QC57J
746,51,,1.0,31.0,2898635428-69104.jpg,2898625336-291572.jpg,3.0,,,,A1PX4CR15QC57J
747,52,,1.0,32.0,2864910426-287204.jpg,2883268412-365899.jpg,2.0,,,,A1PX4CR15QC57J
748,53,,1.0,33.0,2864907432-362042.jpg,2901947423-70310.jpg,2.0,,,,A1PX4CR15QC57J
749,54,,1.0,34.0,2238480677-317399.jpg,2238480278-19661.jpg,3.0,,,,A1PX4CR15QC57J
750,55,,1.0,35.0,2898634397-367080.jpg,2237944827-301472.jpg,1.0,,,,A1PX4CR15QC57J
751,56,right,1.0,36.0,right.jpg,,,right,1.01,,A1PX4CR15QC57J
752,57,,1.0,37.0,2981231403-71642.jpg,2874305405-214397.jpg,2.0,,,,A1PX4CR15QC57J
753,58,,1.0,38.0,2898624426-291546.jpg,2981235446-294900.jpg,3.0,,,,A1PX4CR15QC57J
754,59,,1.0,39.0,2874299429-139694.jpg,2981244403-72215.jpg,2.0,,,,A1PX4CR15QC57J
755,60,,1.0,40.0,2964218374-144967.jpg,2981231446-294732.jpg,3.0,,,,A1PX4CR15QC57J
756,61,,1.0,41.0,2898618444-142233.jpg,2238555262-330312.jpg,2.0,,,,A1PX4CR15QC57J
757,62,,1.0,42.0,2898633421-291973.jpg,2512876023-52283.jpg,1.0,,,,A1PX4CR15QC57J
758,63,,1.0,43.0,2964222378-71332.jpg,2981240424-145794.jpg,1.0,,,,A1PX4CR15QC57J
759,64,,1.0,44.0,2238481928-19949.jpg,2883264367-365620.jpg,1.0,,,,A1PX4CR15QC57J
760,65,,1.0,45.0,2449442529-124446.jpg,2460547536-274181.jpg,2.0,,,,A1PX4CR15QC57J
761,66,,0.0,46.0,left.jpg,,,left,,,A1PX4CR15QC57J
762,67,,1.0,47.0,2874301407-363895.jpg,2986397322-371109.jpg,2.0,,,,A1PX4CR15QC57J
763,68,,1.0,48.0,2883268471-290842.jpg,2883268471-290843.jpg,1.0,,,,A1PX4CR15QC57J
764,69,,1.0,49.0,2964223381-294447.jpg,2898628438-68785.jpg,3.0,,,,A1PX4CR15QC57J
765,70,,1.0,50.0,2512875899-126682.jpg,2592380177-354628.jpg,2.0,,,,A1PX4CR15QC57J
766,71,,1.0,51.0,2458347385-199723.jpg,2427874554-121863.jpg,2.0,,,,A1PX4CR15QC57J
767,72,,1.0,52.0,2238580740-186218.jpg,2238550816-254000.jpg,1.0,,,,A1PX4CR15QC57J
768,73,,1.0,53.0,2883256307-365057.jpg,2964210336-293945.jpg,2.0,,,,A1PX4CR15QC57J
769,74,,1.0,54.0,2592379964-131054.jpg,2592380272-354673.jpg,3.0,,,,A1PX4CR15QC57J
770,75,,1.0,55.0,2986451363-73599.jpg,2898626385-216899.jpg,1.0,,,,A1PX4CR15QC57J
771,76,,1.0,56.0,2874307433-66280.jpg,2981246400-220365.jpg,2.0,,,,A1PX4CR15QC57J
772,77,,1.0,57.0,2964213381-294060.jpg,2981244394-145974.jpg,1.0,,,,A1PX4CR15QC57J
773,78,,1.0,58.0,2874303365-214262.jpg,2238563377-332054.jpg,2.0,,,,A1PX4CR15QC57J
774,79,,1.0,59.0,2901939379-143479.jpg,2964216376-294181.jpg,3.0,,,,A1PX4CR15QC57J
775,80,,1.0,60.0,2901941401-292798.jpg,2981243412-370222.jpg,2.0,,,,A1PX4CR15QC57J
776,81,,1.0,61.0,2883268412-365898.jpg,2984615361-295510.jpg,2.0,,,,A1PX4CR15QC57J
777,82,,1.0,62.0,2575120738-55529.jpg,2238531493-28260.jpg,3.0,,,,A1PX4CR15QC57J
778,83,,1.0,63.0,2460547508-51571.jpg,2452380166-273109.jpg,1.0,,,,A1PX4CR15QC57J
779,84,,1.0,64.0,2981241414-145842.jpg,2874301404-139813.jpg,2.0,,,,A1PX4CR15QC57J
780,20,,1.0,0.0,2449442529-124445.jpg,2986408373-73286.jpg,2.0,,,,AS08ODODBG8BX
781,21,,1.0,1.0,2901941401-292798.jpg,2898631468-68931.jpg,3.0,,,,AS08ODODBG8BX
782,22,,1.0,2.0,2898618390-216538.jpg,2575120609-129862.jpg,3.0,,,,AS08ODODBG8BX
783,23,,1.0,3.0,2964213381-294060.jpg,2981244394-145974.jpg,1.0,,,,AS08ODODBG8BX
784,24,,1.0,4.0,2592380177-354626.jpg,2238117096-228518.jpg,3.0,,,,AS08ODODBG8BX
785,25,,1.0,5.0,2446758985-197609.jpg,2864909447-362144.jpg,2.0,,,,AS08ODODBG8BX
786,26,,1.0,6.0,2460547508-51571.jpg,2981232437-369759.jpg,2.0,,,,AS08ODODBG8BX
787,27,,1.0,7.0,2883273443-68193.jpg,2898627427-366763.jpg,3.0,,,,AS08ODODBG8BX
788,28,,1.0,8.0,2981231403-71642.jpg,2874305405-214397.jpg,2.0,,,,AS08ODODBG8BX
789,29,left,1.0,9.0,left.jpg,,,left,1.6125,,AS08ODODBG8BX
790,30,,1.0,10.0,2238425482-313537.jpg,2238471391-240918.jpg,1.0,,,,AS08ODODBG8BX
791,31,,1.0,11.0,2592380177-354629.jpg,2579432534-130704.jpg,2.0,,,,AS08ODODBG8BX
792,32,,1.0,12.0,2460547467-349421.jpg,2981235446-294901.jpg,3.0,,,,AS08ODODBG8BX
793,33,,1.0,13.0,2898618444-142233.jpg,2898631359-142721.jpg,1.0,,,,AS08ODODBG8BX
794,34,,1.0,14.0,2575120738-55529.jpg,2238531493-28260.jpg,3.0,,,,AS08ODODBG8BX
795,35,,1.0,15.0,2898633421-291973.jpg,2512876023-52283.jpg,1.0,,,,AS08ODODBG8BX
796,36,,1.0,16.0,2458347385-199723.jpg,2238480434-93829.jpg,1.0,,,,AS08ODODBG8BX
797,37,,1.0,17.0,2964216465-219242.jpg,2864900319-137787.jpg,2.0,,,,AS08ODODBG8BX
798,38,,1.0,18.0,2238428357-313623.jpg,2984615361-295509.jpg,2.0,,,,AS08ODODBG8BX
799,39,,1.0,19.0,2864910426-287204.jpg,2864902304-137862.jpg,1.0,,,,AS08ODODBG8BX
800,40,,0.0,20.0,right.jpg,,,right,,,AS08ODODBG8BX
801,41,,1.0,21.0,2238572663-35822.jpg,2864903351-286874.jpg,3.0,,,,AS08ODODBG8BX
802,42,,1.0,22.0,2898635428-69104.jpg,2898625336-291572.jpg,3.0,,,,AS08ODODBG8BX
803,43,,1.0,23.0,2238580740-186218.jpg,2238550816-254000.jpg,1.0,,,,AS08ODODBG8BX
804,44,,1.0,24.0,2901939379-143480.jpg,2898632385-217139.jpg,3.0,,,,AS08ODODBG8BX
805,45,,1.0,25.0,2898624426-291546.jpg,2981235446-294900.jpg,3.0,,,,AS08ODODBG8BX
806,46,,1.0,26.0,2874303365-214262.jpg,2864911457-362260.jpg,3.0,,,,AS08ODODBG8BX
807,47,,1.0,27.0,2874302418-65979.jpg,2238578544-111698.jpg,3.0,,,,AS08ODODBG8BX
808,48,,1.0,28.0,2592379964-131054.jpg,2238479053-19457.jpg,2.0,,,,AS08ODODBG8BX
809,49,,1.0,29.0,2238480677-317399.jpg,2238573546-258454.jpg,2.0,,,,AS08ODODBG8BX
810,50,,1.0,30.0,2901952513-70703.jpg,2868469411-287540.jpg,2.0,,,,AS08ODODBG8BX
811,51,,1.0,31.0,2452380832-348593.jpg,2238328478-11678.jpg,1.0,,,,AS08ODODBG8BX
812,52,,1.0,32.0,2874299429-139694.jpg,2986447306-296584.jpg,1.0,,,,AS08ODODBG8BX
813,53,,1.0,33.0,2449442529-124446.jpg,2446759803-49251.jpg,1.0,,,,AS08ODODBG8BX
814,54,left,1.0,34.0,left.jpg,,,left,1.5697,,AS08ODODBG8BX
815,55,,1.0,35.0,2874307433-66280.jpg,2981246400-220365.jpg,2.0,,,,AS08ODODBG8BX
816,56,,1.0,36.0,2864907432-362042.jpg,2864901420-212147.jpg,1.0,,,,AS08ODODBG8BX
817,57,,1.0,37.0,2874299429-139695.jpg,2901942443-69923.jpg,2.0,,,,AS08ODODBG8BX
818,58,,1.0,38.0,2898634397-367080.jpg,2901934408-69289.jpg,2.0,,,,AS08ODODBG8BX
819,59,,1.0,39.0,2512875899-126682.jpg,2592380177-354628.jpg,2.0,,,,AS08ODODBG8BX
820,60,,1.0,40.0,2238481198-19822.jpg,2862691449-137104.jpg,1.0,,,,AS08ODODBG8BX
821,61,,1.0,41.0,2981241414-145842.jpg,2874301404-139813.jpg,2.0,,,,AS08ODODBG8BX
822,62,,1.0,42.0,2238560245-182099.jpg,2238480980-168129.jpg,3.0,,,,AS08ODODBG8BX
823,63,left,1.0,43.0,left.jpg,,,left,1.5549,,AS08ODODBG8BX
824,64,,1.0,44.0,2883268471-290842.jpg,2901947448-70314.jpg,3.0,,,,AS08ODODBG8BX
825,65,,1.0,45.0,2964218374-144967.jpg,2446759306-271734.jpg,2.0,,,,AS08ODODBG8BX
826,66,,1.0,46.0,2874302418-65978.jpg,2964224310-219528.jpg,1.0,,,,AS08ODODBG8BX
827,67,,1.0,47.0,2901939379-143479.jpg,2964216376-294181.jpg,3.0,,,,AS08ODODBG8BX
828,68,right,1.0,48.0,right.jpg,,,right,1.6876,,AS08ODODBG8BX
829,69,,1.0,49.0,2901947423-70311.jpg,2238573447-333826.jpg,2.0,,,,AS08ODODBG8BX
830,70,,1.0,50.0,2898617468-68274.jpg,2901946439-144040.jpg,1.0,,,,AS08ODODBG8BX
831,71,,1.0,51.0,2898635427-367120.jpg,2964221435-219434.jpg,1.0,,,,AS08ODODBG8BX
832,72,,1.0,52.0,2883256307-365057.jpg,2611628310-206388.jpg,1.0,,,,AS08ODODBG8BX
833,73,,1.0,53.0,2868474407-362883.jpg,2981246400-220363.jpg,2.0,,,,AS08ODODBG8BX
834,74,,1.0,54.0,2446759803-49249.jpg,2901951392-368654.jpg,3.0,,,,AS08ODODBG8BX
835,75,,1.0,55.0,2238481928-19949.jpg,2864900357-361688.jpg,2.0,,,,AS08ODODBG8BX
836,76,,1.0,56.0,2964223381-294447.jpg,2898628438-68785.jpg,3.0,,,,AS08ODODBG8BX
837,77,,1.0,57.0,2964222378-71332.jpg,2981240427-370099.jpg,3.0,,,,AS08ODODBG8BX
838,78,,1.0,58.0,2874301407-363895.jpg,2446761374-124213.jpg,1.0,,,,AS08ODODBG8BX
839,79,,1.0,59.0,2986451363-73599.jpg,2898626385-216899.jpg,1.0,,,,AS08ODODBG8BX
840,80,,1.0,60.0,2986451363-73598.jpg,2984628361-295995.jpg,2.0,,,,AS08ODODBG8BX
841,81,,1.0,61.0,2460547467-349422.jpg,2864909447-362146.jpg,3.0,,,,AS08ODODBG8BX
842,82,,1.0,62.0,2452381505-199546.jpg,2994401319-148290.jpg,3.0,,,,AS08ODODBG8BX
843,83,,1.0,63.0,2868475410-213219.jpg,2901946465-218350.jpg,1.0,,,,AS08ODODBG8BX
844,84,,1.0,64.0,2883268412-365898.jpg,2984626312-370849.jpg,1.0,,,,AS08ODODBG8BX
845,20,,1.0,0.0,2864907432-362042.jpg,2989726338-74002.jpg,3.0,,,,AK52RXEJKR81A
846,21,,1.0,1.0,2874302418-65979.jpg,2238578544-111698.jpg,3.0,,,,AK52RXEJKR81A
847,22,,1.0,2.0,2238560245-182099.jpg,2874314526-289684.jpg,2.0,,,,AK52RXEJKR81A
848,23,,1.0,3.0,2898633421-291973.jpg,2238550049-105691.jpg,3.0,,,,AK52RXEJKR81A
849,24,,1.0,4.0,2883256307-365057.jpg,2864904453-63933.jpg,3.0,,,,AK52RXEJKR81A
850,25,,1.0,5.0,2512875899-126682.jpg,2460547536-274179.jpg,1.0,,,,AK52RXEJKR81A
851,26,,1.0,6.0,2452380832-348593.jpg,2238481813-19930.jpg,2.0,,,,AK52RXEJKR81A
852,27,,1.0,7.0,2446758985-197609.jpg,2864909447-362144.jpg,2.0,,,,AK52RXEJKR81A
853,28,,1.0,8.0,2238480677-317399.jpg,2238573546-258454.jpg,2.0,,,,AK52RXEJKR81A
854,29,,1.0,9.0,2592380177-354626.jpg,2238576792-334659.jpg,1.0,,,,AK52RXEJKR81A
855,30,,1.0,10.0,2452381505-199546.jpg,2901938432-367627.jpg,1.0,,,,AK52RXEJKR81A
856,31,,1.0,11.0,2883268412-365898.jpg,2238436252-314037.jpg,3.0,,,,AK52RXEJKR81A
857,32,,1.0,12.0,2898635427-367120.jpg,2868479517-363220.jpg,2.0,,,,AK52RXEJKR81A
858,33,,0.0,13.0,left.jpg,,,left,,,AK52RXEJKR81A
859,34,,1.0,14.0,2460547467-349422.jpg,2864909447-362146.jpg,3.0,,,,AK52RXEJKR81A
860,35,,1.0,15.0,2874299429-139695.jpg,2883266388-67750.jpg,1.0,,,,AK52RXEJKR81A
861,36,,1.0,16.0,2446759803-49249.jpg,2446760601-272099.jpg,1.0,,,,AK52RXEJKR81A
862,37,,1.0,17.0,2868474407-362883.jpg,2981246400-220363.jpg,2.0,,,,AK52RXEJKR81A
863,38,,1.0,18.0,2864910426-287204.jpg,2883268412-365899.jpg,2.0,,,,AK52RXEJKR81A
864,39,,1.0,19.0,2986451363-73598.jpg,2237857458-1324.jpg,1.0,,,,AK52RXEJKR81A
865,40,,1.0,20.0,2874307433-66280.jpg,2984615358-72439.jpg,1.0,,,,AK52RXEJKR81A
866,41,,0.0,21.0,right.jpg,,,right,,,AK52RXEJKR81A
867,42,,1.0,22.0,2964213381-294060.jpg,2981244394-145974.jpg,1.0,,,,AK52RXEJKR81A
868,43,,1.0,23.0,2981231403-71642.jpg,2874305405-214397.jpg,2.0,,,,AK52RXEJKR81A
869,44,,1.0,24.0,2898617468-68274.jpg,2901943387-368037.jpg,2.0,,,,AK52RXEJKR81A
870,45,,1.0,25.0,2449442529-124446.jpg,2446759803-49251.jpg,1.0,,,,AK52RXEJKR81A
871,46,,1.0,26.0,2575120738-55529.jpg,2575120738-55528.jpg,2.0,,,,AK52RXEJKR81A
872,47,,1.0,27.0,2868475410-213219.jpg,2868474407-362885.jpg,3.0,,,,AK52RXEJKR81A
873,48,,1.0,28.0,2964223381-294447.jpg,2898628438-68785.jpg,3.0,,,,AK52RXEJKR81A
874,49,,1.0,29.0,2238572663-35822.jpg,2238571930-184143.jpg,2.0,,,,AK52RXEJKR81A
875,50,,0.0,30.0,right.jpg,,,right,,,AK52RXEJKR81A
876,51,,1.0,31.0,2964222378-71332.jpg,2981240427-370099.jpg,3.0,,,,AK52RXEJKR81A
877,52,,1.0,32.0,2964218374-144967.jpg,2964218374-144968.jpg,1.0,,,,AK52RXEJKR81A
878,53,,1.0,33.0,2901952513-70703.jpg,2238481198-19821.jpg,3.0,,,,AK52RXEJKR81A
879,54,,1.0,34.0,2460547508-51571.jpg,2981232437-369759.jpg,2.0,,,,AK52RXEJKR81A
880,55,,1.0,35.0,2981241414-145842.jpg,2427873848-47312.jpg,3.0,,,,AK52RXEJKR81A
881,56,,1.0,36.0,2898624426-291546.jpg,2981235446-294900.jpg,3.0,,,,AK52RXEJKR81A
882,57,,1.0,37.0,2238580740-186218.jpg,2238550816-254000.jpg,1.0,,,,AK52RXEJKR81A
883,58,,1.0,38.0,2238428357-313623.jpg,2238499057-320266.jpg,1.0,,,,AK52RXEJKR81A
884,59,,1.0,39.0,2460547467-349421.jpg,2898631394-142727.jpg,1.0,,,,AK52RXEJKR81A
885,60,,1.0,40.0,2592380177-354629.jpg,2579432534-130704.jpg,2.0,,,,AK52RXEJKR81A
886,61,,1.0,41.0,2898634397-367080.jpg,2964217461-294238.jpg,3.0,,,,AK52RXEJKR81A
887,62,,0.0,42.0,right.jpg,,,right,,,AK52RXEJKR81A
888,63,,1.0,43.0,2883268471-290842.jpg,2883268471-290843.jpg,1.0,,,,AK52RXEJKR81A
889,64,,1.0,44.0,2449442529-124445.jpg,2452380171-273112.jpg,1.0,,,,AK52RXEJKR81A
890,65,,1.0,45.0,2874299429-139694.jpg,2981244403-72215.jpg,2.0,,,,AK52RXEJKR81A
891,66,,1.0,46.0,2901939379-143479.jpg,2446758985-197610.jpg,2.0,,,,AK52RXEJKR81A
892,67,,1.0,47.0,2874302418-65978.jpg,2964224310-219528.jpg,1.0,,,,AK52RXEJKR81A
893,68,,0.0,48.0,right.jpg,,,right,,,AK52RXEJKR81A
894,69,,1.0,49.0,2592379964-131054.jpg,2575963989-130576.jpg,1.0,,,,AK52RXEJKR81A
895,70,,1.0,50.0,2964216465-219242.jpg,2898619327-366362.jpg,3.0,,,,AK52RXEJKR81A
896,71,,1.0,51.0,2238481928-19949.jpg,2981241419-145844.jpg,3.0,,,,AK52RXEJKR81A
897,72,,1.0,52.0,2901939379-143480.jpg,2981229442-369621.jpg,2.0,,,,AK52RXEJKR81A
898,73,,1.0,53.0,2874303365-214262.jpg,2864911457-362260.jpg,3.0,,,,AK52RXEJKR81A
899,74,,1.0,54.0,2901947423-70311.jpg,2238573447-333826.jpg,2.0,,,,AK52RXEJKR81A
900,75,,1.0,55.0,2458347385-199723.jpg,2238480434-93829.jpg,1.0,,,,AK52RXEJKR81A
901,76,,1.0,56.0,2883273443-68193.jpg,2460547508-51572.jpg,2.0,,,,AK52RXEJKR81A
902,77,,1.0,57.0,2986451363-73599.jpg,2860302315-210704.jpg,2.0,,,,AK52RXEJKR81A
903,78,,1.0,58.0,2874301407-363895.jpg,2901947323-70275.jpg,3.0,,,,AK52RXEJKR81A
904,79,,1.0,59.0,2898635428-69104.jpg,2901943411-292945.jpg,2.0,,,,AK52RXEJKR81A
905,80,,1.0,60.0,2898618444-142233.jpg,2898618444-142232.jpg,3.0,,,,AK52RXEJKR81A
906,81,,1.0,61.0,2898618390-216538.jpg,2237856148-989.jpg,1.0,,,,AK52RXEJKR81A
907,82,,1.0,62.0,2238481198-19822.jpg,2238480803-19737.jpg,3.0,,,,AK52RXEJKR81A
908,83,,1.0,63.0,2901941401-292798.jpg,2898631468-68931.jpg,3.0,,,,AK52RXEJKR81A
909,84,,1.0,64.0,2238425482-313537.jpg,2238471391-240918.jpg,1.0,,,,AK52RXEJKR81A
910,20,,1.0,0.0,2874302418-65979.jpg,2238480648-19714.jpg,2.0,,,,ALYR5CI2SM2JC
911,21,,1.0,1.0,2883268412-365898.jpg,2238436252-314037.jpg,3.0,,,,ALYR5CI2SM2JC
912,22,,1.0,2.0,2898635428-69104.jpg,2446759803-49250.jpg,1.0,,,,ALYR5CI2SM2JC
913,23,,1.0,3.0,2238481928-19949.jpg,2981241419-145844.jpg,3.0,,,,ALYR5CI2SM2JC
914,24,,1.0,4.0,2238572663-35822.jpg,2238584894-113161.jpg,1.0,,,,ALYR5CI2SM2JC
915,25,,1.0,5.0,2874303365-214262.jpg,2864911457-362260.jpg,3.0,,,,ALYR5CI2SM2JC
916,26,,1.0,6.0,2964218374-144967.jpg,2964218374-144968.jpg,1.0,,,,ALYR5CI2SM2JC
917,27,left,1.0,7.0,left.jpg,,,left,0.6082,,ALYR5CI2SM2JC
918,28,,1.0,8.0,2898618444-142233.jpg,2238555262-330312.jpg,2.0,,,,ALYR5CI2SM2JC
919,29,,1.0,9.0,2898633421-291973.jpg,2512876023-52283.jpg,1.0,,,,ALYR5CI2SM2JC
920,30,,1.0,10.0,2874302418-65978.jpg,2238481198-19823.jpg,2.0,,,,ALYR5CI2SM2JC
921,31,,1.0,11.0,2452381505-199546.jpg,2994401319-148290.jpg,3.0,,,,ALYR5CI2SM2JC
922,32,,1.0,12.0,2452380832-348593.jpg,2238481813-19930.jpg,2.0,,,,ALYR5CI2SM2JC
923,33,,1.0,13.0,2981231403-71642.jpg,2579432519-130698.jpg,1.0,,,,ALYR5CI2SM2JC
924,34,,1.0,14.0,2460547467-349421.jpg,2898631394-142727.jpg,1.0,,,,ALYR5CI2SM2JC
925,35,,1.0,15.0,2874299429-139695.jpg,2883266388-67750.jpg,1.0,,,,ALYR5CI2SM2JC
926,36,,1.0,16.0,2901939379-143480.jpg,2898632385-217139.jpg,3.0,,,,ALYR5CI2SM2JC
927,37,right,1.0,17.0,right.jpg,,,right,0.5131,,ALYR5CI2SM2JC
928,38,,1.0,18.0,2460547467-349422.jpg,2898618440-216545.jpg,1.0,,,,ALYR5CI2SM2JC
929,39,,1.0,19.0,2986451363-73598.jpg,2237857458-1324.jpg,1.0,,,,ALYR5CI2SM2JC
930,40,,1.0,20.0,2981241414-145842.jpg,2238516618-25604.jpg,1.0,,,,ALYR5CI2SM2JC
931,41,,1.0,21.0,2512875899-126682.jpg,2460547536-274179.jpg,1.0,,,,ALYR5CI2SM2JC
932,42,,1.0,22.0,2868474407-362883.jpg,2981246400-220363.jpg,2.0,,,,ALYR5CI2SM2JC
933,43,,1.0,23.0,2458347385-199723.jpg,2427874554-121863.jpg,2.0,,,,ALYR5CI2SM2JC
934,44,,1.0,24.0,2864910426-287204.jpg,2883268412-365899.jpg,2.0,,,,ALYR5CI2SM2JC
935,45,,1.0,25.0,2901952513-70703.jpg,2238481198-19821.jpg,3.0,,,,ALYR5CI2SM2JC
936,46,right,1.0,26.0,right.jpg,,,right,0.5018,,ALYR5CI2SM2JC
937,47,,1.0,27.0,2883256307-365057.jpg,2864904453-63933.jpg,3.0,,,,ALYR5CI2SM2JC
938,48,,1.0,28.0,2898634397-367080.jpg,2237944827-301472.jpg,1.0,,,,ALYR5CI2SM2JC
939,49,,1.0,29.0,2883268471-290842.jpg,2883255450-215310.jpg,2.0,,,,ALYR5CI2SM2JC
940,50,,1.0,30.0,2446759803-49249.jpg,2901951392-368654.jpg,3.0,,,,ALYR5CI2SM2JC
941,51,,1.0,31.0,2964223381-294447.jpg,2901941438-69836.jpg,2.0,,,,ALYR5CI2SM2JC
942,52,,1.0,32.0,2238425482-313537.jpg,2898633480-217190.jpg,3.0,,,,ALYR5CI2SM2JC
943,53,,1.0,33.0,2460547508-51571.jpg,2901941438-69835.jpg,3.0,,,,ALYR5CI2SM2JC
944,54,,1.0,34.0,2449442529-124445.jpg,2452380171-273112.jpg,1.0,,,,ALYR5CI2SM2JC
945,55,,1.0,35.0,2883273443-68193.jpg,2460547508-51572.jpg,2.0,,,,ALYR5CI2SM2JC
946,56,,1.0,36.0,2238481198-19822.jpg,2862691449-137104.jpg,1.0,,,,ALYR5CI2SM2JC
947,57,,1.0,37.0,2238560245-182099.jpg,2874314526-289684.jpg,2.0,,,,ALYR5CI2SM2JC
948,58,,1.0,38.0,2238480677-317399.jpg,2238481630-168218.jpg,1.0,,,,ALYR5CI2SM2JC
949,59,,1.0,39.0,2964222378-71332.jpg,2981240424-145794.jpg,1.0,,,,ALYR5CI2SM2JC
950,60,,1.0,40.0,2986451363-73599.jpg,2860302315-210704.jpg,2.0,,,,ALYR5CI2SM2JC
951,61,,1.0,41.0,2874301407-363895.jpg,2901947323-70275.jpg,3.0,,,,ALYR5CI2SM2JC
952,62,,1.0,42.0,2575120738-55529.jpg,2238531493-28260.jpg,3.0,,,,ALYR5CI2SM2JC
953,63,right,1.0,43.0,right.jpg,,,right,0.4104,,ALYR5CI2SM2JC
954,64,,1.0,44.0,2898624426-291546.jpg,2981236443-71859.jpg,2.0,,,,ALYR5CI2SM2JC
955,65,,1.0,45.0,2592380177-354626.jpg,2864901386-286797.jpg,2.0,,,,ALYR5CI2SM2JC
956,66,,1.0,46.0,2901947423-70311.jpg,2238573447-333826.jpg,2.0,,,,ALYR5CI2SM2JC
957,67,right,1.0,47.0,right.jpg,,,right,0.4688,,ALYR5CI2SM2JC
958,68,,1.0,48.0,2901939379-143479.jpg,2446758985-197610.jpg,2.0,,,,ALYR5CI2SM2JC
959,69,,1.0,49.0,2964213381-294060.jpg,2964213381-294061.jpg,3.0,,,,ALYR5CI2SM2JC
960,70,,1.0,50.0,2592379964-131054.jpg,2592380272-354673.jpg,3.0,,,,ALYR5CI2SM2JC
961,71,,1.0,51.0,2592380177-354629.jpg,2512875587-350044.jpg,3.0,,,,ALYR5CI2SM2JC
962,72,,1.0,52.0,2874299429-139694.jpg,2986447306-296584.jpg,1.0,,,,ALYR5CI2SM2JC
963,73,,1.0,53.0,2898618390-216538.jpg,2237856148-989.jpg,1.0,,,,ALYR5CI2SM2JC
964,74,,1.0,54.0,2868475410-213219.jpg,2238480803-19739.jpg,2.0,,,,ALYR5CI2SM2JC
965,75,,1.0,55.0,2864907432-362042.jpg,2864901420-212147.jpg,1.0,,,,ALYR5CI2SM2JC
966,76,,1.0,56.0,2449442529-124446.jpg,2460547536-274178.jpg,3.0,,,,ALYR5CI2SM2JC
967,77,,1.0,57.0,2238580740-186218.jpg,2964220333-71258.jpg,3.0,,,,ALYR5CI2SM2JC
968,78,,1.0,58.0,2898635427-367120.jpg,2898621427-366486.jpg,3.0,,,,ALYR5CI2SM2JC
969,79,,1.0,59.0,2874307433-66280.jpg,2981246400-220365.jpg,2.0,,,,ALYR5CI2SM2JC
970,80,,1.0,60.0,2898617468-68274.jpg,2901943387-368037.jpg,2.0,,,,ALYR5CI2SM2JC
971,81,,1.0,61.0,2446758985-197609.jpg,2898624426-291544.jpg,3.0,,,,ALYR5CI2SM2JC
972,82,,1.0,62.0,2901941401-292798.jpg,2898631468-68931.jpg,3.0,,,,ALYR5CI2SM2JC
973,83,,1.0,63.0,2964216465-219242.jpg,2864900319-137787.jpg,2.0,,,,ALYR5CI2SM2JC
974,84,,1.0,64.0,2238428357-313623.jpg,2238499057-320266.jpg,1.0,,,,ALYR5CI2SM2JC
975,20,,1.0,0.0,2898635427-367120.jpg,2898621427-366486.jpg,3.0,,,,AZD5EFRI6AB7X
976,21,,1.0,1.0,2874299429-139695.jpg,2446760917-347439.jpg,3.0,,,,AZD5EFRI6AB7X
977,22,,1.0,2.0,2238572663-35822.jpg,2864903351-286874.jpg,3.0,,,,AZD5EFRI6AB7X
978,23,,1.0,3.0,2986451363-73599.jpg,2860302315-210704.jpg,2.0,,,,AZD5EFRI6AB7X
979,24,,1.0,4.0,2446759803-49249.jpg,2901951392-368654.jpg,3.0,,,,AZD5EFRI6AB7X
980,25,,1.0,5.0,2898617468-68274.jpg,2901946439-144040.jpg,1.0,,,,AZD5EFRI6AB7X
981,26,,1.0,6.0,2446758985-197609.jpg,2981240424-145795.jpg,1.0,,,,AZD5EFRI6AB7X
982,27,,1.0,7.0,2458347385-199723.jpg,2427874554-121863.jpg,2.0,,,,AZD5EFRI6AB7X
983,28,,1.0,8.0,2898624426-291546.jpg,2964218432-369263.jpg,1.0,,,,AZD5EFRI6AB7X
984,29,,1.0,9.0,2898618390-216538.jpg,2575120609-129862.jpg,3.0,,,,AZD5EFRI6AB7X
985,30,,1.0,10.0,2460547467-349421.jpg,2898631394-142727.jpg,1.0,,,,AZD5EFRI6AB7X
986,31,,1.0,11.0,2460547467-349422.jpg,2864909447-362146.jpg,3.0,,,,AZD5EFRI6AB7X
987,32,,0.0,12.0,right.jpg,,,right,,,AZD5EFRI6AB7X
988,33,,1.0,13.0,2868475410-213219.jpg,2868474407-362885.jpg,3.0,,,,AZD5EFRI6AB7X
989,34,,1.0,14.0,2901939379-143480.jpg,2981229442-369621.jpg,2.0,,,,AZD5EFRI6AB7X
990,35,,1.0,15.0,2986451363-73598.jpg,2984628361-295995.jpg,2.0,,,,AZD5EFRI6AB7X
991,36,,1.0,16.0,2874301407-363895.jpg,2901947323-70275.jpg,3.0,,,,AZD5EFRI6AB7X
992,37,left,1.0,17.0,left.jpg,,,left,2.1915,,AZD5EFRI6AB7X
993,38,,1.0,18.0,2901947423-70311.jpg,2238573447-333826.jpg,2.0,,,,AZD5EFRI6AB7X
994,39,,1.0,19.0,2460547508-51571.jpg,2452380166-273109.jpg,1.0,,,,AZD5EFRI6AB7X
995,40,,1.0,20.0,2883268412-365898.jpg,2984626312-370849.jpg,1.0,,,,AZD5EFRI6AB7X
996,41,,1.0,21.0,2452381505-199546.jpg,2898632385-217138.jpg,2.0,,,,AZD5EFRI6AB7X
997,42,,1.0,22.0,2238481928-19949.jpg,2883264367-365620.jpg,1.0,,,,AZD5EFRI6AB7X
998,43,,1.0,23.0,2901941401-292798.jpg,2898618327-366317.jpg,1.0,,,,AZD5EFRI6AB7X
999,44,,1.0,24.0,2868474407-362883.jpg,2460547732-349518.jpg,1.0,,,,AZD5EFRI6AB7X
1000,45,,1.0,25.0,2449442529-124446.jpg,2446759803-49251.jpg,1.0,,,,AZD5EFRI6AB7X
1001,46,,1.0,26.0,2898633421-291973.jpg,2512876023-52283.jpg,1.0,,,,AZD5EFRI6AB7X
1002,47,,1.0,27.0,2592380177-354629.jpg,2512875587-350044.jpg,3.0,,,,AZD5EFRI6AB7X
1003,48,,1.0,28.0,2592379964-131054.jpg,2592380272-354673.jpg,3.0,,,,AZD5EFRI6AB7X
1004,49,,1.0,29.0,2864910426-287204.jpg,2901939433-69672.jpg,3.0,,,,AZD5EFRI6AB7X
1005,50,,1.0,30.0,2238428357-313623.jpg,2238499057-320266.jpg,1.0,,,,AZD5EFRI6AB7X
1006,51,,1.0,31.0,2964223381-294447.jpg,2901941438-69836.jpg,2.0,,,,AZD5EFRI6AB7X
1007,52,,1.0,32.0,2452380832-348593.jpg,2238481813-19930.jpg,2.0,,,,AZD5EFRI6AB7X
1008,53,right,1.0,33.0,right.jpg,,,right,1.8578,,AZD5EFRI6AB7X
1009,54,,1.0,34.0,2964222378-71332.jpg,2901933382-367209.jpg,2.0,,,,AZD5EFRI6AB7X
1010,55,,1.0,35.0,2901939379-143479.jpg,2446758985-197610.jpg,2.0,,,,AZD5EFRI6AB7X
1011,56,,1.0,36.0,2575120738-55529.jpg,2238531493-28260.jpg,3.0,,,,AZD5EFRI6AB7X
1012,57,,1.0,37.0,2874302418-65978.jpg,2964224310-219528.jpg,1.0,,,,AZD5EFRI6AB7X
1013,58,,1.0,38.0,2874307433-66280.jpg,2981231422-369714.jpg,3.0,,,,AZD5EFRI6AB7X
1014,59,,1.0,39.0,2964218374-144967.jpg,2981231446-294732.jpg,3.0,,,,AZD5EFRI6AB7X
1015,60,,1.0,40.0,2874299429-139694.jpg,2981244403-72215.jpg,2.0,,,,AZD5EFRI6AB7X
1016,61,,1.0,41.0,2964216465-219242.jpg,2898619327-366362.jpg,3.0,,,,AZD5EFRI6AB7X
1017,62,,1.0,42.0,2238480677-317399.jpg,2238481630-168218.jpg,1.0,,,,AZD5EFRI6AB7X
1018,63,,1.0,43.0,2964213381-294060.jpg,2964213381-294061.jpg,3.0,,,,AZD5EFRI6AB7X
1019,64,right,1.0,44.0,right.jpg,,,right,1.7822,,AZD5EFRI6AB7X
1020,65,,1.0,45.0,2898618444-142233.jpg,2898631359-142721.jpg,1.0,,,,AZD5EFRI6AB7X
1021,66,,1.0,46.0,2238481198-19822.jpg,2238480803-19737.jpg,3.0,,,,AZD5EFRI6AB7X
1022,67,,1.0,47.0,2883268471-290842.jpg,2901947448-70314.jpg,3.0,,,,AZD5EFRI6AB7X
1023,68,,0.0,48.0,right.jpg,,,right,,,AZD5EFRI6AB7X
1024,69,,1.0,49.0,2238425482-313537.jpg,2238436322-314047.jpg,2.0,,,,AZD5EFRI6AB7X
1025,70,,1.0,50.0,2901952513-70703.jpg,2868469411-287540.jpg,2.0,,,,AZD5EFRI6AB7X
1026,71,,1.0,51.0,2874303365-214262.jpg,2238563377-332054.jpg,2.0,,,,AZD5EFRI6AB7X
1027,72,,1.0,52.0,2512875899-126682.jpg,2592380177-354628.jpg,2.0,,,,AZD5EFRI6AB7X
1028,73,,1.0,53.0,2981231403-71642.jpg,2579432519-130698.jpg,1.0,,,,AZD5EFRI6AB7X
1029,74,,1.0,54.0,2898634397-367080.jpg,2901934408-69289.jpg,2.0,,,,AZD5EFRI6AB7X
1030,75,,1.0,55.0,2874302418-65979.jpg,2238578544-111698.jpg,3.0,,,,AZD5EFRI6AB7X
1031,76,,1.0,56.0,2238560245-182099.jpg,2592380255-205553.jpg,1.0,,,,AZD5EFRI6AB7X
1032,77,,1.0,57.0,2883273443-68193.jpg,2883254439-140940.jpg,1.0,,,,AZD5EFRI6AB7X
1033,78,,1.0,58.0,2883256307-365057.jpg,2964210336-293945.jpg,2.0,,,,AZD5EFRI6AB7X
1034,79,,1.0,59.0,2864907432-362042.jpg,2901947423-70310.jpg,2.0,,,,AZD5EFRI6AB7X
1035,80,,1.0,60.0,2592380177-354626.jpg,2238576792-334659.jpg,1.0,,,,AZD5EFRI6AB7X
1036,81,,1.0,61.0,2238580740-186218.jpg,2238521193-26285.jpg,2.0,,,,AZD5EFRI6AB7X
1037,82,,1.0,62.0,2898635428-69104.jpg,2446759803-49250.jpg,1.0,,,,AZD5EFRI6AB7X
1038,83,,1.0,63.0,2449442529-124445.jpg,2898632385-217137.jpg,3.0,,,,AZD5EFRI6AB7X
1039,84,,1.0,64.0,2981241414-145842.jpg,2874301404-139813.jpg,2.0,,,,AZD5EFRI6AB7X
1040,20,,1.0,0.0,2592379964-131054.jpg,2575963989-130576.jpg,1.0,,,,A1ZFTV403BYKYJ
1041,21,,1.0,1.0,2964213381-294060.jpg,2981244394-145974.jpg,1.0,,,,A1ZFTV403BYKYJ
1042,22,,1.0,2.0,2898618390-216538.jpg,2237856148-989.jpg,1.0,,,,A1ZFTV403BYKYJ
1043,23,,1.0,3.0,2981241414-145842.jpg,2238516618-25604.jpg,1.0,,,,A1ZFTV403BYKYJ
1044,24,,1.0,4.0,2898634397-367080.jpg,2901934408-69289.jpg,2.0,,,,A1ZFTV403BYKYJ
1045,25,,1.0,5.0,2868474407-362883.jpg,2901948383-70363.jpg,3.0,,,,A1ZFTV403BYKYJ
1046,26,,1.0,6.0,2874302418-65978.jpg,2964224310-219528.jpg,1.0,,,,A1ZFTV403BYKYJ
1047,27,,0.0,7.0,left.jpg,,,left,,,A1ZFTV403BYKYJ
1048,28,,1.0,8.0,2898624426-291546.jpg,2981235446-294900.jpg,3.0,,,,A1ZFTV403BYKYJ
1049,29,,1.0,9.0,2238572663-35822.jpg,2864903351-286874.jpg,3.0,,,,A1ZFTV403BYKYJ
1050,30,,1.0,10.0,2868475410-213219.jpg,2238480803-19739.jpg,2.0,,,,A1ZFTV403BYKYJ
1051,31,,1.0,11.0,2452380832-348593.jpg,2238481813-19930.jpg,2.0,,,,A1ZFTV403BYKYJ
1052,32,,1.0,12.0,2901939379-143480.jpg,2981229442-369621.jpg,2.0,,,,A1ZFTV403BYKYJ
1053,33,,1.0,13.0,2575120738-55529.jpg,2238531493-28260.jpg,3.0,,,,A1ZFTV403BYKYJ
1054,34,,1.0,14.0,2883256307-365057.jpg,2864904453-63933.jpg,3.0,,,,A1ZFTV403BYKYJ
1055,35,,1.0,15.0,2901939379-143479.jpg,2446758985-197610.jpg,2.0,,,,A1ZFTV403BYKYJ
1056,36,,0.0,16.0,right.jpg,,,right,,,A1ZFTV403BYKYJ
1057,37,,1.0,17.0,2864907432-362042.jpg,2901947423-70310.jpg,2.0,,,,A1ZFTV403BYKYJ
1058,38,,1.0,18.0,2874307433-66280.jpg,2981246400-220365.jpg,2.0,,,,A1ZFTV403BYKYJ
1059,39,,1.0,19.0,2874302418-65979.jpg,2237857458-1325.jpg,1.0,,,,A1ZFTV403BYKYJ
1060,40,,1.0,20.0,2592380177-354629.jpg,2579432534-130704.jpg,2.0,,,,A1ZFTV403BYKYJ
1061,41,,1.0,21.0,2964223381-294447.jpg,2427874231-269884.jpg,1.0,,,,A1ZFTV403BYKYJ
1062,42,,1.0,22.0,2238428357-313623.jpg,2986408339-146952.jpg,3.0,,,,A1ZFTV403BYKYJ
1063,43,,1.0,23.0,2460547467-349422.jpg,2898618440-216545.jpg,1.0,,,,A1ZFTV403BYKYJ
1064,44,,1.0,24.0,2452381505-199546.jpg,2901938432-367627.jpg,1.0,,,,A1ZFTV403BYKYJ
1065,45,,1.0,25.0,2449442529-124446.jpg,2446759803-49251.jpg,1.0,,,,A1ZFTV403BYKYJ
1066,46,,1.0,26.0,2981231403-71642.jpg,2427873763-47290.jpg,3.0,,,,A1ZFTV403BYKYJ
1067,47,,0.0,27.0,right.jpg,,,right,,,A1ZFTV403BYKYJ
1068,48,,1.0,28.0,2460547467-349421.jpg,2898631394-142727.jpg,1.0,,,,A1ZFTV403BYKYJ
1069,49,,1.0,29.0,2883268471-290842.jpg,2883255450-215310.jpg,2.0,,,,A1ZFTV403BYKYJ
1070,50,,1.0,30.0,2901952513-70703.jpg,2868469411-287540.jpg,2.0,,,,A1ZFTV403BYKYJ
1071,51,,1.0,31.0,2898635427-367120.jpg,2868479517-363220.jpg,2.0,,,,A1ZFTV403BYKYJ
1072,52,,1.0,32.0,2449442529-124445.jpg,2986408373-73286.jpg,2.0,,,,A1ZFTV403BYKYJ
1073,53,,1.0,33.0,2238481198-19822.jpg,2238480803-19737.jpg,3.0,,,,A1ZFTV403BYKYJ
1074,54,,1.0,34.0,2458347385-199723.jpg,2458347252-348911.jpg,3.0,,,,A1ZFTV403BYKYJ
1075,55,,1.0,35.0,2238580740-186218.jpg,2238550816-254000.jpg,1.0,,,,A1ZFTV403BYKYJ
1076,56,,1.0,36.0,2238481928-19949.jpg,2981241419-145844.jpg,3.0,,,,A1ZFTV403BYKYJ
1077,57,,1.0,37.0,2874299429-139695.jpg,2883266388-67750.jpg,1.0,,,,A1ZFTV403BYKYJ
1078,58,,1.0,38.0,2964222378-71332.jpg,2981240424-145794.jpg,1.0,,,,A1ZFTV403BYKYJ
1079,59,,1.0,39.0,2446758985-197609.jpg,2981240424-145795.jpg,1.0,,,,A1ZFTV403BYKYJ
1080,60,,0.0,40.0,right.jpg,,,right,,,A1ZFTV403BYKYJ
1081,61,,1.0,41.0,2883273443-68193.jpg,2883254439-140940.jpg,1.0,,,,A1ZFTV403BYKYJ
1082,62,,1.0,42.0,2901941401-292798.jpg,2981243412-370222.jpg,2.0,,,,A1ZFTV403BYKYJ
1083,63,,1.0,43.0,2238560245-182099.jpg,2238480980-168129.jpg,3.0,,,,A1ZFTV403BYKYJ
1084,64,,1.0,44.0,2874299429-139694.jpg,2883266367-365742.jpg,3.0,,,,A1ZFTV403BYKYJ
1085,65,,1.0,45.0,2898617468-68274.jpg,2901946439-144040.jpg,1.0,,,,A1ZFTV403BYKYJ
1086,66,,1.0,46.0,2592380177-354626.jpg,2238117096-228518.jpg,3.0,,,,A1ZFTV403BYKYJ
1087,67,,1.0,47.0,2901947423-70311.jpg,2238577590-185467.jpg,3.0,,,,A1ZFTV403BYKYJ
1088,68,,1.0,48.0,2964216465-219242.jpg,2864900319-137787.jpg,2.0,,,,A1ZFTV403BYKYJ
1089,69,,1.0,49.0,2986451363-73598.jpg,2901942443-69925.jpg,3.0,,,,A1ZFTV403BYKYJ
1090,70,,0.0,50.0,left.jpg,,,left,,,A1ZFTV403BYKYJ
1091,71,,1.0,51.0,2883268412-365898.jpg,2984626312-370849.jpg,1.0,,,,A1ZFTV403BYKYJ
1092,72,,1.0,52.0,2986451363-73599.jpg,2860302315-210704.jpg,2.0,,,,A1ZFTV403BYKYJ
1093,73,,1.0,53.0,2898633421-291973.jpg,2238550049-105691.jpg,3.0,,,,A1ZFTV403BYKYJ
1094,74,,1.0,54.0,2964218374-144967.jpg,2981231446-294732.jpg,3.0,,,,A1ZFTV403BYKYJ
1095,75,,1.0,55.0,2238425482-313537.jpg,2238436322-314047.jpg,2.0,,,,A1ZFTV403BYKYJ
1096,76,,1.0,56.0,2446759803-49249.jpg,2898618440-216547.jpg,2.0,,,,A1ZFTV403BYKYJ
1097,77,,1.0,57.0,2512875899-126682.jpg,2986447332-371497.jpg,3.0,,,,A1ZFTV403BYKYJ
1098,78,,1.0,58.0,2864910426-287204.jpg,2901939433-69672.jpg,3.0,,,,A1ZFTV403BYKYJ
1099,79,,1.0,59.0,2874301407-363895.jpg,2446761374-124213.jpg,1.0,,,,A1ZFTV403BYKYJ
1100,80,,1.0,60.0,2898635428-69104.jpg,2446759803-49250.jpg,1.0,,,,A1ZFTV403BYKYJ
1101,81,,1.0,61.0,2874303365-214262.jpg,2864911457-362260.jpg,3.0,,,,A1ZFTV403BYKYJ
1102,82,,1.0,62.0,2238480677-317399.jpg,2238573546-258454.jpg,2.0,,,,A1ZFTV403BYKYJ
1103,83,,1.0,63.0,2460547508-51571.jpg,2981232437-369759.jpg,2.0,,,,A1ZFTV403BYKYJ
1104,84,,1.0,64.0,2898618444-142233.jpg,2238555262-330312.jpg,2.0,,,,A1ZFTV403BYKYJ
1105,20,,1.0,0.0,2874299429-139694.jpg,2883266367-365742.jpg,3.0,,,,AZ35WMIEU4RRK
1106,21,,1.0,1.0,2964213381-294060.jpg,2964213381-294061.jpg,3.0,,,,AZ35WMIEU4RRK
1107,22,,1.0,2.0,2864907432-362042.jpg,2989726338-74002.jpg,3.0,,,,AZ35WMIEU4RRK
1108,23,,1.0,3.0,2592380177-354626.jpg,2238576792-334659.jpg,1.0,,,,AZ35WMIEU4RRK
1109,24,,1.0,4.0,2883273443-68193.jpg,2883254439-140940.jpg,1.0,,,,AZ35WMIEU4RRK
1110,25,,1.0,5.0,2460547467-349422.jpg,2898618440-216545.jpg,1.0,,,,AZ35WMIEU4RRK
1111,26,,1.0,6.0,2238425482-313537.jpg,2898633480-217190.jpg,3.0,,,,AZ35WMIEU4RRK
1112,27,,1.0,7.0,2446759803-49249.jpg,2901951392-368654.jpg,3.0,,,,AZ35WMIEU4RRK
1113,28,,1.0,8.0,2868474407-362883.jpg,2901948383-70363.jpg,3.0,,,,AZ35WMIEU4RRK
1114,29,right,1.0,9.0,right.jpg,,,right,1.22,,AZ35WMIEU4RRK
1115,30,,1.0,10.0,2898635428-69104.jpg,2446759803-49250.jpg,1.0,,,,AZ35WMIEU4RRK
1116,31,,1.0,11.0,2898635427-367120.jpg,2898621427-366486.jpg,3.0,,,,AZ35WMIEU4RRK
1117,32,,1.0,12.0,2898618444-142233.jpg,2238555262-330312.jpg,2.0,,,,AZ35WMIEU4RRK
1118,33,,1.0,13.0,2898624426-291546.jpg,2964218432-369263.jpg,1.0,,,,AZ35WMIEU4RRK
1119,34,,1.0,14.0,2446758985-197609.jpg,2864909447-362144.jpg,2.0,,,,AZ35WMIEU4RRK
1120,35,,1.0,15.0,2964218374-144967.jpg,2446759306-271734.jpg,2.0,,,,AZ35WMIEU4RRK
1121,36,,1.0,16.0,2238481928-19949.jpg,2883264367-365620.jpg,1.0,,,,AZ35WMIEU4RRK
1122,37,,0.0,17.0,left.jpg,,,left,,,AZ35WMIEU4RRK
1123,38,,1.0,18.0,2864910426-287204.jpg,2901939433-69672.jpg,3.0,,,,AZ35WMIEU4RRK
1124,39,,1.0,19.0,2986451363-73598.jpg,2901942443-69925.jpg,3.0,,,,AZ35WMIEU4RRK
1125,40,,1.0,20.0,2901947423-70311.jpg,2860312398-62572.jpg,1.0,,,,AZ35WMIEU4RRK
1126,41,,1.0,21.0,2452380832-348593.jpg,2238481813-19930.jpg,2.0,,,,AZ35WMIEU4RRK
1127,42,,1.0,22.0,2592380177-354629.jpg,2512875587-350044.jpg,3.0,,,,AZ35WMIEU4RRK
1128,43,,1.0,23.0,2898618390-216538.jpg,2901939327-367670.jpg,2.0,,,,AZ35WMIEU4RRK
1129,44,,1.0,24.0,2460547508-51571.jpg,2901941438-69835.jpg,3.0,,,,AZ35WMIEU4RRK
1130,45,,1.0,25.0,2238480677-317399.jpg,2238480278-19661.jpg,3.0,,,,AZ35WMIEU4RRK
1131,46,,1.0,26.0,2874302418-65978.jpg,2898633321-291943.jpg,3.0,,,,AZ35WMIEU4RRK
1132,47,,1.0,27.0,2964222378-71332.jpg,2901933382-367209.jpg,2.0,,,,AZ35WMIEU4RRK
1133,48,,1.0,28.0,2449442529-124446.jpg,2460547536-274181.jpg,2.0,,,,AZ35WMIEU4RRK
1134,49,,1.0,29.0,2986451363-73599.jpg,2898626385-216899.jpg,1.0,,,,AZ35WMIEU4RRK
1135,50,,1.0,30.0,2981231403-71642.jpg,2579432519-130698.jpg,1.0,,,,AZ35WMIEU4RRK
1136,51,right,1.0,31.0,right.jpg,,,right,1.267,,AZ35WMIEU4RRK
1137,52,,1.0,32.0,2901939379-143480.jpg,2981229442-369621.jpg,2.0,,,,AZ35WMIEU4RRK
1138,53,,1.0,33.0,2883256307-365057.jpg,2611628310-206388.jpg,1.0,,,,AZ35WMIEU4RRK
1139,54,,1.0,34.0,2575120738-55529.jpg,2575120738-55528.jpg,2.0,,,,AZ35WMIEU4RRK
1140,55,,1.0,35.0,2458347385-199723.jpg,2238480434-93829.jpg,1.0,,,,AZ35WMIEU4RRK
1141,56,,1.0,36.0,2901939379-143479.jpg,2460547467-349423.jpg,1.0,,,,AZ35WMIEU4RRK
1142,57,right,1.0,37.0,right.jpg,,,right,1.29,,AZ35WMIEU4RRK
1143,58,,1.0,38.0,2592379964-131054.jpg,2592380272-354673.jpg,3.0,,,,AZ35WMIEU4RRK
1144,59,,1.0,39.0,2874302418-65979.jpg,2237857458-1325.jpg,1.0,,,,AZ35WMIEU4RRK
1145,60,,1.0,40.0,2901952513-70703.jpg,2868469411-287540.jpg,2.0,,,,AZ35WMIEU4RRK
1146,61,,1.0,41.0,2964216465-219242.jpg,2238544191-252422.jpg,1.0,,,,AZ35WMIEU4RRK
1147,62,,1.0,42.0,2238560245-182099.jpg,2592380255-205553.jpg,1.0,,,,AZ35WMIEU4RRK
1148,63,,1.0,43.0,2964223381-294447.jpg,2898628438-68785.jpg,3.0,,,,AZ35WMIEU4RRK
1149,64,,1.0,44.0,2238572663-35822.jpg,2864903351-286874.jpg,3.0,,,,AZ35WMIEU4RRK
1150,65,,1.0,45.0,2449442529-124445.jpg,2986408373-73286.jpg,2.0,,,,AZ35WMIEU4RRK
1151,66,,1.0,46.0,2898633421-291973.jpg,2238550049-105691.jpg,3.0,,,,AZ35WMIEU4RRK
1152,67,,1.0,47.0,2874307433-66280.jpg,2984615358-72439.jpg,1.0,,,,AZ35WMIEU4RRK
1153,68,,1.0,48.0,2452381505-199546.jpg,2901938432-367627.jpg,1.0,,,,AZ35WMIEU4RRK
1154,69,,1.0,49.0,2874301407-363895.jpg,2446761374-124213.jpg,1.0,,,,AZ35WMIEU4RRK
1155,70,,1.0,50.0,2883268471-290842.jpg,2883255450-215310.jpg,2.0,,,,AZ35WMIEU4RRK
1156,71,,1.0,51.0,2898634397-367080.jpg,2237944827-301472.jpg,1.0,,,,AZ35WMIEU4RRK
1157,72,,1.0,52.0,2460547467-349421.jpg,2452380166-273110.jpg,2.0,,,,AZ35WMIEU4RRK
1158,73,left,1.0,53.0,left.jpg,,,left,1.218,,AZ35WMIEU4RRK
1159,74,,1.0,54.0,2874303365-214262.jpg,2238563377-332054.jpg,2.0,,,,AZ35WMIEU4RRK
1160,75,,1.0,55.0,2901941401-292798.jpg,2981243412-370222.jpg,2.0,,,,AZ35WMIEU4RRK
1161,76,,1.0,56.0,2874299429-139695.jpg,2901942443-69923.jpg,2.0,,,,AZ35WMIEU4RRK
1162,77,,1.0,57.0,2868475410-213219.jpg,2901946465-218350.jpg,1.0,,,,AZ35WMIEU4RRK
1163,78,,1.0,58.0,2981241414-145842.jpg,2427873848-47312.jpg,3.0,,,,AZ35WMIEU4RRK
1164,79,,1.0,59.0,2898617468-68274.jpg,2901943387-368037.jpg,2.0,,,,AZ35WMIEU4RRK
1165,80,,1.0,60.0,2883268412-365898.jpg,2238436252-314037.jpg,3.0,,,,AZ35WMIEU4RRK
1166,81,,1.0,61.0,2238428357-313623.jpg,2986408339-146952.jpg,3.0,,,,AZ35WMIEU4RRK
1167,82,,1.0,62.0,2238580740-186218.jpg,2238521193-26285.jpg,2.0,,,,AZ35WMIEU4RRK
1168,83,,1.0,63.0,2238481198-19822.jpg,2901946436-293242.jpg,2.0,,,,AZ35WMIEU4RRK
1169,84,,1.0,64.0,2512875899-126682.jpg,2592380177-354628.jpg,2.0,,,,AZ35WMIEU4RRK
1170,20,,1.0,0.0,2238580740-186218.jpg,2964220333-71258.jpg,3.0,,,,AOOLS8280CL0Z
1171,21,,1.0,1.0,2901939379-143480.jpg,2901942428-69919.jpg,1.0,,,,AOOLS8280CL0Z
1172,22,,1.0,2.0,2238560245-182099.jpg,2874314526-289684.jpg,2.0,,,,AOOLS8280CL0Z
1173,23,,1.0,3.0,2883268412-365898.jpg,2984615361-295510.jpg,2.0,,,,AOOLS8280CL0Z
1174,24,,1.0,4.0,2964223381-294447.jpg,2901941438-69836.jpg,2.0,,,,AOOLS8280CL0Z
1175,25,,1.0,5.0,2460547508-51571.jpg,2452380166-273109.jpg,1.0,,,,AOOLS8280CL0Z
1176,26,,1.0,6.0,2868475410-213219.jpg,2238480803-19739.jpg,2.0,,,,AOOLS8280CL0Z
1177,27,,1.0,7.0,2898618444-142233.jpg,2898631359-142721.jpg,1.0,,,,AOOLS8280CL0Z
1178,28,,1.0,8.0,2901952513-70703.jpg,2868469411-287540.jpg,2.0,,,,AOOLS8280CL0Z
1179,29,,1.0,9.0,2883273443-68193.jpg,2883254439-140940.jpg,1.0,,,,AOOLS8280CL0Z
1180,30,,1.0,10.0,2238480677-317399.jpg,2238573546-258454.jpg,2.0,,,,AOOLS8280CL0Z
1181,31,,1.0,11.0,2964222378-71332.jpg,2981240427-370099.jpg,3.0,,,,AOOLS8280CL0Z
1182,32,,1.0,12.0,2452380832-348593.jpg,2237858942-299356.jpg,3.0,,,,AOOLS8280CL0Z
1183,33,,1.0,13.0,2864907432-362042.jpg,2864901420-212147.jpg,1.0,,,,AOOLS8280CL0Z
1184,34,right,1.0,14.0,right.jpg,,,right,0.6332,,AOOLS8280CL0Z
1185,35,,1.0,15.0,2460547467-349422.jpg,2898618440-216545.jpg,1.0,,,,AOOLS8280CL0Z
1186,36,,1.0,16.0,2898633421-291973.jpg,2512876023-52283.jpg,1.0,,,,AOOLS8280CL0Z
1187,37,right,1.0,17.0,right.jpg,,,right,0.5502,,AOOLS8280CL0Z
1188,38,,1.0,18.0,2883268471-290842.jpg,2901947448-70314.jpg,3.0,,,,AOOLS8280CL0Z
1189,39,,1.0,19.0,2449442529-124446.jpg,2460547536-274178.jpg,3.0,,,,AOOLS8280CL0Z
1190,40,,1.0,20.0,2874302418-65979.jpg,2238578544-111698.jpg,3.0,,,,AOOLS8280CL0Z
1191,41,,1.0,21.0,2592380177-354626.jpg,2864901386-286797.jpg,2.0,,,,AOOLS8280CL0Z
1192,42,,1.0,22.0,2874302418-65978.jpg,2238481198-19823.jpg,2.0,,,,AOOLS8280CL0Z
1193,43,,1.0,23.0,2238425482-313537.jpg,2238436322-314047.jpg,2.0,,,,AOOLS8280CL0Z
1194,44,,1.0,24.0,2986451363-73598.jpg,2901942443-69925.jpg,3.0,,,,AOOLS8280CL0Z
1195,45,,1.0,25.0,2874303365-214262.jpg,2274829821-263682.jpg,1.0,,,,AOOLS8280CL0Z
1196,46,,1.0,26.0,2964218374-144967.jpg,2446759306-271734.jpg,2.0,,,,AOOLS8280CL0Z
1197,47,,1.0,27.0,2898635427-367120.jpg,2964221435-219434.jpg,1.0,,,,AOOLS8280CL0Z
1198,48,,1.0,28.0,2874299429-139695.jpg,2901942443-69923.jpg,2.0,,,,AOOLS8280CL0Z
1199,49,,1.0,29.0,2964213381-294060.jpg,2458348012-349114.jpg,2.0,,,,AOOLS8280CL0Z
1200,50,,1.0,30.0,2898624426-291546.jpg,2964218432-369263.jpg,1.0,,,,AOOLS8280CL0Z
1201,51,,1.0,31.0,2986451363-73599.jpg,2860302315-210704.jpg,2.0,,,,AOOLS8280CL0Z
1202,52,,1.0,32.0,2592380177-354629.jpg,2898633421-291974.jpg,1.0,,,,AOOLS8280CL0Z
1203,53,,1.0,33.0,2238481198-19822.jpg,2238480803-19737.jpg,3.0,,,,AOOLS8280CL0Z
1204,54,left,1.0,34.0,left.jpg,,,left,0.6323,,AOOLS8280CL0Z
1205,55,,1.0,35.0,2592379964-131054.jpg,2238479053-19457.jpg,2.0,,,,AOOLS8280CL0Z
1206,56,,1.0,36.0,2575120738-55529.jpg,2864906345-212360.jpg,1.0,,,,AOOLS8280CL0Z
1207,57,,1.0,37.0,2238572663-35822.jpg,2238571930-184143.jpg,2.0,,,,AOOLS8280CL0Z
1208,58,,1.0,38.0,2874307433-66280.jpg,2981231422-369714.jpg,3.0,,,,AOOLS8280CL0Z
1209,59,,1.0,39.0,2460547467-349421.jpg,2452380166-273110.jpg,2.0,,,,AOOLS8280CL0Z
1210,60,,1.0,40.0,2883256307-365057.jpg,2611628310-206388.jpg,1.0,,,,AOOLS8280CL0Z
1211,61,right,1.0,41.0,right.jpg,,,right,0.4709,,AOOLS8280CL0Z
1212,62,,1.0,42.0,2901939379-143479.jpg,2964216376-294181.jpg,3.0,,,,AOOLS8280CL0Z
1213,63,,1.0,43.0,2238428357-313623.jpg,2986408339-146952.jpg,3.0,,,,AOOLS8280CL0Z
1214,64,,1.0,44.0,2874299429-139694.jpg,2986447306-296584.jpg,1.0,,,,AOOLS8280CL0Z
1215,65,,1.0,45.0,2458347385-199723.jpg,2458347252-348911.jpg,3.0,,,,AOOLS8280CL0Z
1216,66,,1.0,46.0,2238481928-19949.jpg,2981241419-145844.jpg,3.0,,,,AOOLS8280CL0Z
1217,67,,1.0,47.0,2864910426-287204.jpg,2864902304-137862.jpg,1.0,,,,AOOLS8280CL0Z
1218,68,right,1.0,48.0,right.jpg,,,right,0.5865,,AOOLS8280CL0Z
1219,69,,1.0,49.0,2449442529-124445.jpg,2452380171-273112.jpg,1.0,,,,AOOLS8280CL0Z
1220,70,,1.0,50.0,2446758985-197609.jpg,2898624426-291544.jpg,3.0,,,,AOOLS8280CL0Z
1221,71,,1.0,51.0,2898618390-216538.jpg,2575120609-129862.jpg,3.0,,,,AOOLS8280CL0Z
1222,72,,1.0,52.0,2452381505-199546.jpg,2898632385-217138.jpg,2.0,,,,AOOLS8280CL0Z
1223,73,,1.0,53.0,2874301407-363895.jpg,2901947323-70275.jpg,3.0,,,,AOOLS8280CL0Z
1224,74,,1.0,54.0,2964216465-219242.jpg,2864900319-137787.jpg,2.0,,,,AOOLS8280CL0Z
1225,75,,1.0,55.0,2898634397-367080.jpg,2901934408-69289.jpg,2.0,,,,AOOLS8280CL0Z
1226,76,,1.0,56.0,2446759803-49249.jpg,2446760601-272099.jpg,1.0,,,,AOOLS8280CL0Z
1227,77,,1.0,57.0,2868474407-362883.jpg,2901948383-70363.jpg,3.0,,,,AOOLS8280CL0Z
1228,78,,1.0,58.0,2981241414-145842.jpg,2238516618-25604.jpg,1.0,,,,AOOLS8280CL0Z
1229,79,,1.0,59.0,2512875899-126682.jpg,2592380177-354628.jpg,2.0,,,,AOOLS8280CL0Z
1230,80,,1.0,60.0,2898635428-69104.jpg,2898625336-291572.jpg,3.0,,,,AOOLS8280CL0Z
1231,81,,1.0,61.0,2901941401-292798.jpg,2898618327-366317.jpg,1.0,,,,AOOLS8280CL0Z
1232,82,,1.0,62.0,2901947423-70311.jpg,2860312398-62572.jpg,1.0,,,,AOOLS8280CL0Z
1233,83,,1.0,63.0,2898617468-68274.jpg,2964207374-144577.jpg,3.0,,,,AOOLS8280CL0Z
1234,84,,1.0,64.0,2981231403-71642.jpg,2427873763-47290.jpg,3.0,,,,AOOLS8280CL0Z
1235,20,,1.0,0.0,2964213381-294060.jpg,2964213381-294061.jpg,3.0,,,,A289D98Z4GAZ28
1236,21,,1.0,1.0,2898635428-69104.jpg,2898625336-291572.jpg,3.0,,,,A289D98Z4GAZ28
1237,22,,1.0,2.0,2238428357-313623.jpg,2238499057-320266.jpg,1.0,,,,A289D98Z4GAZ28
1238,23,,1.0,3.0,2981241414-145842.jpg,2874301404-139813.jpg,2.0,,,,A289D98Z4GAZ28
1239,24,,1.0,4.0,2460547467-349421.jpg,2981235446-294901.jpg,3.0,,,,A289D98Z4GAZ28
1240,25,,1.0,5.0,2874301407-363895.jpg,2986397322-371109.jpg,2.0,,,,A289D98Z4GAZ28
1241,26,,1.0,6.0,2883256307-365057.jpg,2964210336-293945.jpg,2.0,,,,A289D98Z4GAZ28
1242,27,,1.0,7.0,2460547508-51571.jpg,2901941438-69835.jpg,3.0,,,,A289D98Z4GAZ28
1243,28,,1.0,8.0,2592380177-354626.jpg,2238117096-228518.jpg,3.0,,,,A289D98Z4GAZ28
1244,29,,1.0,9.0,2901939379-143479.jpg,2446758985-197610.jpg,2.0,,,,A289D98Z4GAZ28
1245,30,,1.0,10.0,2512875899-126682.jpg,2592380177-354628.jpg,2.0,,,,A289D98Z4GAZ28
