,layer,correct,test_test_response.keys,test_test_response.corr,test_test_response.rt,trials_2.thisRepN,trials_2.thisTrialN,trials_2.thisN,trials_2.thisIndex,trials_2.ran,image1,image2,subject
0,1.0,right,right,1.0,3.7335,0.0,0.0,0.0,0.0,1.0,2864902304-137862.jpg,2864910426-287204.jpg,A3SSIUMI7ONK5W
1,1.0,left,left,1.0,1.4449,0.0,1.0,1.0,1.0,1.0,2868474407-362883.jpg,2460547732-349518.jpg,A3SSIUMI7ONK5W
2,1.0,left,left,1.0,2.4611,0.0,2.0,2.0,2.0,1.0,2238572663-35822.jpg,2238584894-113161.jpg,A3SSIUMI7ONK5W
3,1.0,left,right,0.0,1.6786,0.0,3.0,3.0,3.0,1.0,2898635427-367120.jpg,2964221435-219434.jpg,A3SSIUMI7ONK5W
4,1.0,right,left,0.0,1.5932,0.0,4.0,4.0,4.0,1.0,2579432519-130698.jpg,2981231403-71642.jpg,A3SSIUMI7ONK5W
5,2.0,left,right,0.0,0.834,0.0,5.0,5.0,5.0,1.0,2964213381-294060.jpg,2458348012-349114.jpg,A3SSIUMI7ONK5W
6,3.0,left,left,1.0,1.6971,0.0,6.0,6.0,6.0,1.0,2874299429-139694.jpg,2883266367-365742.jpg,A3SSIUMI7ONK5W
7,2.0,left,right,0.0,0.9446,0.0,7.0,7.0,7.0,1.0,2452381505-199546.jpg,2898632385-217138.jpg,A3SSIUMI7ONK5W
8,1.0,left,left,1.0,1.889,0.0,8.0,8.0,8.0,1.0,2898618444-142233.jpg,2898631359-142721.jpg,A3SSIUMI7ONK5W
9,3.0,right,right,1.0,1.4327,0.0,9.0,9.0,9.0,1.0,2898625336-291572.jpg,2898635428-69104.jpg,A3SSIUMI7ONK5W
10,1.0,right,right,1.0,1.7974,0.0,10.0,10.0,10.0,1.0,2964218432-369263.jpg,2898624426-291546.jpg,A3SSIUMI7ONK5W
11,2.0,left,right,0.0,1.3203,0.0,11.0,11.0,11.0,1.0,2986451363-73598.jpg,2984628361-295995.jpg,A3SSIUMI7ONK5W
12,1.0,left,left,1.0,2.1726,0.0,12.0,12.0,12.0,1.0,2238428357-313623.jpg,2238499057-320266.jpg,A3SSIUMI7ONK5W
13,1.0,left,left,1.0,1.1062,0.0,13.0,13.0,13.0,1.0,2883268471-290842.jpg,2883268471-290843.jpg,A3SSIUMI7ONK5W
14,1.0,right,right,1.0,1.3798,0.0,14.0,14.0,14.0,1.0,2460547536-274179.jpg,2512875899-126682.jpg,A3SSIUMI7ONK5W
15,3.0,left,left,1.0,1.5357,0.0,15.0,15.0,15.0,1.0,2964222378-71332.jpg,2981240427-370099.jpg,A3SSIUMI7ONK5W
16,3.0,left,right,0.0,1.0754,0.0,16.0,16.0,16.0,1.0,2446759803-49249.jpg,2901951392-368654.jpg,A3SSIUMI7ONK5W
17,1.0,left,left,1.0,1.574,0.0,17.0,17.0,17.0,1.0,2238560245-182099.jpg,2592380255-205553.jpg,A3SSIUMI7ONK5W
18,2.0,left,right,0.0,0.9583,0.0,18.0,18.0,18.0,1.0,2460547467-349422.jpg,2868487415-213924.jpg,A3SSIUMI7ONK5W
19,1.0,left,left,1.0,1.3641,0.0,19.0,19.0,19.0,1.0,2238480677-317399.jpg,2238481630-168218.jpg,A3SSIUMI7ONK5W
20,3.0,right,right,1.0,1.4586,0.0,20.0,20.0,20.0,1.0,2981231446-294732.jpg,2964218374-144967.jpg,A3SSIUMI7ONK5W
21,3.0,right,left,0.0,1.2536,0.0,21.0,21.0,21.0,1.0,2238117096-228518.jpg,2592380177-354626.jpg,A3SSIUMI7ONK5W
22,2.0,left,right,0.0,1.5572,0.0,22.0,22.0,22.0,1.0,2460547467-349421.jpg,2452380166-273110.jpg,A3SSIUMI7ONK5W
23,3.0,right,left,0.0,1.3499,0.0,23.0,23.0,23.0,1.0,2981231422-369714.jpg,2874307433-66280.jpg,A3SSIUMI7ONK5W
24,3.0,right,right,1.0,0.9757,0.0,24.0,24.0,24.0,1.0,2898631468-68931.jpg,2901941401-292798.jpg,A3SSIUMI7ONK5W
25,1.0,right,left,0.0,1.3589,0.0,25.0,25.0,25.0,1.0,2238480434-93829.jpg,2458347385-199723.jpg,A3SSIUMI7ONK5W
26,3.0,left,right,0.0,1.1613,0.0,26.0,26.0,26.0,1.0,2883268412-365898.jpg,2238436252-314037.jpg,A3SSIUMI7ONK5W
27,2.0,left,left,1.0,1.2514,0.0,27.0,27.0,27.0,1.0,2449442529-124445.jpg,2986408373-73286.jpg,A3SSIUMI7ONK5W
28,2.0,right,right,1.0,1.1597,0.0,28.0,28.0,28.0,1.0,2901943387-368037.jpg,2898617468-68274.jpg,A3SSIUMI7ONK5W
29,1.0,right,left,0.0,1.0728,0.0,29.0,29.0,29.0,1.0,2237857458-1325.jpg,2874302418-65979.jpg,A3SSIUMI7ONK5W
30,3.0,left,right,0.0,0.8862,0.0,30.0,30.0,30.0,1.0,2238481928-19949.jpg,2981241419-145844.jpg,A3SSIUMI7ONK5W
31,2.0,right,left,0.0,1.8441,0.0,31.0,31.0,31.0,1.0,2981229442-369621.jpg,2901939379-143480.jpg,A3SSIUMI7ONK5W
32,3.0,right,right,1.0,1.1689,0.0,32.0,32.0,32.0,1.0,2238531493-28260.jpg,2575120738-55529.jpg,A3SSIUMI7ONK5W
33,3.0,left,left,1.0,1.0616,0.0,33.0,33.0,33.0,1.0,2874301407-363895.jpg,2901947323-70275.jpg,A3SSIUMI7ONK5W
34,3.0,left,left,1.0,1.1688,0.0,34.0,34.0,34.0,1.0,2864907432-362042.jpg,2989726338-74002.jpg,A3SSIUMI7ONK5W
35,1.0,left,right,0.0,1.2578,0.0,35.0,35.0,35.0,1.0,2964223381-294447.jpg,2427874231-269884.jpg,A3SSIUMI7ONK5W
36,2.0,right,left,0.0,1.4495,0.0,36.0,36.0,36.0,1.0,2575118671-277663.jpg,2898633421-291973.jpg,A3SSIUMI7ONK5W
37,2.0,left,left,1.0,1.7225,0.0,37.0,37.0,37.0,1.0,2874299429-139695.jpg,2901942443-69923.jpg,A3SSIUMI7ONK5W
38,1.0,left,right,0.0,0.7079,0.0,38.0,38.0,38.0,1.0,2986451363-73599.jpg,2898626385-216899.jpg,A3SSIUMI7ONK5W
39,3.0,left,right,0.0,0.8728,0.0,39.0,39.0,39.0,1.0,2868475410-213219.jpg,2868474407-362885.jpg,A3SSIUMI7ONK5W
40,2.0,right,right,1.0,0.8741,0.0,40.0,40.0,40.0,1.0,2901939327-367670.jpg,2898618390-216538.jpg,A3SSIUMI7ONK5W
41,1.0,right,left,0.0,0.3976,0.0,41.0,41.0,41.0,1.0,2860312398-62572.jpg,2901947423-70311.jpg,A3SSIUMI7ONK5W
42,3.0,right,right,1.0,1.2585,0.0,42.0,42.0,42.0,1.0,2898619327-366362.jpg,2964216465-219242.jpg,A3SSIUMI7ONK5W
43,2.0,left,left,1.0,0.8121,0.0,43.0,43.0,43.0,1.0,2449442529-124446.jpg,2460547536-274181.jpg,A3SSIUMI7ONK5W
44,2.0,right,right,1.0,1.1024,0.0,44.0,44.0,44.0,1.0,2579432534-130704.jpg,2592380177-354629.jpg,A3SSIUMI7ONK5W
45,3.0,left,left,1.0,0.4664,0.0,45.0,45.0,45.0,1.0,2883256307-365057.jpg,2864904453-63933.jpg,A3SSIUMI7ONK5W
46,1.0,left,right,0.0,0.9405,0.0,46.0,46.0,46.0,1.0,2460547508-51571.jpg,2452380166-273109.jpg,A3SSIUMI7ONK5W
47,3.0,left,left,1.0,0.493,0.0,47.0,47.0,47.0,1.0,2901952513-70703.jpg,2238481198-19821.jpg,A3SSIUMI7ONK5W
48,2.0,right,right,1.0,0.8502,0.0,48.0,48.0,48.0,1.0,2238479053-19457.jpg,2592379964-131054.jpg,A3SSIUMI7ONK5W
49,2.0,left,left,1.0,1.1249,0.0,49.0,49.0,49.0,1.0,2898634397-367080.jpg,2901934408-69289.jpg,A3SSIUMI7ONK5W
50,2.0,left,right,0.0,0.8522,0.0,50.0,50.0,50.0,1.0,2901939379-143479.jpg,2446758985-197610.jpg,A3SSIUMI7ONK5W
51,3.0,right,left,0.0,0.6131,0.0,51.0,51.0,51.0,1.0,2898624426-291544.jpg,2446758985-197609.jpg,A3SSIUMI7ONK5W
52,3.0,left,right,0.0,1.2032,0.0,52.0,52.0,52.0,1.0,2981241414-145842.jpg,2427873848-47312.jpg,A3SSIUMI7ONK5W
53,2.0,left,left,1.0,0.2424,0.0,53.0,53.0,53.0,1.0,2874303365-214262.jpg,2238563377-332054.jpg,A3SSIUMI7ONK5W
54,2.0,right,right,1.0,1.0731,0.0,54.0,54.0,54.0,1.0,2238481198-19823.jpg,2874302418-65978.jpg,A3SSIUMI7ONK5W
55,3.0,left,left,1.0,0.4741,0.0,55.0,55.0,55.0,1.0,2238580740-186218.jpg,2964220333-71258.jpg,A3SSIUMI7ONK5W
56,2.0,right,right,1.0,1.2067,0.0,56.0,56.0,56.0,1.0,2901946436-293242.jpg,2238481198-19822.jpg,A3SSIUMI7ONK5W
57,2.0,left,left,1.0,0.3688,0.0,57.0,57.0,57.0,1.0,2883273443-68193.jpg,2460547508-51572.jpg,A3SSIUMI7ONK5W
58,1.0,right,right,1.0,0.7265,0.0,58.0,58.0,58.0,1.0,2238328478-11678.jpg,2452380832-348593.jpg,A3SSIUMI7ONK5W
59,1.0,left,left,1.0,0.2588,0.0,59.0,59.0,59.0,1.0,2238425482-313537.jpg,2238471391-240918.jpg,A3SSIUMI7ONK5W
60,3.0,right,right,1.0,1.8993,0.0,0.0,0.0,0.0,1.0,2981235446-294901.jpg,2460547467-349421.jpg,A2NVX39CZ34V4E
61,2.0,left,left,1.0,0.6767,0.0,1.0,1.0,1.0,1.0,2964218374-144967.jpg,2446759306-271734.jpg,A2NVX39CZ34V4E
62,1.0,right,left,0.0,1.4795,0.0,2.0,2.0,2.0,1.0,2237857458-1325.jpg,2874302418-65979.jpg,A2NVX39CZ34V4E
63,2.0,left,right,0.0,0.855,0.0,3.0,3.0,3.0,1.0,2446758985-197609.jpg,2864909447-362144.jpg,A2NVX39CZ34V4E
64,3.0,right,right,1.0,1.8882,0.0,4.0,4.0,4.0,1.0,2427873763-47290.jpg,2981231403-71642.jpg,A2NVX39CZ34V4E
65,3.0,right,right,1.0,1.5136,0.0,5.0,5.0,5.0,1.0,2238480278-19661.jpg,2238480677-317399.jpg,A2NVX39CZ34V4E
66,1.0,left,right,0.0,2.1905,0.0,6.0,6.0,6.0,1.0,2874307433-66280.jpg,2984615358-72439.jpg,A2NVX39CZ34V4E
67,2.0,right,right,1.0,1.1358,0.0,7.0,7.0,7.0,1.0,2981229442-369621.jpg,2901939379-143480.jpg,A2NVX39CZ34V4E
68,3.0,right,right,1.0,1.2289,0.0,8.0,8.0,8.0,1.0,2864909447-362146.jpg,2460547467-349422.jpg,A2NVX39CZ34V4E
69,3.0,left,right,0.0,2.2121,0.0,9.0,9.0,9.0,1.0,2592379964-131054.jpg,2592380272-354673.jpg,A2NVX39CZ34V4E
70,1.0,left,left,1.0,2.4385,0.0,10.0,10.0,10.0,1.0,2898634397-367080.jpg,2237944827-301472.jpg,A2NVX39CZ34V4E
71,1.0,left,left,1.0,2.9307,0.0,11.0,11.0,11.0,1.0,2592380177-354629.jpg,2898633421-291974.jpg,A2NVX39CZ34V4E
72,3.0,left,left,1.0,1.4153,0.0,12.0,12.0,12.0,1.0,2874302418-65978.jpg,2898633321-291943.jpg,A2NVX39CZ34V4E
73,3.0,right,right,1.0,1.104,0.0,13.0,13.0,13.0,1.0,2994401319-148290.jpg,2452381505-199546.jpg,A2NVX39CZ34V4E
74,1.0,right,right,1.0,1.3235,0.0,14.0,14.0,14.0,1.0,2452380171-273112.jpg,2449442529-124445.jpg,A2NVX39CZ34V4E
75,1.0,right,right,1.0,1.9749,0.0,15.0,15.0,15.0,1.0,2274829821-263682.jpg,2874303365-214262.jpg,A2NVX39CZ34V4E
76,1.0,left,left,1.0,2.4475,0.0,16.0,16.0,16.0,1.0,2883268412-365898.jpg,2984626312-370849.jpg,A2NVX39CZ34V4E
77,2.0,right,left,0.0,1.0352,0.0,17.0,17.0,17.0,1.0,2238521193-26285.jpg,2238580740-186218.jpg,A2NVX39CZ34V4E
78,1.0,right,right,1.0,1.3275,0.0,18.0,18.0,18.0,1.0,2237856148-989.jpg,2898618390-216538.jpg,A2NVX39CZ34V4E
79,3.0,right,right,1.0,1.037,0.0,19.0,19.0,19.0,1.0,2901948383-70363.jpg,2868474407-362883.jpg,A2NVX39CZ34V4E
80,2.0,left,right,0.0,0.83,0.0,20.0,20.0,20.0,1.0,2874299429-139695.jpg,2901942443-69923.jpg,A2NVX39CZ34V4E
81,2.0,right,left,0.0,2.0608,0.0,21.0,21.0,21.0,1.0,2901947423-70310.jpg,2864907432-362042.jpg,A2NVX39CZ34V4E
82,1.0,left,left,1.0,0.9609,0.0,22.0,22.0,22.0,1.0,2238428357-313623.jpg,2238499057-320266.jpg,A2NVX39CZ34V4E
83,1.0,right,left,0.0,1.4225,0.0,23.0,23.0,23.0,1.0,2898631359-142721.jpg,2898618444-142233.jpg,A2NVX39CZ34V4E
84,2.0,right,left,0.0,1.136,0.0,24.0,24.0,24.0,1.0,2981244403-72215.jpg,2874299429-139694.jpg,A2NVX39CZ34V4E
85,3.0,left,right,0.0,0.8554,0.0,25.0,25.0,25.0,1.0,2964223381-294447.jpg,2898628438-68785.jpg,A2NVX39CZ34V4E
86,3.0,left,right,0.0,0.7695,0.0,26.0,26.0,26.0,1.0,2964222378-71332.jpg,2981240427-370099.jpg,A2NVX39CZ34V4E
87,1.0,left,left,1.0,1.139,0.0,27.0,27.0,27.0,1.0,2575120738-55529.jpg,2864906345-212360.jpg,A2NVX39CZ34V4E
88,3.0,right,right,1.0,0.6639,0.0,28.0,28.0,28.0,1.0,2238480980-168129.jpg,2238560245-182099.jpg,A2NVX39CZ34V4E
89,1.0,right,left,0.0,0.3823,0.0,29.0,29.0,29.0,1.0,2901946439-144040.jpg,2898617468-68274.jpg,A2NVX39CZ34V4E
90,2.0,left,right,0.0,0.3822,0.0,30.0,30.0,30.0,1.0,2883273443-68193.jpg,2460547508-51572.jpg,A2NVX39CZ34V4E
91,3.0,right,left,0.0,0.2889,0.0,31.0,31.0,31.0,1.0,2864903351-286874.jpg,2238572663-35822.jpg,A2NVX39CZ34V4E
92,1.0,left,right,0.0,0.2889,0.0,32.0,32.0,32.0,1.0,2512875899-126682.jpg,2460547536-274179.jpg,A2NVX39CZ34V4E
93,3.0,right,left,0.0,0.2921,0.0,33.0,33.0,33.0,1.0,2901941438-69835.jpg,2460547508-51571.jpg,A2NVX39CZ34V4E
94,2.0,left,right,0.0,0.4771,0.0,34.0,34.0,34.0,1.0,2452380832-348593.jpg,2238481813-19930.jpg,A2NVX39CZ34V4E
95,3.0,left,left,1.0,0.1986,0.0,35.0,35.0,35.0,1.0,2592380177-354626.jpg,2238117096-228518.jpg,A2NVX39CZ34V4E
96,2.0,right,right,1.0,0.1013,0.0,36.0,36.0,36.0,1.0,2883255450-215310.jpg,2883268471-290842.jpg,A2NVX39CZ34V4E
97,2.0,left,left,1.0,0.1039,0.0,37.0,37.0,37.0,1.0,2901941401-292798.jpg,2981243412-370222.jpg,A2NVX39CZ34V4E
98,3.0,right,right,1.0,0.667,0.0,38.0,38.0,38.0,1.0,2460547536-274178.jpg,2449442529-124446.jpg,A2NVX39CZ34V4E
99,2.0,left,left,1.0,0.1033,0.0,39.0,39.0,39.0,1.0,2868475410-213219.jpg,2238480803-19739.jpg,A2NVX39CZ34V4E
100,1.0,left,right,0.0,0.1066,0.0,40.0,40.0,40.0,1.0,2986451363-73598.jpg,2237857458-1324.jpg,A2NVX39CZ34V4E
101,3.0,left,left,1.0,0.1034,0.0,41.0,41.0,41.0,1.0,2238425482-313537.jpg,2898633480-217190.jpg,A2NVX39CZ34V4E
102,2.0,right,right,1.0,0.0078,0.0,42.0,42.0,42.0,1.0,2575118671-277663.jpg,2898633421-291973.jpg,A2NVX39CZ34V4E
103,1.0,left,left,1.0,0.0078,0.0,43.0,43.0,43.0,1.0,2986451363-73599.jpg,2898626385-216899.jpg,A2NVX39CZ34V4E
104,2.0,left,left,1.0,0.4837,0.0,44.0,44.0,44.0,1.0,2981241414-145842.jpg,2874301404-139813.jpg,A2NVX39CZ34V4E
105,1.0,left,right,0.0,0.1017,0.0,45.0,45.0,45.0,1.0,2898635428-69104.jpg,2446759803-49250.jpg,A2NVX39CZ34V4E
106,2.0,left,left,1.0,0.1015,0.0,46.0,46.0,46.0,1.0,2874301407-363895.jpg,2986397322-371109.jpg,A2NVX39CZ34V4E
107,1.0,right,right,1.0,0.1026,0.0,47.0,47.0,47.0,1.0,2864907361-287062.jpg,2901952513-70703.jpg,A2NVX39CZ34V4E
108,2.0,left,right,0.0,0.3824,0.0,48.0,48.0,48.0,1.0,2898635427-367120.jpg,2868479517-363220.jpg,A2NVX39CZ34V4E
109,3.0,right,right,1.0,0.8527,0.0,49.0,49.0,49.0,1.0,2964216376-294181.jpg,2901939379-143479.jpg,A2NVX39CZ34V4E
110,1.0,right,left,0.0,0.1951,0.0,50.0,50.0,50.0,1.0,2883264367-365620.jpg,2238481928-19949.jpg,A2NVX39CZ34V4E
111,1.0,left,left,1.0,0.1029,0.0,51.0,51.0,51.0,1.0,2238481198-19822.jpg,2862691449-137104.jpg,A2NVX39CZ34V4E
112,2.0,left,left,1.0,0.2886,0.0,52.0,52.0,52.0,1.0,2458347385-199723.jpg,2427874554-121863.jpg,A2NVX39CZ34V4E
113,3.0,right,left,0.0,0.2933,0.0,53.0,53.0,53.0,1.0,2898619327-366362.jpg,2964216465-219242.jpg,A2NVX39CZ34V4E
114,2.0,left,right,0.0,0.7298,0.0,54.0,54.0,54.0,1.0,2964213381-294060.jpg,2458348012-349114.jpg,A2NVX39CZ34V4E
115,3.0,left,left,1.0,0.8605,0.0,55.0,55.0,55.0,1.0,2898624426-291546.jpg,2981235446-294900.jpg,A2NVX39CZ34V4E
116,2.0,right,right,1.0,0.5746,0.0,56.0,56.0,56.0,1.0,2898618440-216547.jpg,2446759803-49249.jpg,A2NVX39CZ34V4E
117,1.0,right,right,1.0,0.3862,0.0,57.0,57.0,57.0,1.0,2864902304-137862.jpg,2864910426-287204.jpg,A2NVX39CZ34V4E
118,3.0,left,right,0.0,0.3892,0.0,58.0,58.0,58.0,1.0,2883256307-365057.jpg,2864904453-63933.jpg,A2NVX39CZ34V4E
119,2.0,left,left,1.0,0.4798,0.0,59.0,59.0,59.0,1.0,2901947423-70311.jpg,2238573447-333826.jpg,A2NVX39CZ34V4E
120,1.0,left,left,1.0,2.331,0.0,0.0,0.0,0.0,1.0,2575120738-55529.jpg,2864906345-212360.jpg,A28OD52SMLYQ16
121,1.0,left,left,1.0,2.216,0.0,1.0,1.0,1.0,1.0,2238425482-313537.jpg,2238471391-240918.jpg,A28OD52SMLYQ16
122,2.0,left,left,1.0,1.943,0.0,2.0,2.0,2.0,1.0,2238580740-186218.jpg,2238521193-26285.jpg,A28OD52SMLYQ16
123,3.0,left,left,1.0,1.325,0.0,3.0,3.0,3.0,1.0,2460547467-349422.jpg,2864909447-362146.jpg,A28OD52SMLYQ16
124,1.0,right,right,1.0,1.392,0.0,4.0,4.0,4.0,1.0,2238328478-11678.jpg,2452380832-348593.jpg,A28OD52SMLYQ16
125,2.0,left,right,0.0,2.875,0.0,5.0,5.0,5.0,1.0,2883268412-365898.jpg,2984615361-295510.jpg,A28OD52SMLYQ16
126,3.0,left,left,1.0,1.8,0.0,6.0,6.0,6.0,1.0,2449442529-124445.jpg,2898632385-217137.jpg,A28OD52SMLYQ16
127,3.0,left,left,1.0,2.335,0.0,7.0,7.0,7.0,1.0,2898624426-291546.jpg,2981235446-294900.jpg,A28OD52SMLYQ16
128,1.0,right,left,0.0,2.703,0.0,8.0,8.0,8.0,1.0,2898626385-216899.jpg,2986451363-73599.jpg,A28OD52SMLYQ16
129,2.0,left,left,1.0,1.535,0.0,9.0,9.0,9.0,1.0,2446758985-197609.jpg,2864909447-362144.jpg,A28OD52SMLYQ16
130,2.0,left,left,1.0,1.957,0.0,10.0,10.0,10.0,1.0,2901939379-143479.jpg,2446758985-197610.jpg,A28OD52SMLYQ16
131,1.0,left,left,1.0,1.503,0.0,11.0,11.0,11.0,1.0,2898633421-291973.jpg,2512876023-52283.jpg,A28OD52SMLYQ16
132,1.0,right,right,1.0,2.396,0.0,12.0,12.0,12.0,1.0,2898633421-291974.jpg,2592380177-354629.jpg,A28OD52SMLYQ16
133,2.0,left,left,1.0,2.075,0.0,13.0,13.0,13.0,1.0,2238428357-313623.jpg,2984615361-295509.jpg,A28OD52SMLYQ16
134,1.0,left,left,1.0,4.066,0.0,14.0,14.0,14.0,1.0,2964223381-294447.jpg,2427874231-269884.jpg,A28OD52SMLYQ16
135,3.0,right,right,1.0,2.326,0.0,15.0,15.0,15.0,1.0,2964213381-294061.jpg,2964213381-294060.jpg,A28OD52SMLYQ16
136,3.0,left,left,1.0,2.246,0.0,16.0,16.0,16.0,1.0,2898617468-68274.jpg,2964207374-144577.jpg,A28OD52SMLYQ16
137,3.0,left,left,1.0,2.455,0.0,17.0,17.0,17.0,1.0,2864907432-362042.jpg,2989726338-74002.jpg,A28OD52SMLYQ16
138,1.0,left,left,1.0,3.912,0.0,18.0,18.0,18.0,1.0,2901941401-292798.jpg,2898618327-366317.jpg,A28OD52SMLYQ16
139,1.0,right,right,1.0,2.143,0.0,19.0,19.0,19.0,1.0,2611628310-206388.jpg,2883256307-365057.jpg,A28OD52SMLYQ16
140,1.0,left,left,1.0,1.416,0.0,20.0,20.0,20.0,1.0,2592379964-131054.jpg,2575963989-130576.jpg,A28OD52SMLYQ16
141,3.0,right,left,0.0,1.907,0.0,21.0,21.0,21.0,1.0,2460547536-274178.jpg,2449442529-124446.jpg,A28OD52SMLYQ16
142,1.0,left,left,1.0,5.332,0.0,22.0,22.0,22.0,1.0,2898618444-142233.jpg,2898631359-142721.jpg,A28OD52SMLYQ16
143,1.0,left,left,1.0,2.138,0.0,23.0,23.0,23.0,1.0,2238572663-35822.jpg,2238584894-113161.jpg,A28OD52SMLYQ16
144,2.0,right,right,1.0,3.707,0.0,24.0,24.0,24.0,1.0,2981246400-220363.jpg,2868474407-362883.jpg,A28OD52SMLYQ16
145,2.0,right,right,1.0,2.355,0.0,25.0,25.0,25.0,1.0,2901943411-292945.jpg,2898635428-69104.jpg,A28OD52SMLYQ16
146,3.0,right,left,0.0,3.023,0.0,26.0,26.0,26.0,1.0,2981240427-370099.jpg,2964222378-71332.jpg,A28OD52SMLYQ16
147,3.0,right,left,0.0,2.366,0.0,27.0,27.0,27.0,1.0,2238481198-19821.jpg,2901952513-70703.jpg,A28OD52SMLYQ16
148,3.0,right,right,1.0,2.24,0.0,28.0,28.0,28.0,1.0,2238480803-19737.jpg,2238481198-19822.jpg,A28OD52SMLYQ16
149,1.0,left,left,1.0,1.277,0.0,29.0,29.0,29.0,1.0,2964218374-144967.jpg,2964218374-144968.jpg,A28OD52SMLYQ16
150,2.0,right,right,1.0,2.495,0.0,30.0,30.0,30.0,1.0,2238563377-332054.jpg,2874303365-214262.jpg,A28OD52SMLYQ16
151,3.0,left,right,0.0,2.543,0.0,31.0,31.0,31.0,1.0,2901947423-70311.jpg,2238577590-185467.jpg,A28OD52SMLYQ16
152,2.0,right,right,1.0,2.983,0.0,32.0,32.0,32.0,1.0,2981246400-220365.jpg,2874307433-66280.jpg,A28OD52SMLYQ16
153,1.0,left,left,1.0,1.573,0.0,33.0,33.0,33.0,1.0,2981231403-71642.jpg,2579432519-130698.jpg,A28OD52SMLYQ16
154,2.0,right,left,0.0,1.837,0.0,34.0,34.0,34.0,1.0,2864900357-361688.jpg,2238481928-19949.jpg,A28OD52SMLYQ16
155,3.0,right,left,0.0,1.867,0.0,35.0,35.0,35.0,1.0,2898621427-366486.jpg,2898635427-367120.jpg,A28OD52SMLYQ16
156,2.0,left,left,1.0,1.925,0.0,36.0,36.0,36.0,1.0,2898634397-367080.jpg,2901934408-69289.jpg,A28OD52SMLYQ16
157,2.0,right,right,1.0,1.97,0.0,37.0,37.0,37.0,1.0,2238480648-19714.jpg,2874302418-65979.jpg,A28OD52SMLYQ16
158,2.0,right,right,1.0,2.449,0.0,38.0,38.0,38.0,1.0,2986397322-371109.jpg,2874301407-363895.jpg,A28OD52SMLYQ16
159,2.0,right,left,0.0,1.147,0.0,39.0,39.0,39.0,1.0,2864900319-137787.jpg,2964216465-219242.jpg,A28OD52SMLYQ16
160,3.0,left,right,0.0,3.574,0.0,40.0,40.0,40.0,1.0,2452381505-199546.jpg,2994401319-148290.jpg,A28OD52SMLYQ16
161,3.0,right,right,1.0,1.721,0.0,41.0,41.0,41.0,1.0,2986447332-371497.jpg,2512875899-126682.jpg,A28OD52SMLYQ16
162,3.0,right,left,0.0,1.706,0.0,42.0,42.0,42.0,1.0,2868474407-362885.jpg,2868475410-213219.jpg,A28OD52SMLYQ16
163,3.0,left,left,1.0,1.793,0.0,43.0,43.0,43.0,1.0,2238480677-317399.jpg,2238480278-19661.jpg,A28OD52SMLYQ16
164,3.0,left,left,1.0,6.423,0.0,44.0,44.0,44.0,1.0,2458347385-199723.jpg,2458347252-348911.jpg,A28OD52SMLYQ16
165,2.0,left,left,1.0,4.883,0.0,45.0,45.0,45.0,1.0,2864910426-287204.jpg,2883268412-365899.jpg,A28OD52SMLYQ16
166,2.0,right,right,1.0,2.906,0.0,46.0,46.0,46.0,1.0,2864901386-286797.jpg,2592380177-354626.jpg,A28OD52SMLYQ16
167,3.0,right,left,0.0,1.606,0.0,47.0,47.0,47.0,1.0,2898627427-366763.jpg,2883273443-68193.jpg,A28OD52SMLYQ16
168,1.0,right,left,0.0,2.201,0.0,48.0,48.0,48.0,1.0,2446760601-272099.jpg,2446759803-49249.jpg,A28OD52SMLYQ16
169,1.0,right,right,1.0,1.307,0.0,49.0,49.0,49.0,1.0,2883268471-290843.jpg,2883268471-290842.jpg,A28OD52SMLYQ16
170,1.0,right,right,1.0,1.722,0.0,50.0,50.0,50.0,1.0,2901942428-69919.jpg,2901939379-143480.jpg,A28OD52SMLYQ16
171,2.0,left,right,0.0,1.429,0.0,51.0,51.0,51.0,1.0,2986451363-73598.jpg,2984628361-295995.jpg,A28OD52SMLYQ16
172,1.0,left,left,1.0,1.806,0.0,52.0,52.0,52.0,1.0,2898618390-216538.jpg,2237856148-989.jpg,A28OD52SMLYQ16
173,3.0,right,left,0.0,4.464,0.0,53.0,53.0,53.0,1.0,2427873848-47312.jpg,2981241414-145842.jpg,A28OD52SMLYQ16
174,2.0,right,left,0.0,1.254,0.0,54.0,54.0,54.0,1.0,2981244403-72215.jpg,2874299429-139694.jpg,A28OD52SMLYQ16
175,3.0,left,left,1.0,2.03,0.0,55.0,55.0,55.0,1.0,2460547508-51571.jpg,2901941438-69835.jpg,A28OD52SMLYQ16
176,2.0,right,left,0.0,1.029,0.0,56.0,56.0,56.0,1.0,2874314526-289684.jpg,2238560245-182099.jpg,A28OD52SMLYQ16
177,2.0,left,left,1.0,2.31,0.0,57.0,57.0,57.0,1.0,2874302418-65978.jpg,2238481198-19823.jpg,A28OD52SMLYQ16
178,1.0,left,right,0.0,1.983,0.0,58.0,58.0,58.0,1.0,2874299429-139695.jpg,2883266388-67750.jpg,A28OD52SMLYQ16
179,1.0,left,left,1.0,1.036,0.0,59.0,59.0,59.0,1.0,2460547467-349421.jpg,2898631394-142727.jpg,A28OD52SMLYQ16
180,1.0,right,right,1.0,2.3424,0.0,0.0,0.0,0.0,1.0,2864906345-212360.jpg,2575120738-55529.jpg,A344BXT88DM2ZH
181,3.0,left,right,0.0,2.0348,0.0,1.0,1.0,1.0,1.0,2883273443-68193.jpg,2898627427-366763.jpg,A344BXT88DM2ZH
182,3.0,left,left,1.0,1.5245,0.0,2.0,2.0,2.0,1.0,2883256307-365057.jpg,2864904453-63933.jpg,A344BXT88DM2ZH
183,1.0,left,left,1.0,1.6336,0.0,3.0,3.0,3.0,1.0,2874299429-139694.jpg,2986447306-296584.jpg,A344BXT88DM2ZH
184,3.0,left,left,1.0,1.7016,0.0,4.0,4.0,4.0,1.0,2238481198-19822.jpg,2238480803-19737.jpg,A344BXT88DM2ZH
185,2.0,left,right,0.0,2.2366,0.0,5.0,5.0,5.0,1.0,2864910426-287204.jpg,2883268412-365899.jpg,A344BXT88DM2ZH
186,3.0,right,right,1.0,1.111,0.0,6.0,6.0,6.0,1.0,2964216376-294181.jpg,2901939379-143479.jpg,A344BXT88DM2ZH
187,1.0,right,left,0.0,2.2394,0.0,7.0,7.0,7.0,1.0,2964221435-219434.jpg,2898635427-367120.jpg,A344BXT88DM2ZH
188,2.0,left,right,0.0,1.9234,0.0,8.0,8.0,8.0,1.0,2986451363-73599.jpg,2860302315-210704.jpg,A344BXT88DM2ZH
189,3.0,left,left,1.0,2.1303,0.0,9.0,9.0,9.0,1.0,2898618390-216538.jpg,2575120609-129862.jpg,A344BXT88DM2ZH
190,2.0,left,left,1.0,2.0178,0.0,10.0,10.0,10.0,1.0,2446758985-197609.jpg,2864909447-362144.jpg,A344BXT88DM2ZH
191,1.0,right,right,1.0,1.8147,0.0,11.0,11.0,11.0,1.0,2984626312-370849.jpg,2883268412-365898.jpg,A344BXT88DM2ZH
192,3.0,left,right,0.0,1.8966,0.0,12.0,12.0,12.0,1.0,2964216465-219242.jpg,2898619327-366362.jpg,A344BXT88DM2ZH
193,1.0,right,right,1.0,1.6195,0.0,13.0,13.0,13.0,1.0,2452380171-273112.jpg,2449442529-124445.jpg,A344BXT88DM2ZH
194,3.0,right,right,1.0,1.8159,0.0,14.0,14.0,14.0,1.0,2986447332-371497.jpg,2512875899-126682.jpg,A344BXT88DM2ZH
195,3.0,right,right,1.0,2.1142,0.0,15.0,15.0,15.0,1.0,2238577590-185467.jpg,2901947423-70311.jpg,A344BXT88DM2ZH
196,1.0,right,right,1.0,2.9183,0.0,16.0,16.0,16.0,1.0,2238499057-320266.jpg,2238428357-313623.jpg,A344BXT88DM2ZH
197,1.0,left,left,1.0,1.5195,0.0,17.0,17.0,17.0,1.0,2452381505-199546.jpg,2901938432-367627.jpg,A344BXT88DM2ZH
198,1.0,right,left,0.0,1.8049,0.0,18.0,18.0,18.0,1.0,2238516618-25604.jpg,2981241414-145842.jpg,A344BXT88DM2ZH
199,1.0,right,right,1.0,1.4265,0.0,19.0,19.0,19.0,1.0,2446761374-124213.jpg,2874301407-363895.jpg,A344BXT88DM2ZH
200,2.0,left,left,1.0,1.5167,0.0,20.0,20.0,20.0,1.0,2898617468-68274.jpg,2901943387-368037.jpg,A344BXT88DM2ZH
201,1.0,left,left,1.0,1.5069,0.0,21.0,21.0,21.0,1.0,2460547508-51571.jpg,2452380166-273109.jpg,A344BXT88DM2ZH
202,3.0,left,left,1.0,2.1259,0.0,22.0,22.0,22.0,1.0,2874302418-65978.jpg,2898633321-291943.jpg,A344BXT88DM2ZH
203,1.0,right,right,1.0,1.7288,0.0,23.0,23.0,23.0,1.0,2898633421-291974.jpg,2592380177-354629.jpg,A344BXT88DM2ZH
204,2.0,right,left,0.0,2.0179,0.0,24.0,24.0,24.0,1.0,2238480648-19714.jpg,2874302418-65979.jpg,A344BXT88DM2ZH
205,3.0,right,right,1.0,1.5066,0.0,25.0,25.0,25.0,1.0,2237858942-299356.jpg,2452380832-348593.jpg,A344BXT88DM2ZH
206,3.0,left,left,1.0,2.1268,0.0,26.0,26.0,26.0,1.0,2238560245-182099.jpg,2238480980-168129.jpg,A344BXT88DM2ZH
207,3.0,right,left,0.0,1.9086,0.0,27.0,27.0,27.0,1.0,2898618444-142232.jpg,2898618444-142233.jpg,A344BXT88DM2ZH
208,3.0,right,right,1.0,1.4179,0.0,28.0,28.0,28.0,1.0,2898631468-68931.jpg,2901941401-292798.jpg,A344BXT88DM2ZH
209,1.0,left,right,0.0,1.814,0.0,29.0,29.0,29.0,1.0,2901952513-70703.jpg,2864907361-287062.jpg,A344BXT88DM2ZH
210,1.0,left,right,0.0,1.2294,0.0,30.0,30.0,30.0,1.0,2868475410-213219.jpg,2901946465-218350.jpg,A344BXT88DM2ZH
211,2.0,left,right,0.0,1.8417,0.0,31.0,31.0,31.0,1.0,2964222378-71332.jpg,2901933382-367209.jpg,A344BXT88DM2ZH
212,3.0,right,left,0.0,1.81,0.0,32.0,32.0,32.0,1.0,2446760917-347439.jpg,2874299429-139695.jpg,A344BXT88DM2ZH
213,2.0,left,right,0.0,1.1033,0.0,33.0,33.0,33.0,1.0,2864907432-362042.jpg,2901947423-70310.jpg,A344BXT88DM2ZH
214,1.0,left,left,1.0,2.3974,0.0,34.0,34.0,34.0,1.0,2898624426-291546.jpg,2964218432-369263.jpg,A344BXT88DM2ZH
215,3.0,left,right,0.0,1.215,0.0,35.0,35.0,35.0,1.0,2460547467-349421.jpg,2981235446-294901.jpg,A344BXT88DM2ZH
216,3.0,right,right,1.0,1.9067,0.0,36.0,36.0,36.0,1.0,2964220333-71258.jpg,2238580740-186218.jpg,A344BXT88DM2ZH
217,2.0,right,right,1.0,1.7586,0.0,37.0,37.0,37.0,1.0,2575118671-277663.jpg,2898633421-291973.jpg,A344BXT88DM2ZH
218,2.0,right,left,0.0,1.0091,0.0,38.0,38.0,38.0,1.0,2981246400-220365.jpg,2874307433-66280.jpg,A344BXT88DM2ZH
219,3.0,left,left,1.0,1.1188,0.0,39.0,39.0,39.0,1.0,2898634397-367080.jpg,2964217461-294238.jpg,A344BXT88DM2ZH
220,1.0,left,left,1.0,1.5236,0.0,40.0,40.0,40.0,1.0,2449442529-124446.jpg,2446759803-49251.jpg,A344BXT88DM2ZH
221,2.0,right,right,1.0,1.217,0.0,41.0,41.0,41.0,1.0,2446759306-271734.jpg,2964218374-144967.jpg,A344BXT88DM2ZH
222,3.0,left,left,1.0,1.4297,0.0,42.0,42.0,42.0,1.0,2981231403-71642.jpg,2427873763-47290.jpg,A344BXT88DM2ZH
223,1.0,right,right,1.0,1.424,0.0,43.0,43.0,43.0,1.0,2238584894-113161.jpg,2238572663-35822.jpg,A344BXT88DM2ZH
224,2.0,left,right,0.0,1.4116,0.0,44.0,44.0,44.0,1.0,2901939379-143480.jpg,2981229442-369621.jpg,A344BXT88DM2ZH
225,2.0,left,left,1.0,2.3238,0.0,45.0,45.0,45.0,1.0,2874303365-214262.jpg,2238563377-332054.jpg,A344BXT88DM2ZH
226,2.0,right,right,1.0,2.509,0.0,46.0,46.0,46.0,1.0,2238436322-314047.jpg,2238425482-313537.jpg,A344BXT88DM2ZH
227,2.0,right,left,0.0,1.3917,0.0,47.0,47.0,47.0,1.0,2898618440-216547.jpg,2446759803-49249.jpg,A344BXT88DM2ZH
228,2.0,right,right,1.0,1.8309,0.0,48.0,48.0,48.0,1.0,2458348012-349114.jpg,2964213381-294060.jpg,A344BXT88DM2ZH
229,1.0,right,left,0.0,1.5204,0.0,49.0,49.0,49.0,1.0,2883268471-290843.jpg,2883268471-290842.jpg,A344BXT88DM2ZH
230,2.0,left,left,1.0,1.7102,0.0,50.0,50.0,50.0,1.0,2460547467-349422.jpg,2868487415-213924.jpg,A344BXT88DM2ZH
231,1.0,left,right,0.0,1.9272,0.0,51.0,51.0,51.0,1.0,2238481928-19949.jpg,2883264367-365620.jpg,A344BXT88DM2ZH
232,3.0,left,left,1.0,1.8202,0.0,52.0,52.0,52.0,1.0,2898635428-69104.jpg,2898625336-291572.jpg,A344BXT88DM2ZH
233,3.0,left,left,1.0,1.5129,0.0,53.0,53.0,53.0,1.0,2868474407-362883.jpg,2901948383-70363.jpg,A344BXT88DM2ZH
234,1.0,left,left,1.0,2.5084,0.0,54.0,54.0,54.0,1.0,2592380177-354626.jpg,2238576792-334659.jpg,A344BXT88DM2ZH
235,2.0,left,right,0.0,1.2194,0.0,55.0,55.0,55.0,1.0,2986451363-73598.jpg,2984628361-295995.jpg,A344BXT88DM2ZH
236,2.0,right,right,1.0,2.0161,0.0,56.0,56.0,56.0,1.0,2427874554-121863.jpg,2458347385-199723.jpg,A344BXT88DM2ZH
237,2.0,right,right,1.0,1.4133,0.0,57.0,57.0,57.0,1.0,2238573546-258454.jpg,2238480677-317399.jpg,A344BXT88DM2ZH
238,2.0,left,right,0.0,1.7874,0.0,58.0,58.0,58.0,1.0,2964223381-294447.jpg,2901941438-69836.jpg,A344BXT88DM2ZH
239,1.0,right,right,1.0,1.7116,0.0,59.0,59.0,59.0,1.0,2575963989-130576.jpg,2592379964-131054.jpg,A344BXT88DM2ZH
240,1.0,left,left,1.0,8.9508,0.0,0.0,0.0,0.0,1.0,2898635427-367120.jpg,2964221435-219434.jpg,A2MIFJZZPOCI6
241,1.0,left,left,1.0,5.6115,0.0,1.0,1.0,1.0,1.0,2986451363-73599.jpg,2898626385-216899.jpg,A2MIFJZZPOCI6
242,3.0,left,left,1.0,34.1567,0.0,2.0,2.0,2.0,1.0,2874299429-139695.jpg,2446760917-347439.jpg,A2MIFJZZPOCI6
243,1.0,right,right,1.0,2.0404,0.0,3.0,3.0,3.0,1.0,2238328478-11678.jpg,2452380832-348593.jpg,A2MIFJZZPOCI6
244,2.0,left,right,0.0,12.4693,0.0,4.0,4.0,4.0,1.0,2238481928-19949.jpg,2864900357-361688.jpg,A2MIFJZZPOCI6
245,3.0,right,right,1.0,3.776,0.0,5.0,5.0,5.0,1.0,2901939433-69672.jpg,2864910426-287204.jpg,A2MIFJZZPOCI6
246,2.0,left,left,1.0,7.0623,0.0,6.0,6.0,6.0,1.0,2446758985-197609.jpg,2864909447-362144.jpg,A2MIFJZZPOCI6
247,1.0,left,left,1.0,3.2266,0.0,7.0,7.0,7.0,1.0,2964216465-219242.jpg,2238544191-252422.jpg,A2MIFJZZPOCI6
248,1.0,right,right,1.0,2.373,0.0,8.0,8.0,8.0,1.0,2446761374-124213.jpg,2874301407-363895.jpg,A2MIFJZZPOCI6
249,2.0,left,left,1.0,5.1846,0.0,9.0,9.0,9.0,1.0,2460547467-349422.jpg,2868487415-213924.jpg,A2MIFJZZPOCI6
250,3.0,right,right,1.0,9.0972,0.0,10.0,10.0,10.0,1.0,2883266367-365742.jpg,2874299429-139694.jpg,A2MIFJZZPOCI6
251,3.0,left,left,1.0,9.947,0.0,11.0,11.0,11.0,1.0,2238480677-317399.jpg,2238480278-19661.jpg,A2MIFJZZPOCI6
252,1.0,left,left,1.0,5.824,0.0,12.0,12.0,12.0,1.0,2449442529-124446.jpg,2446759803-49251.jpg,A2MIFJZZPOCI6
253,3.0,right,right,1.0,36.1247,0.0,13.0,13.0,13.0,1.0,2981240427-370099.jpg,2964222378-71332.jpg,A2MIFJZZPOCI6
254,1.0,right,right,1.0,6.7621,0.0,14.0,14.0,14.0,1.0,2901938432-367627.jpg,2452381505-199546.jpg,A2MIFJZZPOCI6
255,2.0,left,left,1.0,1.8434,0.0,15.0,15.0,15.0,1.0,2898633421-291973.jpg,2575118671-277663.jpg,A2MIFJZZPOCI6
256,3.0,right,right,1.0,5.7819,0.0,16.0,16.0,16.0,1.0,2864904453-63933.jpg,2883256307-365057.jpg,A2MIFJZZPOCI6
257,2.0,left,left,1.0,5.528,0.0,17.0,17.0,17.0,1.0,2238481198-19822.jpg,2901946436-293242.jpg,A2MIFJZZPOCI6
258,2.0,right,right,1.0,1.4629,0.0,18.0,18.0,18.0,1.0,2579432534-130704.jpg,2592380177-354629.jpg,A2MIFJZZPOCI6
259,3.0,right,right,1.0,1.2042,0.0,19.0,19.0,19.0,1.0,2592380272-354673.jpg,2592379964-131054.jpg,A2MIFJZZPOCI6
260,3.0,right,right,1.0,3.1369,0.0,20.0,20.0,20.0,1.0,2901942443-69925.jpg,2986451363-73598.jpg,A2MIFJZZPOCI6
261,3.0,left,left,1.0,1.9188,0.0,21.0,21.0,21.0,1.0,2981231403-71642.jpg,2427873763-47290.jpg,A2MIFJZZPOCI6
262,1.0,left,left,1.0,2.5858,0.0,22.0,22.0,22.0,1.0,2874302418-65979.jpg,2237857458-1325.jpg,A2MIFJZZPOCI6
263,3.0,right,left,0.0,9.5914,0.0,23.0,23.0,23.0,1.0,2901947448-70314.jpg,2883268471-290842.jpg,A2MIFJZZPOCI6
264,1.0,right,right,1.0,6.4267,0.0,24.0,24.0,24.0,1.0,2864906345-212360.jpg,2575120738-55529.jpg,A2MIFJZZPOCI6
265,2.0,right,right,1.0,2.108,0.0,25.0,25.0,25.0,1.0,2238436322-314047.jpg,2238425482-313537.jpg,A2MIFJZZPOCI6
266,2.0,left,left,1.0,4.0031,0.0,26.0,26.0,26.0,1.0,2460547467-349421.jpg,2452380166-273110.jpg,A2MIFJZZPOCI6
267,2.0,right,left,0.0,8.8519,0.0,27.0,27.0,27.0,1.0,2901939327-367670.jpg,2898618390-216538.jpg,A2MIFJZZPOCI6
268,1.0,right,right,1.0,1.5139,0.0,28.0,28.0,28.0,1.0,2592380255-205553.jpg,2238560245-182099.jpg,A2MIFJZZPOCI6
269,2.0,left,left,1.0,5.8998,0.0,29.0,29.0,29.0,1.0,2238580740-186218.jpg,2238521193-26285.jpg,A2MIFJZZPOCI6
270,1.0,right,right,1.0,1.5392,0.0,30.0,30.0,30.0,1.0,2238576792-334659.jpg,2592380177-354626.jpg,A2MIFJZZPOCI6
271,2.0,left,left,1.0,6.1592,0.0,31.0,31.0,31.0,1.0,2868475410-213219.jpg,2238480803-19739.jpg,A2MIFJZZPOCI6
272,3.0,right,right,1.0,1.8517,0.0,32.0,32.0,32.0,1.0,2964217461-294238.jpg,2898634397-367080.jpg,A2MIFJZZPOCI6
273,1.0,right,right,1.0,1.4855,0.0,33.0,33.0,33.0,1.0,2964224310-219528.jpg,2874302418-65978.jpg,A2MIFJZZPOCI6
274,3.0,left,left,1.0,1.56,0.0,34.0,34.0,34.0,1.0,2901952513-70703.jpg,2238481198-19821.jpg,A2MIFJZZPOCI6
275,3.0,right,right,1.0,5.9256,0.0,35.0,35.0,35.0,1.0,2901951392-368654.jpg,2446759803-49249.jpg,A2MIFJZZPOCI6
276,1.0,left,left,1.0,3.2415,0.0,36.0,36.0,36.0,1.0,2981241414-145842.jpg,2238516618-25604.jpg,A2MIFJZZPOCI6
277,3.0,left,left,1.0,2.7575,0.0,37.0,37.0,37.0,1.0,2460547508-51571.jpg,2901941438-69835.jpg,A2MIFJZZPOCI6
278,1.0,right,right,1.0,5.8488,0.0,38.0,38.0,38.0,1.0,2883254439-140940.jpg,2883273443-68193.jpg,A2MIFJZZPOCI6
279,1.0,left,left,1.0,10.6489,0.0,39.0,39.0,39.0,1.0,2964218374-144967.jpg,2964218374-144968.jpg,A2MIFJZZPOCI6
280,1.0,right,right,1.0,2.149,0.0,40.0,40.0,40.0,1.0,2981244394-145974.jpg,2964213381-294060.jpg,A2MIFJZZPOCI6
281,3.0,left,left,1.0,3.241,0.0,41.0,41.0,41.0,1.0,2458347385-199723.jpg,2458347252-348911.jpg,A2MIFJZZPOCI6
282,2.0,left,right,0.0,4.0043,0.0,42.0,42.0,42.0,1.0,2238572663-35822.jpg,2238571930-184143.jpg,A2MIFJZZPOCI6
283,2.0,left,left,1.0,9.2378,0.0,43.0,43.0,43.0,1.0,2874307433-66280.jpg,2981246400-220365.jpg,A2MIFJZZPOCI6
284,3.0,left,left,1.0,10.6337,0.0,44.0,44.0,44.0,1.0,2864907432-362042.jpg,2989726338-74002.jpg,A2MIFJZZPOCI6
285,3.0,right,right,1.0,3.0898,0.0,45.0,45.0,45.0,1.0,2964207374-144577.jpg,2898617468-68274.jpg,A2MIFJZZPOCI6
286,1.0,right,right,1.0,1.8623,0.0,46.0,46.0,46.0,1.0,2860312398-62572.jpg,2901947423-70311.jpg,A2MIFJZZPOCI6
287,3.0,left,left,1.0,4.6721,0.0,47.0,47.0,47.0,1.0,2901939379-143479.jpg,2964216376-294181.jpg,A2MIFJZZPOCI6
288,2.0,left,left,1.0,1.3361,0.0,48.0,48.0,48.0,1.0,2238428357-313623.jpg,2984615361-295509.jpg,A2MIFJZZPOCI6
289,1.0,right,right,1.0,2.716,0.0,49.0,49.0,49.0,1.0,2898631359-142721.jpg,2898618444-142233.jpg,A2MIFJZZPOCI6
290,3.0,left,left,1.0,4.3133,0.0,50.0,50.0,50.0,1.0,2898624426-291546.jpg,2981235446-294900.jpg,A2MIFJZZPOCI6
291,2.0,left,left,1.0,3.157,0.0,51.0,51.0,51.0,1.0,2901941401-292798.jpg,2981243412-370222.jpg,A2MIFJZZPOCI6
292,2.0,right,right,1.0,2.9574,0.0,52.0,52.0,52.0,1.0,2984615361-295510.jpg,2883268412-365898.jpg,A2MIFJZZPOCI6
293,1.0,right,left,0.0,10.1852,0.0,53.0,53.0,53.0,1.0,2901942428-69919.jpg,2901939379-143480.jpg,A2MIFJZZPOCI6
294,3.0,left,left,1.0,6.4238,0.0,54.0,54.0,54.0,1.0,2898635428-69104.jpg,2898625336-291572.jpg,A2MIFJZZPOCI6
295,1.0,right,right,1.0,3.2345,0.0,55.0,55.0,55.0,1.0,2452380171-273112.jpg,2449442529-124445.jpg,A2MIFJZZPOCI6
296,2.0,left,left,1.0,4.8611,0.0,56.0,56.0,56.0,1.0,2874303365-214262.jpg,2238563377-332054.jpg,A2MIFJZZPOCI6
297,2.0,left,right,0.0,11.88,0.0,57.0,57.0,57.0,1.0,2868474407-362883.jpg,2981246400-220363.jpg,A2MIFJZZPOCI6
298,2.0,right,right,1.0,1.5457,0.0,58.0,58.0,58.0,1.0,2592380177-354628.jpg,2512875899-126682.jpg,A2MIFJZZPOCI6
299,2.0,right,right,1.0,1.7771,0.0,59.0,59.0,59.0,1.0,2901941438-69836.jpg,2964223381-294447.jpg,A2MIFJZZPOCI6
300,3.0,left,left,1.0,1.844,0.0,0.0,0.0,0.0,1.0,2449442529-124445.jpg,2898632385-217137.jpg,A3N5E6HZDBRFNC
301,3.0,left,left,1.0,2.244,0.0,1.0,1.0,1.0,1.0,2898618444-142233.jpg,2898618444-142232.jpg,A3N5E6HZDBRFNC
302,3.0,left,left,1.0,1.383,0.0,2.0,2.0,2.0,1.0,2446759803-49249.jpg,2901951392-368654.jpg,A3N5E6HZDBRFNC
303,2.0,left,left,1.0,1.484,0.0,3.0,3.0,3.0,1.0,2898635428-69104.jpg,2901943411-292945.jpg,A3N5E6HZDBRFNC
304,1.0,right,right,1.0,2.134,0.0,4.0,4.0,4.0,1.0,2460547536-274179.jpg,2512875899-126682.jpg,A3N5E6HZDBRFNC
305,2.0,right,left,0.0,2.811,0.0,5.0,5.0,5.0,1.0,2238573447-333826.jpg,2901947423-70311.jpg,A3N5E6HZDBRFNC
306,3.0,right,right,1.0,2.551,0.0,6.0,6.0,6.0,1.0,2864911457-362260.jpg,2874303365-214262.jpg,A3N5E6HZDBRFNC
307,2.0,left,left,1.0,1.89,0.0,7.0,7.0,7.0,1.0,2883268471-290842.jpg,2883255450-215310.jpg,A3N5E6HZDBRFNC
308,3.0,right,left,0.0,2.487,0.0,8.0,8.0,8.0,1.0,2898633480-217190.jpg,2238425482-313537.jpg,A3N5E6HZDBRFNC
309,2.0,left,left,1.0,3.463,0.0,9.0,9.0,9.0,1.0,2874302418-65979.jpg,2238480648-19714.jpg,A3N5E6HZDBRFNC
310,2.0,left,left,1.0,2.821,0.0,10.0,10.0,10.0,1.0,2901939379-143479.jpg,2446758985-197610.jpg,A3N5E6HZDBRFNC
311,1.0,left,left,1.0,1.873,0.0,11.0,11.0,11.0,1.0,2901941401-292798.jpg,2898618327-366317.jpg,A3N5E6HZDBRFNC
312,2.0,left,left,1.0,3.055,0.0,12.0,12.0,12.0,1.0,2901939379-143480.jpg,2981229442-369621.jpg,A3N5E6HZDBRFNC
313,1.0,right,left,0.0,6.32,0.0,13.0,13.0,13.0,1.0,2238550816-254000.jpg,2238580740-186218.jpg,A3N5E6HZDBRFNC
314,3.0,left,left,1.0,5.823,0.0,14.0,14.0,14.0,1.0,2901952513-70703.jpg,2238481198-19821.jpg,A3N5E6HZDBRFNC
315,2.0,right,right,1.0,1.64,0.0,15.0,15.0,15.0,1.0,2458348012-349114.jpg,2964213381-294060.jpg,A3N5E6HZDBRFNC
316,2.0,right,left,0.0,2.971,0.0,16.0,16.0,16.0,1.0,2864900319-137787.jpg,2964216465-219242.jpg,A3N5E6HZDBRFNC
317,1.0,left,right,0.0,3.108,0.0,17.0,17.0,17.0,1.0,2868475410-213219.jpg,2901946465-218350.jpg,A3N5E6HZDBRFNC
318,1.0,left,left,1.0,3.8,0.0,18.0,18.0,18.0,1.0,2981241414-145842.jpg,2238516618-25604.jpg,A3N5E6HZDBRFNC
319,3.0,right,right,1.0,3.637,0.0,19.0,19.0,19.0,1.0,2238436252-314037.jpg,2883268412-365898.jpg,A3N5E6HZDBRFNC
320,2.0,left,left,1.0,6.509,0.0,20.0,20.0,20.0,1.0,2460547467-349421.jpg,2452380166-273110.jpg,A3N5E6HZDBRFNC
321,1.0,right,right,1.0,1.53,0.0,21.0,21.0,21.0,1.0,2898618440-216545.jpg,2460547467-349422.jpg,A3N5E6HZDBRFNC
322,1.0,left,left,1.0,6.068,0.0,22.0,22.0,22.0,1.0,2864910426-287204.jpg,2864902304-137862.jpg,A3N5E6HZDBRFNC
323,1.0,left,left,1.0,2.403,0.0,23.0,23.0,23.0,1.0,2964218374-144967.jpg,2964218374-144968.jpg,A3N5E6HZDBRFNC
324,3.0,left,left,1.0,1.511,0.0,24.0,24.0,24.0,1.0,2898617468-68274.jpg,2964207374-144577.jpg,A3N5E6HZDBRFNC
325,3.0,right,left,0.0,1.78,0.0,25.0,25.0,25.0,1.0,2238480278-19661.jpg,2238480677-317399.jpg,A3N5E6HZDBRFNC
326,3.0,right,right,1.0,2.656,0.0,26.0,26.0,26.0,1.0,2575120609-129862.jpg,2898618390-216538.jpg,A3N5E6HZDBRFNC
327,1.0,left,left,1.0,1.877,0.0,27.0,27.0,27.0,1.0,2238572663-35822.jpg,2238584894-113161.jpg,A3N5E6HZDBRFNC
328,1.0,right,right,1.0,4.449,0.0,28.0,28.0,28.0,1.0,2237857458-1324.jpg,2986451363-73598.jpg,A3N5E6HZDBRFNC
329,2.0,right,left,0.0,2.078,0.0,29.0,29.0,29.0,1.0,2874314526-289684.jpg,2238560245-182099.jpg,A3N5E6HZDBRFNC
330,3.0,left,right,0.0,1.755,0.0,30.0,30.0,30.0,1.0,2874302418-65978.jpg,2898633321-291943.jpg,A3N5E6HZDBRFNC
331,1.0,left,left,1.0,2.302,0.0,31.0,31.0,31.0,1.0,2592380177-354626.jpg,2238576792-334659.jpg,A3N5E6HZDBRFNC
332,3.0,right,right,1.0,1.991,0.0,32.0,32.0,32.0,1.0,2981235446-294900.jpg,2898624426-291546.jpg,A3N5E6HZDBRFNC
333,1.0,right,right,1.0,1.984,0.0,33.0,33.0,33.0,1.0,2864901420-212147.jpg,2864907432-362042.jpg,A3N5E6HZDBRFNC
334,3.0,left,left,1.0,3.745,0.0,34.0,34.0,34.0,1.0,2452380832-348593.jpg,2237858942-299356.jpg,A3N5E6HZDBRFNC
335,2.0,left,left,1.0,2.475,0.0,35.0,35.0,35.0,1.0,2964222378-71332.jpg,2901933382-367209.jpg,A3N5E6HZDBRFNC
336,2.0,left,right,0.0,2.621,0.0,36.0,36.0,36.0,1.0,2898634397-367080.jpg,2901934408-69289.jpg,A3N5E6HZDBRFNC
337,1.0,right,left,0.0,5.388,0.0,37.0,37.0,37.0,1.0,2460547732-349518.jpg,2868474407-362883.jpg,A3N5E6HZDBRFNC
338,1.0,left,left,1.0,2.049,0.0,38.0,38.0,38.0,1.0,2575120738-55529.jpg,2864906345-212360.jpg,A3N5E6HZDBRFNC
339,3.0,left,left,1.0,3.714,0.0,39.0,39.0,39.0,1.0,2898633421-291973.jpg,2238550049-105691.jpg,A3N5E6HZDBRFNC
340,2.0,right,left,0.0,3.274,0.0,40.0,40.0,40.0,1.0,2964210336-293945.jpg,2883256307-365057.jpg,A3N5E6HZDBRFNC
341,1.0,left,left,1.0,1.995,0.0,41.0,41.0,41.0,1.0,2592379964-131054.jpg,2575963989-130576.jpg,A3N5E6HZDBRFNC
342,3.0,left,right,0.0,1.252,0.0,42.0,42.0,42.0,1.0,2964223381-294447.jpg,2898628438-68785.jpg,A3N5E6HZDBRFNC
343,2.0,right,left,0.0,1.496,0.0,43.0,43.0,43.0,1.0,2981232437-369759.jpg,2460547508-51571.jpg,A3N5E6HZDBRFNC
344,2.0,right,left,0.0,2.661,0.0,44.0,44.0,44.0,1.0,2864900357-361688.jpg,2238481928-19949.jpg,A3N5E6HZDBRFNC
345,2.0,left,left,1.0,3.569,0.0,45.0,45.0,45.0,1.0,2981231403-71642.jpg,2874305405-214397.jpg,A3N5E6HZDBRFNC
346,1.0,right,right,1.0,3.471,0.0,46.0,46.0,46.0,1.0,2898633421-291974.jpg,2592380177-354629.jpg,A3N5E6HZDBRFNC
347,1.0,left,left,1.0,4.672,0.0,47.0,47.0,47.0,1.0,2874299429-139694.jpg,2986447306-296584.jpg,A3N5E6HZDBRFNC
348,2.0,right,right,1.0,2.221,0.0,48.0,48.0,48.0,1.0,2864909447-362144.jpg,2446758985-197609.jpg,A3N5E6HZDBRFNC
349,3.0,left,left,1.0,2.869,0.0,49.0,49.0,49.0,1.0,2458347385-199723.jpg,2458347252-348911.jpg,A3N5E6HZDBRFNC
350,3.0,right,right,1.0,5.368,0.0,50.0,50.0,50.0,1.0,2898621427-366486.jpg,2898635427-367120.jpg,A3N5E6HZDBRFNC
351,2.0,right,right,1.0,1.812,0.0,51.0,51.0,51.0,1.0,2986397322-371109.jpg,2874301407-363895.jpg,A3N5E6HZDBRFNC
352,3.0,left,right,0.0,3.164,0.0,52.0,52.0,52.0,1.0,2986451363-73599.jpg,2238434559-90406.jpg,A3N5E6HZDBRFNC
353,3.0,right,right,1.0,1.399,0.0,53.0,53.0,53.0,1.0,2238480803-19737.jpg,2238481198-19822.jpg,A3N5E6HZDBRFNC
354,2.0,right,left,0.0,2.717,0.0,54.0,54.0,54.0,1.0,2981246400-220365.jpg,2874307433-66280.jpg,A3N5E6HZDBRFNC
355,3.0,right,left,0.0,2.794,0.0,55.0,55.0,55.0,1.0,2446760917-347439.jpg,2874299429-139695.jpg,A3N5E6HZDBRFNC
356,1.0,left,right,0.0,1.909,0.0,56.0,56.0,56.0,1.0,2883273443-68193.jpg,2883254439-140940.jpg,A3N5E6HZDBRFNC
357,1.0,left,right,0.0,2.847,0.0,57.0,57.0,57.0,1.0,2449442529-124446.jpg,2446759803-49251.jpg,A3N5E6HZDBRFNC
358,1.0,left,right,0.0,8.447,0.0,58.0,58.0,58.0,1.0,2238428357-313623.jpg,2238499057-320266.jpg,A3N5E6HZDBRFNC
359,2.0,left,right,0.0,3.78,0.0,59.0,59.0,59.0,1.0,2452381505-199546.jpg,2898632385-217138.jpg,A3N5E6HZDBRFNC
360,1.0,right,right,1.0,3.2626,0.0,0.0,0.0,0.0,1.0,2575963989-130576.jpg,2592379964-131054.jpg,A287I4G1Q0K003
361,3.0,right,right,1.0,2.6801,0.0,1.0,1.0,1.0,1.0,2238436252-314037.jpg,2883268412-365898.jpg,A287I4G1Q0K003
362,3.0,right,left,0.0,1.2166,0.0,2.0,2.0,2.0,1.0,2901939433-69672.jpg,2864910426-287204.jpg,A287I4G1Q0K003
363,3.0,right,right,1.0,0.8442,0.0,3.0,3.0,3.0,1.0,2512875587-350044.jpg,2592380177-354629.jpg,A287I4G1Q0K003
364,1.0,right,left,0.0,1.4091,0.0,4.0,4.0,4.0,1.0,2898618327-366317.jpg,2901941401-292798.jpg,A287I4G1Q0K003
365,1.0,right,right,1.0,1.0289,0.0,5.0,5.0,5.0,1.0,2460547467-349423.jpg,2901939379-143479.jpg,A287I4G1Q0K003
366,1.0,left,left,1.0,1.4964,0.0,6.0,6.0,6.0,1.0,2898635428-69104.jpg,2446759803-49250.jpg,A287I4G1Q0K003
367,2.0,right,left,0.0,1.3987,0.0,7.0,7.0,7.0,1.0,2901933382-367209.jpg,2964222378-71332.jpg,A287I4G1Q0K003
368,3.0,left,right,0.0,1.276,0.0,8.0,8.0,8.0,1.0,2874303365-214262.jpg,2864911457-362260.jpg,A287I4G1Q0K003
369,3.0,left,left,1.0,1.1024,0.0,9.0,9.0,9.0,1.0,2898635427-367120.jpg,2898621427-366486.jpg,A287I4G1Q0K003
370,2.0,right,right,1.0,1.0428,0.0,10.0,10.0,10.0,1.0,2901942443-69923.jpg,2874299429-139695.jpg,A287I4G1Q0K003
371,3.0,right,left,0.0,1.0305,0.0,11.0,11.0,11.0,1.0,2981241419-145844.jpg,2238481928-19949.jpg,A287I4G1Q0K003
372,1.0,left,left,1.0,1.4032,0.0,12.0,12.0,12.0,1.0,2238572663-35822.jpg,2238584894-113161.jpg,A287I4G1Q0K003
373,2.0,left,right,0.0,0.9363,0.0,13.0,13.0,13.0,1.0,2460547467-349422.jpg,2868487415-213924.jpg,A287I4G1Q0K003
374,3.0,left,left,1.0,0.7517,0.0,14.0,14.0,14.0,1.0,2964213381-294060.jpg,2964213381-294061.jpg,A287I4G1Q0K003
375,2.0,left,right,0.0,0.8412,0.0,15.0,15.0,15.0,1.0,2874299429-139694.jpg,2981244403-72215.jpg,A287I4G1Q0K003
376,3.0,right,left,0.0,0.4728,0.0,16.0,16.0,16.0,1.0,2864904453-63933.jpg,2883256307-365057.jpg,A287I4G1Q0K003
377,1.0,left,right,0.0,0.7501,0.0,17.0,17.0,17.0,1.0,2874301407-363895.jpg,2446761374-124213.jpg,A287I4G1Q0K003
378,1.0,right,left,0.0,0.9399,0.0,18.0,18.0,18.0,1.0,2981240424-145795.jpg,2446758985-197609.jpg,A287I4G1Q0K003
379,3.0,left,right,0.0,1.0273,0.0,19.0,19.0,19.0,1.0,2874302418-65978.jpg,2898633321-291943.jpg,A287I4G1Q0K003
380,1.0,left,left,1.0,0.6594,0.0,20.0,20.0,20.0,1.0,2238480677-317399.jpg,2238481630-168218.jpg,A287I4G1Q0K003
381,2.0,right,right,1.0,1.2171,0.0,21.0,21.0,21.0,1.0,2452380166-273110.jpg,2460547467-349421.jpg,A287I4G1Q0K003
382,2.0,right,right,1.0,1.1034,0.0,22.0,22.0,22.0,1.0,2238436322-314047.jpg,2238425482-313537.jpg,A287I4G1Q0K003
383,3.0,right,left,0.0,1.3016,0.0,23.0,23.0,23.0,1.0,2238531493-28260.jpg,2575120738-55529.jpg,A287I4G1Q0K003
384,2.0,left,left,1.0,1.5856,0.0,24.0,24.0,24.0,1.0,2981231403-71642.jpg,2874305405-214397.jpg,A287I4G1Q0K003
385,2.0,right,right,1.0,0.1003,0.0,25.0,25.0,25.0,1.0,2901934408-69289.jpg,2898634397-367080.jpg,A287I4G1Q0K003
386,2.0,left,left,1.0,1.4021,0.0,26.0,26.0,26.0,1.0,2874307433-66280.jpg,2981246400-220365.jpg,A287I4G1Q0K003
387,2.0,right,right,1.0,0.7305,0.0,27.0,27.0,27.0,1.0,2427874554-121863.jpg,2458347385-199723.jpg,A287I4G1Q0K003
388,3.0,right,left,0.0,1.4918,0.0,28.0,28.0,28.0,1.0,2901948383-70363.jpg,2868474407-362883.jpg,A287I4G1Q0K003
389,3.0,right,right,1.0,0.7534,0.0,29.0,29.0,29.0,1.0,2964207374-144577.jpg,2898617468-68274.jpg,A287I4G1Q0K003
390,2.0,left,left,1.0,0.4715,0.0,30.0,30.0,30.0,1.0,2238580740-186218.jpg,2238521193-26285.jpg,A287I4G1Q0K003
391,1.0,right,right,1.0,0.2884,0.0,31.0,31.0,31.0,1.0,2883268471-290843.jpg,2883268471-290842.jpg,A287I4G1Q0K003
392,3.0,left,left,1.0,0.659,0.0,32.0,32.0,32.0,1.0,2449442529-124446.jpg,2460547536-274178.jpg,A287I4G1Q0K003
393,1.0,left,right,0.0,0.2859,0.0,33.0,33.0,33.0,1.0,2898624426-291546.jpg,2964218432-369263.jpg,A287I4G1Q0K003
394,1.0,left,left,1.0,5.4406,0.0,34.0,34.0,34.0,1.0,2898618444-142233.jpg,2898631359-142721.jpg,A287I4G1Q0K003
395,1.0,left,right,0.0,2.9848,0.0,35.0,35.0,35.0,1.0,2898618390-216538.jpg,2237856148-989.jpg,A287I4G1Q0K003
396,2.0,left,right,0.0,2.805,0.0,36.0,36.0,36.0,1.0,2964216465-219242.jpg,2864900319-137787.jpg,A287I4G1Q0K003
397,1.0,left,left,1.0,0.4772,0.0,37.0,37.0,37.0,1.0,2446759803-49249.jpg,2446760601-272099.jpg,A287I4G1Q0K003
398,2.0,right,left,0.0,1.8475,0.0,38.0,38.0,38.0,1.0,2446759306-271734.jpg,2964218374-144967.jpg,A287I4G1Q0K003
399,2.0,left,left,1.0,1.1233,0.0,39.0,39.0,39.0,1.0,2874302418-65979.jpg,2238480648-19714.jpg,A287I4G1Q0K003
400,1.0,left,left,1.0,4.904,0.0,40.0,40.0,40.0,1.0,2238428357-313623.jpg,2238499057-320266.jpg,A287I4G1Q0K003
401,2.0,left,right,0.0,0.7207,0.0,41.0,41.0,41.0,1.0,2986451363-73598.jpg,2984628361-295995.jpg,A287I4G1Q0K003
402,1.0,right,right,1.0,3.7252,0.0,42.0,42.0,42.0,1.0,2238576792-334659.jpg,2592380177-354626.jpg,A287I4G1Q0K003
403,1.0,left,left,1.0,1.5919,0.0,43.0,43.0,43.0,1.0,2238481198-19822.jpg,2862691449-137104.jpg,A287I4G1Q0K003
404,3.0,left,left,1.0,1.1243,0.0,44.0,44.0,44.0,1.0,2452380832-348593.jpg,2237858942-299356.jpg,A287I4G1Q0K003
405,2.0,left,left,1.0,1.1254,0.0,45.0,45.0,45.0,1.0,2898633421-291973.jpg,2575118671-277663.jpg,A287I4G1Q0K003
406,3.0,right,left,0.0,2.7018,0.0,46.0,46.0,46.0,1.0,2994401319-148290.jpg,2452381505-199546.jpg,A287I4G1Q0K003
407,2.0,left,left,1.0,1.6821,0.0,47.0,47.0,47.0,1.0,2964223381-294447.jpg,2901941438-69836.jpg,A287I4G1Q0K003
408,2.0,right,left,0.0,0.3787,0.0,48.0,48.0,48.0,1.0,2868469411-287540.jpg,2901952513-70703.jpg,A287I4G1Q0K003
409,3.0,right,right,1.0,1.6823,0.0,49.0,49.0,49.0,1.0,2238480980-168129.jpg,2238560245-182099.jpg,A287I4G1Q0K003
410,2.0,right,right,1.0,1.2152,0.0,50.0,50.0,50.0,1.0,2238573447-333826.jpg,2901947423-70311.jpg,A287I4G1Q0K003
411,1.0,right,right,1.0,1.7564,0.0,51.0,51.0,51.0,1.0,2460547536-274179.jpg,2512875899-126682.jpg,A287I4G1Q0K003
412,2.0,left,left,1.0,1.2194,0.0,52.0,52.0,52.0,1.0,2449442529-124445.jpg,2986408373-73286.jpg,A287I4G1Q0K003
413,3.0,right,right,1.0,1.1016,0.0,53.0,53.0,53.0,1.0,2898632385-217139.jpg,2901939379-143480.jpg,A287I4G1Q0K003
414,1.0,right,right,1.0,1.4111,0.0,54.0,54.0,54.0,1.0,2864901420-212147.jpg,2864907432-362042.jpg,A287I4G1Q0K003
415,1.0,left,right,0.0,2.0569,0.0,55.0,55.0,55.0,1.0,2868475410-213219.jpg,2901946465-218350.jpg,A287I4G1Q0K003
416,3.0,left,left,1.0,0.7535,0.0,56.0,56.0,56.0,1.0,2460547508-51571.jpg,2901941438-69835.jpg,A287I4G1Q0K003
417,1.0,right,right,1.0,0.7532,0.0,57.0,57.0,57.0,1.0,2898626385-216899.jpg,2986451363-73599.jpg,A287I4G1Q0K003
418,3.0,left,right,0.0,1.2193,0.0,58.0,58.0,58.0,1.0,2883273443-68193.jpg,2898627427-366763.jpg,A287I4G1Q0K003
419,3.0,right,right,1.0,2.5178,0.0,59.0,59.0,59.0,1.0,2427873848-47312.jpg,2981241414-145842.jpg,A287I4G1Q0K003
420,1.0,left,right,0.0,3.078,0.0,0.0,0.0,0.0,1.0,2238580740-186218.jpg,2238550816-254000.jpg,A1YGV1J2URRQDG
421,3.0,left,left,1.0,1.577,0.0,1.0,1.0,1.0,1.0,2449442529-124445.jpg,2898632385-217137.jpg,A1YGV1J2URRQDG
422,2.0,left,left,1.0,2.18,0.0,2.0,2.0,2.0,1.0,2898618390-216538.jpg,2901939327-367670.jpg,A1YGV1J2URRQDG
423,2.0,left,left,1.0,1.559,0.0,3.0,3.0,3.0,1.0,2874302418-65979.jpg,2238480648-19714.jpg,A1YGV1J2URRQDG
424,2.0,left,left,1.0,6.065,0.0,4.0,4.0,4.0,1.0,2981231403-71642.jpg,2874305405-214397.jpg,A1YGV1J2URRQDG
425,2.0,left,left,1.0,2.282,0.0,5.0,5.0,5.0,1.0,2981241414-145842.jpg,2874301404-139813.jpg,A1YGV1J2URRQDG
426,1.0,left,left,1.0,1.925,0.0,6.0,6.0,6.0,1.0,2898635427-367120.jpg,2964221435-219434.jpg,A1YGV1J2URRQDG
427,1.0,right,left,0.0,2.141,0.0,7.0,7.0,7.0,1.0,2898626385-216899.jpg,2986451363-73599.jpg,A1YGV1J2URRQDG
428,1.0,left,left,1.0,1.736,0.0,8.0,8.0,8.0,1.0,2883273443-68193.jpg,2883254439-140940.jpg,A1YGV1J2URRQDG
429,2.0,left,right,0.0,2.375,0.0,9.0,9.0,9.0,1.0,2883256307-365057.jpg,2964210336-293945.jpg,A1YGV1J2URRQDG
430,3.0,left,right,0.0,2.585,0.0,10.0,10.0,10.0,1.0,2898634397-367080.jpg,2964217461-294238.jpg,A1YGV1J2URRQDG
431,2.0,right,right,1.0,2.512,0.0,11.0,11.0,11.0,1.0,2868487415-213924.jpg,2460547467-349422.jpg,A1YGV1J2URRQDG
432,2.0,right,left,0.0,3.649,0.0,12.0,12.0,12.0,1.0,2883268412-365899.jpg,2864910426-287204.jpg,A1YGV1J2URRQDG
433,3.0,right,right,1.0,2.238,0.0,13.0,13.0,13.0,1.0,2237858942-299356.jpg,2452380832-348593.jpg,A1YGV1J2URRQDG
434,3.0,left,left,1.0,1.958,0.0,14.0,14.0,14.0,1.0,2901939379-143480.jpg,2898632385-217139.jpg,A1YGV1J2URRQDG
435,2.0,left,left,1.0,2.917,0.0,15.0,15.0,15.0,1.0,2964218374-144967.jpg,2446759306-271734.jpg,A1YGV1J2URRQDG
436,1.0,right,right,1.0,1.496,0.0,16.0,16.0,16.0,1.0,2898618327-366317.jpg,2901941401-292798.jpg,A1YGV1J2URRQDG
437,3.0,right,right,1.0,3.144,0.0,17.0,17.0,17.0,1.0,2460547536-274178.jpg,2449442529-124446.jpg,A1YGV1J2URRQDG
438,3.0,right,right,1.0,2.181,0.0,18.0,18.0,18.0,1.0,2964207374-144577.jpg,2898617468-68274.jpg,A1YGV1J2URRQDG
439,1.0,left,right,0.0,1.566,0.0,19.0,19.0,19.0,1.0,2898635428-69104.jpg,2446759803-49250.jpg,A1YGV1J2URRQDG
440,1.0,right,right,1.0,1.89,0.0,20.0,20.0,20.0,1.0,2592380255-205553.jpg,2238560245-182099.jpg,A1YGV1J2URRQDG
441,2.0,left,left,1.0,2.679,0.0,21.0,21.0,21.0,1.0,2898633421-291973.jpg,2575118671-277663.jpg,A1YGV1J2URRQDG
442,3.0,left,left,1.0,1.697,0.0,22.0,22.0,22.0,1.0,2964213381-294060.jpg,2964213381-294061.jpg,A1YGV1J2URRQDG
443,2.0,right,right,1.0,1.667,0.0,23.0,23.0,23.0,1.0,2427874554-121863.jpg,2458347385-199723.jpg,A1YGV1J2URRQDG
444,2.0,left,left,1.0,2.496,0.0,24.0,24.0,24.0,1.0,2592380177-354626.jpg,2864901386-286797.jpg,A1YGV1J2URRQDG
445,1.0,left,left,1.0,1.869,0.0,25.0,25.0,25.0,1.0,2874303365-214262.jpg,2274829821-263682.jpg,A1YGV1J2URRQDG
446,2.0,right,right,1.0,1.597,0.0,26.0,26.0,26.0,1.0,2238573546-258454.jpg,2238480677-317399.jpg,A1YGV1J2URRQDG
447,1.0,right,left,0.0,1.348,0.0,27.0,27.0,27.0,1.0,2981240424-145794.jpg,2964222378-71332.jpg,A1YGV1J2URRQDG
448,3.0,right,right,1.0,2.117,0.0,28.0,28.0,28.0,1.0,2883266367-365742.jpg,2874299429-139694.jpg,A1YGV1J2URRQDG
449,3.0,right,right,1.0,3.234,0.0,29.0,29.0,29.0,1.0,2238436252-314037.jpg,2883268412-365898.jpg,A1YGV1J2URRQDG
450,1.0,left,left,1.0,1.547,0.0,30.0,30.0,30.0,1.0,2238428357-313623.jpg,2238499057-320266.jpg,A1YGV1J2URRQDG
451,1.0,left,left,1.0,1.601,0.0,31.0,31.0,31.0,1.0,2898618444-142233.jpg,2898631359-142721.jpg,A1YGV1J2URRQDG
452,3.0,right,right,1.0,1.743,0.0,32.0,32.0,32.0,1.0,2868474407-362885.jpg,2868475410-213219.jpg,A1YGV1J2URRQDG
453,1.0,right,right,1.0,1.782,0.0,33.0,33.0,33.0,1.0,2984615358-72439.jpg,2874307433-66280.jpg,A1YGV1J2URRQDG
454,3.0,left,left,1.0,1.339,0.0,34.0,34.0,34.0,1.0,2592379964-131054.jpg,2592380272-354673.jpg,A1YGV1J2URRQDG
455,1.0,left,left,1.0,1.917,0.0,35.0,35.0,35.0,1.0,2460547508-51571.jpg,2452380166-273109.jpg,A1YGV1J2URRQDG
456,1.0,left,right,0.0,3.306,0.0,36.0,36.0,36.0,1.0,2964223381-294447.jpg,2427874231-269884.jpg,A1YGV1J2URRQDG
457,2.0,right,left,0.0,2.644,0.0,37.0,37.0,37.0,1.0,2238571930-184143.jpg,2238572663-35822.jpg,A1YGV1J2URRQDG
458,2.0,right,right,1.0,2.123,0.0,38.0,38.0,38.0,1.0,2981236443-71859.jpg,2898624426-291546.jpg,A1YGV1J2URRQDG
459,3.0,left,left,1.0,2.926,0.0,39.0,39.0,39.0,1.0,2901947423-70311.jpg,2238577590-185467.jpg,A1YGV1J2URRQDG
460,3.0,left,left,1.0,2.532,0.0,40.0,40.0,40.0,1.0,2446759803-49249.jpg,2901951392-368654.jpg,A1YGV1J2URRQDG
461,1.0,left,left,1.0,2.344,0.0,41.0,41.0,41.0,1.0,2238425482-313537.jpg,2238471391-240918.jpg,A1YGV1J2URRQDG
462,2.0,left,left,1.0,2.764,0.0,42.0,42.0,42.0,1.0,2238481928-19949.jpg,2864900357-361688.jpg,A1YGV1J2URRQDG
463,3.0,right,right,1.0,1.915,0.0,43.0,43.0,43.0,1.0,2446760917-347439.jpg,2874299429-139695.jpg,A1YGV1J2URRQDG
464,2.0,right,right,1.0,1.685,0.0,44.0,44.0,44.0,1.0,2446758985-197610.jpg,2901939379-143479.jpg,A1YGV1J2URRQDG
465,3.0,right,right,1.0,3.107,0.0,45.0,45.0,45.0,1.0,2901947448-70314.jpg,2883268471-290842.jpg,A1YGV1J2URRQDG
466,1.0,right,right,1.0,1.374,0.0,46.0,46.0,46.0,1.0,2981240424-145795.jpg,2446758985-197609.jpg,A1YGV1J2URRQDG
467,2.0,right,right,1.0,1.793,0.0,47.0,47.0,47.0,1.0,2898632385-217138.jpg,2452381505-199546.jpg,A1YGV1J2URRQDG
468,3.0,left,right,0.0,2.399,0.0,48.0,48.0,48.0,1.0,2986451363-73598.jpg,2901942443-69925.jpg,A1YGV1J2URRQDG
469,1.0,right,right,1.0,2.187,0.0,49.0,49.0,49.0,1.0,2864907361-287062.jpg,2901952513-70703.jpg,A1YGV1J2URRQDG
470,2.0,right,right,1.0,1.833,0.0,50.0,50.0,50.0,1.0,2575120738-55528.jpg,2575120738-55529.jpg,A1YGV1J2URRQDG
471,3.0,left,right,0.0,2.282,0.0,51.0,51.0,51.0,1.0,2868474407-362883.jpg,2901948383-70363.jpg,A1YGV1J2URRQDG
472,3.0,right,right,1.0,2.836,0.0,52.0,52.0,52.0,1.0,2989726338-74002.jpg,2864907432-362042.jpg,A1YGV1J2URRQDG
473,3.0,right,right,1.0,1.222,0.0,53.0,53.0,53.0,1.0,2898619327-366362.jpg,2964216465-219242.jpg,A1YGV1J2URRQDG
474,1.0,left,left,1.0,2.246,0.0,54.0,54.0,54.0,1.0,2874301407-363895.jpg,2446761374-124213.jpg,A1YGV1J2URRQDG
475,1.0,left,left,1.0,1.938,0.0,55.0,55.0,55.0,1.0,2238481198-19822.jpg,2862691449-137104.jpg,A1YGV1J2URRQDG
476,3.0,left,left,1.0,1.609,0.0,56.0,56.0,56.0,1.0,2460547467-349421.jpg,2981235446-294901.jpg,A1YGV1J2URRQDG
477,1.0,left,left,1.0,2.078,0.0,57.0,57.0,57.0,1.0,2592380177-354629.jpg,2898633421-291974.jpg,A1YGV1J2URRQDG
478,2.0,left,left,1.0,1.948,0.0,58.0,58.0,58.0,1.0,2874302418-65978.jpg,2238481198-19823.jpg,A1YGV1J2URRQDG
479,2.0,left,right,0.0,3.829,0.0,59.0,59.0,59.0,1.0,2512875899-126682.jpg,2592380177-354628.jpg,A1YGV1J2URRQDG
480,1.0,right,right,1.0,2.5502,0.0,0.0,0.0,0.0,1.0,2964218374-144968.jpg,2964218374-144967.jpg,A1AW4WCRVLE1C6
481,3.0,right,right,1.0,2.8033,0.0,1.0,1.0,1.0,1.0,2238436252-314037.jpg,2883268412-365898.jpg,A1AW4WCRVLE1C6
482,1.0,right,left,0.0,2.7036,0.0,2.0,2.0,2.0,1.0,2883266388-67750.jpg,2874299429-139695.jpg,A1AW4WCRVLE1C6
483,2.0,left,left,1.0,1.5651,0.0,3.0,3.0,3.0,1.0,2592380177-354629.jpg,2579432534-130704.jpg,A1AW4WCRVLE1C6
484,3.0,left,left,1.0,2.9305,0.0,4.0,4.0,4.0,1.0,2898617468-68274.jpg,2964207374-144577.jpg,A1AW4WCRVLE1C6
485,3.0,right,left,0.0,2.8933,0.0,5.0,5.0,5.0,1.0,2898632385-217137.jpg,2449442529-124445.jpg,A1AW4WCRVLE1C6
486,2.0,right,right,1.0,2.41,0.0,6.0,6.0,6.0,1.0,2874301404-139813.jpg,2981241414-145842.jpg,A1AW4WCRVLE1C6
487,2.0,right,left,0.0,2.2558,0.0,7.0,7.0,7.0,1.0,2864909447-362144.jpg,2446758985-197609.jpg,A1AW4WCRVLE1C6
488,2.0,right,right,1.0,0.3834,0.0,8.0,8.0,8.0,1.0,2238480648-19714.jpg,2874302418-65979.jpg,A1AW4WCRVLE1C6
489,2.0,right,right,1.0,2.665,0.0,9.0,9.0,9.0,1.0,2446758985-197610.jpg,2901939379-143479.jpg,A1AW4WCRVLE1C6
490,1.0,left,left,1.0,2.3381,0.0,10.0,10.0,10.0,1.0,2964216465-219242.jpg,2238544191-252422.jpg,A1AW4WCRVLE1C6
491,2.0,left,left,1.0,6.0384,0.0,11.0,11.0,11.0,1.0,2874302418-65978.jpg,2238481198-19823.jpg,A1AW4WCRVLE1C6
492,3.0,left,right,0.0,1.5544,0.0,12.0,12.0,12.0,1.0,2898635428-69104.jpg,2898625336-291572.jpg,A1AW4WCRVLE1C6
493,3.0,left,left,1.0,3.9682,0.0,13.0,13.0,13.0,1.0,2238428357-313623.jpg,2986408339-146952.jpg,A1AW4WCRVLE1C6
494,2.0,left,left,1.0,1.8165,0.0,14.0,14.0,14.0,1.0,2460547467-349421.jpg,2452380166-273110.jpg,A1AW4WCRVLE1C6
495,1.0,left,right,0.0,2.9907,0.0,15.0,15.0,15.0,1.0,2898635427-367120.jpg,2964221435-219434.jpg,A1AW4WCRVLE1C6
496,1.0,right,left,0.0,2.9868,0.0,16.0,16.0,16.0,1.0,2862691449-137104.jpg,2238481198-19822.jpg,A1AW4WCRVLE1C6
497,2.0,left,right,0.0,3.5751,0.0,17.0,17.0,17.0,1.0,2901952513-70703.jpg,2868469411-287540.jpg,A1AW4WCRVLE1C6
498,2.0,left,left,1.0,1.7772,0.0,18.0,18.0,18.0,1.0,2238560245-182099.jpg,2874314526-289684.jpg,A1AW4WCRVLE1C6
499,1.0,right,right,1.0,1.7805,0.0,19.0,19.0,19.0,1.0,2237856148-989.jpg,2898618390-216538.jpg,A1AW4WCRVLE1C6
500,3.0,left,left,1.0,2.6108,0.0,20.0,20.0,20.0,1.0,2874303365-214262.jpg,2864911457-362260.jpg,A1AW4WCRVLE1C6
501,1.0,right,left,0.0,2.3377,0.0,21.0,21.0,21.0,1.0,2238550816-254000.jpg,2238580740-186218.jpg,A1AW4WCRVLE1C6
502,2.0,left,right,0.0,2.5852,0.0,22.0,22.0,22.0,1.0,2898618444-142233.jpg,2238555262-330312.jpg,A1AW4WCRVLE1C6
503,1.0,right,left,0.0,2.8346,0.0,23.0,23.0,23.0,1.0,2883264367-365620.jpg,2238481928-19949.jpg,A1AW4WCRVLE1C6
504,2.0,right,left,0.0,2.0283,0.0,24.0,24.0,24.0,1.0,2238479053-19457.jpg,2592379964-131054.jpg,A1AW4WCRVLE1C6
505,2.0,left,left,1.0,3.1454,0.0,25.0,25.0,25.0,1.0,2512875899-126682.jpg,2592380177-354628.jpg,A1AW4WCRVLE1C6
506,1.0,right,right,1.0,4.5761,0.0,26.0,26.0,26.0,1.0,2238481630-168218.jpg,2238480677-317399.jpg,A1AW4WCRVLE1C6
507,3.0,right,right,1.0,2.625,0.0,27.0,27.0,27.0,1.0,2238434559-90406.jpg,2986451363-73599.jpg,A1AW4WCRVLE1C6
508,1.0,right,left,0.0,2.4112,0.0,28.0,28.0,28.0,1.0,2984615358-72439.jpg,2874307433-66280.jpg,A1AW4WCRVLE1C6
509,2.0,right,left,0.0,1.5188,0.0,29.0,29.0,29.0,1.0,2898618440-216547.jpg,2446759803-49249.jpg,A1AW4WCRVLE1C6
510,1.0,left,left,1.0,2.4669,0.0,30.0,30.0,30.0,1.0,2898624426-291546.jpg,2964218432-369263.jpg,A1AW4WCRVLE1C6
511,1.0,left,left,1.0,2.5963,0.0,31.0,31.0,31.0,1.0,2458347385-199723.jpg,2238480434-93829.jpg,A1AW4WCRVLE1C6
512,2.0,right,right,1.0,1.6841,0.0,32.0,32.0,32.0,1.0,2238571930-184143.jpg,2238572663-35822.jpg,A1AW4WCRVLE1C6
513,2.0,right,left,0.0,1.8912,0.0,33.0,33.0,33.0,1.0,2986397322-371109.jpg,2874301407-363895.jpg,A1AW4WCRVLE1C6
514,3.0,right,left,0.0,2.1399,0.0,34.0,34.0,34.0,1.0,2898627427-366763.jpg,2883273443-68193.jpg,A1AW4WCRVLE1C6
515,1.0,right,right,1.0,3.5232,0.0,35.0,35.0,35.0,1.0,2901942428-69919.jpg,2901939379-143480.jpg,A1AW4WCRVLE1C6
516,2.0,right,right,1.0,2.4161,0.0,36.0,36.0,36.0,1.0,2864901386-286797.jpg,2592380177-354626.jpg,A1AW4WCRVLE1C6
517,1.0,left,left,1.0,1.7191,0.0,37.0,37.0,37.0,1.0,2964222378-71332.jpg,2981240424-145794.jpg,A1AW4WCRVLE1C6
518,1.0,right,right,1.0,2.9933,0.0,38.0,38.0,38.0,1.0,2237857458-1324.jpg,2986451363-73598.jpg,A1AW4WCRVLE1C6
519,1.0,left,left,1.0,1.8682,0.0,39.0,39.0,39.0,1.0,2868474407-362883.jpg,2460547732-349518.jpg,A1AW4WCRVLE1C6
520,2.0,left,right,0.0,2.0702,0.0,40.0,40.0,40.0,1.0,2460547508-51571.jpg,2981232437-369759.jpg,A1AW4WCRVLE1C6
521,3.0,right,left,0.0,1.8175,0.0,41.0,41.0,41.0,1.0,2898628438-68785.jpg,2964223381-294447.jpg,A1AW4WCRVLE1C6
522,1.0,right,right,1.0,1.7055,0.0,42.0,42.0,42.0,1.0,2611628310-206388.jpg,2883256307-365057.jpg,A1AW4WCRVLE1C6
523,1.0,left,left,1.0,1.7632,0.0,43.0,43.0,43.0,1.0,2901947423-70311.jpg,2860312398-62572.jpg,A1AW4WCRVLE1C6
524,1.0,right,right,1.0,1.8528,0.0,44.0,44.0,44.0,1.0,2512876023-52283.jpg,2898633421-291973.jpg,A1AW4WCRVLE1C6
525,2.0,right,right,1.0,1.6839,0.0,45.0,45.0,45.0,1.0,2460547536-274181.jpg,2449442529-124446.jpg,A1AW4WCRVLE1C6
526,3.0,left,left,1.0,1.4783,0.0,46.0,46.0,46.0,1.0,2575120738-55529.jpg,2238531493-28260.jpg,A1AW4WCRVLE1C6
527,2.0,right,left,0.0,1.2799,0.0,47.0,47.0,47.0,1.0,2883255450-215310.jpg,2883268471-290842.jpg,A1AW4WCRVLE1C6
528,3.0,left,left,1.0,1.9811,0.0,48.0,48.0,48.0,1.0,2238425482-313537.jpg,2898633480-217190.jpg,A1AW4WCRVLE1C6
529,3.0,right,left,0.0,2.0243,0.0,49.0,49.0,49.0,1.0,2964213381-294061.jpg,2964213381-294060.jpg,A1AW4WCRVLE1C6
530,3.0,left,right,0.0,2.7506,0.0,50.0,50.0,50.0,1.0,2874299429-139694.jpg,2883266367-365742.jpg,A1AW4WCRVLE1C6
531,3.0,right,left,0.0,1.2225,0.0,51.0,51.0,51.0,1.0,2901939433-69672.jpg,2864910426-287204.jpg,A1AW4WCRVLE1C6
532,3.0,right,right,1.0,3.081,0.0,52.0,52.0,52.0,1.0,2864909447-362146.jpg,2460547467-349422.jpg,A1AW4WCRVLE1C6
533,3.0,left,left,1.0,2.611,0.0,53.0,53.0,53.0,1.0,2452380832-348593.jpg,2237858942-299356.jpg,A1AW4WCRVLE1C6
534,3.0,right,left,0.0,1.9064,0.0,54.0,54.0,54.0,1.0,2994401319-148290.jpg,2452381505-199546.jpg,A1AW4WCRVLE1C6
535,3.0,left,right,0.0,2.2161,0.0,55.0,55.0,55.0,1.0,2898634397-367080.jpg,2964217461-294238.jpg,A1AW4WCRVLE1C6
536,1.0,left,left,1.0,1.507,0.0,56.0,56.0,56.0,1.0,2868475410-213219.jpg,2901946465-218350.jpg,A1AW4WCRVLE1C6
537,3.0,right,left,0.0,1.3786,0.0,57.0,57.0,57.0,1.0,2989726338-74002.jpg,2864907432-362042.jpg,A1AW4WCRVLE1C6
538,3.0,right,right,1.0,1.6376,0.0,58.0,58.0,58.0,1.0,2898631468-68931.jpg,2901941401-292798.jpg,A1AW4WCRVLE1C6
539,2.0,right,left,0.0,1.4746,0.0,59.0,59.0,59.0,1.0,2874305405-214397.jpg,2981231403-71642.jpg,A1AW4WCRVLE1C6
540,1.0,left,right,0.0,1.3597,0.0,0.0,0.0,0.0,1.0,2460547467-349422.jpg,2898618440-216545.jpg,A2Q0XPK1CBAKFA
541,2.0,right,left,0.0,0.0151,0.0,1.0,1.0,1.0,1.0,2898618440-216547.jpg,2446759803-49249.jpg,A2Q0XPK1CBAKFA
542,1.0,right,left,0.0,0.0148,0.0,2.0,2.0,2.0,1.0,2984626312-370849.jpg,2883268412-365898.jpg,A2Q0XPK1CBAKFA
543,2.0,right,left,0.0,0.0146,0.0,3.0,3.0,3.0,1.0,2460547508-51572.jpg,2883273443-68193.jpg,A2Q0XPK1CBAKFA
544,1.0,left,left,1.0,0.0145,0.0,4.0,4.0,4.0,1.0,2901941401-292798.jpg,2898618327-366317.jpg,A2Q0XPK1CBAKFA
545,2.0,right,left,0.0,0.0147,0.0,5.0,5.0,5.0,1.0,2592380177-354628.jpg,2512875899-126682.jpg,A2Q0XPK1CBAKFA
546,3.0,left,left,1.0,0.0142,0.0,6.0,6.0,6.0,1.0,2874301407-363895.jpg,2901947323-70275.jpg,A2Q0XPK1CBAKFA
547,2.0,left,left,1.0,0.0148,0.0,7.0,7.0,7.0,1.0,2452381505-199546.jpg,2898632385-217138.jpg,A2Q0XPK1CBAKFA
548,1.0,left,left,1.0,0.0147,0.0,8.0,8.0,8.0,1.0,2592380177-354629.jpg,2898633421-291974.jpg,A2Q0XPK1CBAKFA
549,2.0,right,left,0.0,0.0149,0.0,9.0,9.0,9.0,1.0,2460547536-274181.jpg,2449442529-124446.jpg,A2Q0XPK1CBAKFA
550,1.0,right,right,1.0,0.0147,0.0,10.0,10.0,10.0,1.0,2238584894-113161.jpg,2238572663-35822.jpg,A2Q0XPK1CBAKFA
551,2.0,right,right,1.0,0.0154,0.0,11.0,11.0,11.0,1.0,2901939327-367670.jpg,2898618390-216538.jpg,A2Q0XPK1CBAKFA
552,3.0,right,right,1.0,0.0146,0.0,12.0,12.0,12.0,1.0,2458347252-348911.jpg,2458347385-199723.jpg,A2Q0XPK1CBAKFA
553,1.0,right,right,1.0,0.0157,0.0,13.0,13.0,13.0,1.0,2238576792-334659.jpg,2592380177-354626.jpg,A2Q0XPK1CBAKFA
554,3.0,right,right,1.0,0.0147,0.0,14.0,14.0,14.0,1.0,2898624426-291544.jpg,2446758985-197609.jpg,A2Q0XPK1CBAKFA
555,1.0,right,right,1.0,0.0142,0.0,15.0,15.0,15.0,1.0,2860312398-62572.jpg,2901947423-70311.jpg,A2Q0XPK1CBAKFA
556,3.0,left,right,0.0,0.0156,0.0,16.0,16.0,16.0,1.0,2901939379-143479.jpg,2964216376-294181.jpg,A2Q0XPK1CBAKFA
557,1.0,left,right,0.0,0.0147,0.0,17.0,17.0,17.0,1.0,2898635428-69104.jpg,2446759803-49250.jpg,A2Q0XPK1CBAKFA
558,2.0,right,left,0.0,0.0152,0.0,18.0,18.0,18.0,1.0,2238436322-314047.jpg,2238425482-313537.jpg,A2Q0XPK1CBAKFA
559,1.0,right,left,0.0,0.015,0.0,19.0,19.0,19.0,1.0,2964218374-144968.jpg,2964218374-144967.jpg,A2Q0XPK1CBAKFA
560,1.0,right,right,1.0,0.0156,0.0,20.0,20.0,20.0,1.0,2460547732-349518.jpg,2868474407-362883.jpg,A2Q0XPK1CBAKFA
561,3.0,right,right,1.0,0.0145,0.0,21.0,21.0,21.0,1.0,2446760917-347439.jpg,2874299429-139695.jpg,A2Q0XPK1CBAKFA
562,2.0,left,right,0.0,0.0148,0.0,22.0,22.0,22.0,1.0,2986451363-73599.jpg,2860302315-210704.jpg,A2Q0XPK1CBAKFA
563,3.0,left,right,0.0,0.0152,0.0,23.0,23.0,23.0,1.0,2883268471-290842.jpg,2901947448-70314.jpg,A2Q0XPK1CBAKFA
564,3.0,left,right,0.0,0.0147,0.0,24.0,24.0,24.0,1.0,2901939379-143480.jpg,2898632385-217139.jpg,A2Q0XPK1CBAKFA
565,1.0,left,right,0.0,0.0151,0.0,25.0,25.0,25.0,1.0,2898634397-367080.jpg,2237944827-301472.jpg,A2Q0XPK1CBAKFA
566,2.0,right,right,1.0,0.0155,0.0,26.0,26.0,26.0,1.0,2238555262-330312.jpg,2898618444-142233.jpg,A2Q0XPK1CBAKFA
567,3.0,right,right,1.0,0.0149,0.0,27.0,27.0,27.0,1.0,2981240427-370099.jpg,2964222378-71332.jpg,A2Q0XPK1CBAKFA
568,1.0,right,right,1.0,0.0152,0.0,28.0,28.0,28.0,1.0,2237857458-1324.jpg,2986451363-73598.jpg,A2Q0XPK1CBAKFA
569,1.0,left,right,0.0,0.0149,0.0,29.0,29.0,29.0,1.0,2874299429-139694.jpg,2986447306-296584.jpg,A2Q0XPK1CBAKFA
570,2.0,left,right,0.0,0.0144,0.0,30.0,30.0,30.0,1.0,2874302418-65978.jpg,2238481198-19823.jpg,A2Q0XPK1CBAKFA
571,2.0,right,right,1.0,0.0143,0.0,31.0,31.0,31.0,1.0,2981236443-71859.jpg,2898624426-291546.jpg,A2Q0XPK1CBAKFA
572,3.0,right,right,1.0,0.0149,0.0,32.0,32.0,32.0,1.0,2868474407-362885.jpg,2868475410-213219.jpg,A2Q0XPK1CBAKFA
573,3.0,right,right,1.0,0.0144,0.0,33.0,33.0,33.0,1.0,2238578544-111698.jpg,2874302418-65979.jpg,A2Q0XPK1CBAKFA
574,3.0,left,right,0.0,0.0151,0.0,34.0,34.0,34.0,1.0,2874307433-66280.jpg,2981231422-369714.jpg,A2Q0XPK1CBAKFA
575,2.0,right,right,1.0,0.0156,0.0,35.0,35.0,35.0,1.0,2238481813-19930.jpg,2452380832-348593.jpg,A2Q0XPK1CBAKFA
576,1.0,right,right,1.0,0.0153,0.0,36.0,36.0,36.0,1.0,2592380255-205553.jpg,2238560245-182099.jpg,A2Q0XPK1CBAKFA
577,2.0,right,right,1.0,0.0146,0.0,37.0,37.0,37.0,1.0,2238521193-26285.jpg,2238580740-186218.jpg,A2Q0XPK1CBAKFA
578,3.0,right,right,1.0,0.0146,0.0,38.0,38.0,38.0,1.0,2427873848-47312.jpg,2981241414-145842.jpg,A2Q0XPK1CBAKFA
579,1.0,left,right,0.0,0.0144,0.0,39.0,39.0,39.0,1.0,2592379964-131054.jpg,2575963989-130576.jpg,A2Q0XPK1CBAKFA
580,1.0,right,right,1.0,0.0148,0.0,40.0,40.0,40.0,1.0,2611628310-206388.jpg,2883256307-365057.jpg,A2Q0XPK1CBAKFA
581,3.0,right,right,1.0,0.015,0.0,41.0,41.0,41.0,1.0,2989726338-74002.jpg,2864907432-362042.jpg,A2Q0XPK1CBAKFA
582,1.0,right,right,1.0,0.0186,0.0,42.0,42.0,42.0,1.0,2427874231-269884.jpg,2964223381-294447.jpg,A2Q0XPK1CBAKFA
583,3.0,left,left,1.0,0.0152,0.0,43.0,43.0,43.0,1.0,2238480677-317399.jpg,2238480278-19661.jpg,A2Q0XPK1CBAKFA
584,2.0,right,left,0.0,0.0153,0.0,44.0,44.0,44.0,1.0,2901946436-293242.jpg,2238481198-19822.jpg,A2Q0XPK1CBAKFA
585,2.0,left,right,0.0,0.0143,0.0,45.0,45.0,45.0,1.0,2460547467-349421.jpg,2452380166-273110.jpg,A2Q0XPK1CBAKFA
586,1.0,left,right,0.0,0.0146,0.0,46.0,46.0,46.0,1.0,2575120738-55529.jpg,2864906345-212360.jpg,A2Q0XPK1CBAKFA
587,2.0,right,right,1.0,0.015,0.0,47.0,47.0,47.0,1.0,2986408373-73286.jpg,2449442529-124445.jpg,A2Q0XPK1CBAKFA
588,2.0,left,right,0.0,0.0146,0.0,48.0,48.0,48.0,1.0,2901952513-70703.jpg,2868469411-287540.jpg,A2Q0XPK1CBAKFA
589,3.0,left,right,0.0,0.015,0.0,49.0,49.0,49.0,1.0,2898617468-68274.jpg,2964207374-144577.jpg,A2Q0XPK1CBAKFA
590,2.0,right,right,1.0,0.0147,0.0,50.0,50.0,50.0,1.0,2981232437-369759.jpg,2460547508-51571.jpg,A2Q0XPK1CBAKFA
591,2.0,right,right,1.0,0.0144,0.0,51.0,51.0,51.0,1.0,2238563377-332054.jpg,2874303365-214262.jpg,A2Q0XPK1CBAKFA
592,3.0,right,right,1.0,0.0174,0.0,52.0,52.0,52.0,1.0,2981241419-145844.jpg,2238481928-19949.jpg,A2Q0XPK1CBAKFA
593,2.0,left,right,0.0,0.0156,0.0,53.0,53.0,53.0,1.0,2898635427-367120.jpg,2868479517-363220.jpg,A2Q0XPK1CBAKFA
594,1.0,right,right,1.0,0.0148,0.0,54.0,54.0,54.0,1.0,2512876023-52283.jpg,2898633421-291973.jpg,A2Q0XPK1CBAKFA
595,3.0,left,right,0.0,0.015,0.0,55.0,55.0,55.0,1.0,2238428357-313623.jpg,2986408339-146952.jpg,A2Q0XPK1CBAKFA
596,3.0,right,right,1.0,0.015,0.0,56.0,56.0,56.0,1.0,2427873763-47290.jpg,2981231403-71642.jpg,A2Q0XPK1CBAKFA
597,3.0,left,right,0.0,0.0147,0.0,57.0,57.0,57.0,1.0,2964213381-294060.jpg,2964213381-294061.jpg,A2Q0XPK1CBAKFA
598,1.0,right,right,1.0,0.0149,0.0,58.0,58.0,58.0,1.0,2238544191-252422.jpg,2964216465-219242.jpg,A2Q0XPK1CBAKFA
599,2.0,left,left,1.0,1.68,0.0,0.0,0.0,0.0,1.0,2874302418-65978.jpg,2238481198-19823.jpg,A1NLJ1L4VCQYV2
600,1.0,left,left,1.0,2.128,0.0,1.0,1.0,1.0,1.0,2238481928-19949.jpg,2883264367-365620.jpg,A1NLJ1L4VCQYV2
601,1.0,right,right,1.0,1.819,0.0,2.0,2.0,2.0,1.0,2883266388-67750.jpg,2874299429-139695.jpg,A1NLJ1L4VCQYV2
602,1.0,left,left,1.0,2.294,0.0,3.0,3.0,3.0,1.0,2458347385-199723.jpg,2238480434-93829.jpg,A1NLJ1L4VCQYV2
603,2.0,left,left,1.0,1.857,0.0,4.0,4.0,4.0,1.0,2238481198-19822.jpg,2901946436-293242.jpg,A1NLJ1L4VCQYV2
604,3.0,right,right,1.0,2.234,0.0,5.0,5.0,5.0,1.0,2901948383-70363.jpg,2868474407-362883.jpg,A1NLJ1L4VCQYV2
605,2.0,left,left,1.0,2.298,0.0,6.0,6.0,6.0,1.0,2901939379-143480.jpg,2981229442-369621.jpg,A1NLJ1L4VCQYV2
606,2.0,left,left,1.0,2.802,0.0,7.0,7.0,7.0,1.0,2981231403-71642.jpg,2874305405-214397.jpg,A1NLJ1L4VCQYV2
607,1.0,left,left,1.0,1.817,0.0,8.0,8.0,8.0,1.0,2964216465-219242.jpg,2238544191-252422.jpg,A1NLJ1L4VCQYV2
608,3.0,left,left,1.0,1.801,0.0,9.0,9.0,9.0,1.0,2901939379-143479.jpg,2964216376-294181.jpg,A1NLJ1L4VCQYV2
609,1.0,left,left,1.0,1.661,0.0,10.0,10.0,10.0,1.0,2898618390-216538.jpg,2237856148-989.jpg,A1NLJ1L4VCQYV2
610,1.0,right,right,1.0,1.992,0.0,11.0,11.0,11.0,1.0,2864902304-137862.jpg,2864910426-287204.jpg,A1NLJ1L4VCQYV2
611,2.0,right,right,1.0,1.766,0.0,12.0,12.0,12.0,1.0,2238480803-19739.jpg,2868475410-213219.jpg,A1NLJ1L4VCQYV2
612,1.0,left,right,0.0,2.511,0.0,13.0,13.0,13.0,1.0,2964213381-294060.jpg,2981244394-145974.jpg,A1NLJ1L4VCQYV2
613,3.0,right,right,1.0,2.073,0.0,14.0,14.0,14.0,1.0,2898625336-291572.jpg,2898635428-69104.jpg,A1NLJ1L4VCQYV2
614,3.0,right,left,0.0,1.944,0.0,15.0,15.0,15.0,1.0,2898633480-217190.jpg,2238425482-313537.jpg,A1NLJ1L4VCQYV2
615,1.0,left,left,1.0,2.125,0.0,16.0,16.0,16.0,1.0,2874299429-139694.jpg,2986447306-296584.jpg,A1NLJ1L4VCQYV2
616,1.0,right,right,1.0,1.95,0.0,17.0,17.0,17.0,1.0,2898618440-216545.jpg,2460547467-349422.jpg,A1NLJ1L4VCQYV2
617,1.0,right,right,1.0,1.969,0.0,18.0,18.0,18.0,1.0,2898631394-142727.jpg,2460547467-349421.jpg,A1NLJ1L4VCQYV2
618,3.0,left,left,1.0,2.66,0.0,19.0,19.0,19.0,1.0,2898618444-142233.jpg,2898618444-142232.jpg,A1NLJ1L4VCQYV2
619,1.0,left,left,1.0,2.976,0.0,20.0,20.0,20.0,1.0,2446758985-197609.jpg,2981240424-145795.jpg,A1NLJ1L4VCQYV2
620,2.0,right,right,1.0,1.935,0.0,21.0,21.0,21.0,1.0,2898618440-216547.jpg,2446759803-49249.jpg,A1NLJ1L4VCQYV2
621,1.0,left,left,1.0,1.894,0.0,22.0,22.0,22.0,1.0,2901952513-70703.jpg,2864907361-287062.jpg,A1NLJ1L4VCQYV2
622,3.0,left,left,1.0,1.897,0.0,23.0,23.0,23.0,1.0,2901947423-70311.jpg,2238577590-185467.jpg,A1NLJ1L4VCQYV2
623,1.0,right,left,0.0,2.483,0.0,24.0,24.0,24.0,1.0,2237944827-301472.jpg,2898634397-367080.jpg,A1NLJ1L4VCQYV2
624,1.0,right,right,1.0,3.227,0.0,25.0,25.0,25.0,1.0,2898633421-291974.jpg,2592380177-354629.jpg,A1NLJ1L4VCQYV2
625,3.0,left,left,1.0,2.188,0.0,26.0,26.0,26.0,1.0,2874303365-214262.jpg,2864911457-362260.jpg,A1NLJ1L4VCQYV2
626,3.0,left,left,1.0,3.601,0.0,27.0,27.0,27.0,1.0,2874302418-65979.jpg,2238578544-111698.jpg,A1NLJ1L4VCQYV2
627,3.0,right,left,0.0,1.884,0.0,28.0,28.0,28.0,1.0,2981231446-294732.jpg,2964218374-144967.jpg,A1NLJ1L4VCQYV2
628,2.0,right,left,0.0,2.302,0.0,29.0,29.0,29.0,1.0,2460547508-51572.jpg,2883273443-68193.jpg,A1NLJ1L4VCQYV2
629,2.0,left,left,1.0,2.367,0.0,30.0,30.0,30.0,1.0,2460547508-51571.jpg,2981232437-369759.jpg,A1NLJ1L4VCQYV2
630,3.0,right,right,1.0,2.394,0.0,31.0,31.0,31.0,1.0,2981231422-369714.jpg,2874307433-66280.jpg,A1NLJ1L4VCQYV2
631,2.0,right,right,1.0,4.21,0.0,32.0,32.0,32.0,1.0,2874314526-289684.jpg,2238560245-182099.jpg,A1NLJ1L4VCQYV2
632,2.0,right,left,0.0,2.153,0.0,33.0,33.0,33.0,1.0,2981243412-370222.jpg,2901941401-292798.jpg,A1NLJ1L4VCQYV2
633,3.0,left,left,1.0,1.266,0.0,34.0,34.0,34.0,1.0,2452380832-348593.jpg,2237858942-299356.jpg,A1NLJ1L4VCQYV2
634,2.0,left,left,1.0,2.588,0.0,35.0,35.0,35.0,1.0,2898624426-291546.jpg,2981236443-71859.jpg,A1NLJ1L4VCQYV2
635,2.0,left,left,1.0,3.955,0.0,36.0,36.0,36.0,1.0,2238572663-35822.jpg,2238571930-184143.jpg,A1NLJ1L4VCQYV2
636,3.0,right,left,0.0,2.718,0.0,37.0,37.0,37.0,1.0,2898621427-366486.jpg,2898635427-367120.jpg,A1NLJ1L4VCQYV2
637,3.0,left,left,1.0,1.932,0.0,38.0,38.0,38.0,1.0,2986451363-73599.jpg,2238434559-90406.jpg,A1NLJ1L4VCQYV2
638,3.0,right,right,1.0,2.793,0.0,39.0,39.0,39.0,1.0,2986447332-371497.jpg,2512875899-126682.jpg,A1NLJ1L4VCQYV2
639,2.0,right,right,1.0,2.477,0.0,40.0,40.0,40.0,1.0,2238479053-19457.jpg,2592379964-131054.jpg,A1NLJ1L4VCQYV2
640,3.0,right,right,1.0,1.261,0.0,41.0,41.0,41.0,1.0,2238480278-19661.jpg,2238480677-317399.jpg,A1NLJ1L4VCQYV2
641,2.0,left,left,1.0,1.516,0.0,42.0,42.0,42.0,1.0,2449442529-124445.jpg,2986408373-73286.jpg,A1NLJ1L4VCQYV2
642,3.0,left,right,0.0,3.417,0.0,43.0,43.0,43.0,1.0,2452381505-199546.jpg,2994401319-148290.jpg,A1NLJ1L4VCQYV2
643,2.0,left,left,1.0,3.825,0.0,44.0,44.0,44.0,1.0,2592380177-354626.jpg,2864901386-286797.jpg,A1NLJ1L4VCQYV2
644,1.0,left,left,1.0,3.174,0.0,45.0,45.0,45.0,1.0,2964223381-294447.jpg,2427874231-269884.jpg,A1NLJ1L4VCQYV2
645,1.0,right,right,1.0,1.572,0.0,46.0,46.0,46.0,1.0,2901946439-144040.jpg,2898617468-68274.jpg,A1NLJ1L4VCQYV2
646,2.0,left,left,1.0,2.066,0.0,47.0,47.0,47.0,1.0,2883268471-290842.jpg,2883255450-215310.jpg,A1NLJ1L4VCQYV2
647,3.0,left,left,1.0,3.15,0.0,48.0,48.0,48.0,1.0,2964222378-71332.jpg,2981240427-370099.jpg,A1NLJ1L4VCQYV2
648,2.0,left,left,1.0,2.219,0.0,49.0,49.0,49.0,1.0,2898633421-291973.jpg,2575118671-277663.jpg,A1NLJ1L4VCQYV2
649,3.0,left,right,0.0,2.787,0.0,50.0,50.0,50.0,1.0,2864907432-362042.jpg,2989726338-74002.jpg,A1NLJ1L4VCQYV2
650,1.0,left,left,1.0,2.102,0.0,51.0,51.0,51.0,1.0,2981241414-145842.jpg,2238516618-25604.jpg,A1NLJ1L4VCQYV2
651,2.0,left,left,1.0,2.768,0.0,52.0,52.0,52.0,1.0,2883268412-365898.jpg,2984615361-295510.jpg,A1NLJ1L4VCQYV2
652,2.0,right,left,0.0,2.715,0.0,53.0,53.0,53.0,1.0,2964210336-293945.jpg,2883256307-365057.jpg,A1NLJ1L4VCQYV2
653,3.0,left,left,1.0,2.056,0.0,54.0,54.0,54.0,1.0,2449442529-124446.jpg,2460547536-274178.jpg,A1NLJ1L4VCQYV2
654,2.0,right,right,1.0,1.889,0.0,55.0,55.0,55.0,1.0,2575120738-55528.jpg,2575120738-55529.jpg,A1NLJ1L4VCQYV2
655,3.0,right,right,1.0,5.072,0.0,56.0,56.0,56.0,1.0,2986408339-146952.jpg,2238428357-313623.jpg,A1NLJ1L4VCQYV2
656,1.0,right,left,0.0,3.703,0.0,57.0,57.0,57.0,1.0,2237857458-1324.jpg,2986451363-73598.jpg,A1NLJ1L4VCQYV2
657,1.0,left,left,1.0,2.049,0.0,58.0,58.0,58.0,1.0,2874301407-363895.jpg,2446761374-124213.jpg,A1NLJ1L4VCQYV2
658,1.0,right,right,1.0,2.366,0.0,59.0,59.0,59.0,1.0,2238550816-254000.jpg,2238580740-186218.jpg,A1NLJ1L4VCQYV2
659,1.0,right,left,0.0,2.644,0.0,0.0,0.0,0.0,1.0,2901938432-367627.jpg,2452381505-199546.jpg,A1PX4CR15QC57J
660,2.0,right,right,1.0,1.937,0.0,1.0,1.0,1.0,1.0,2981243412-370222.jpg,2901941401-292798.jpg,A1PX4CR15QC57J
661,1.0,right,left,0.0,1.954,0.0,2.0,2.0,2.0,1.0,2898631394-142727.jpg,2460547467-349421.jpg,A1PX4CR15QC57J
662,1.0,left,right,0.0,3.238,0.0,3.0,3.0,3.0,1.0,2238481928-19949.jpg,2883264367-365620.jpg,A1PX4CR15QC57J
663,2.0,left,right,0.0,2.418,0.0,4.0,4.0,4.0,1.0,2874303365-214262.jpg,2238563377-332054.jpg,A1PX4CR15QC57J
664,2.0,right,left,0.0,2.743,0.0,5.0,5.0,5.0,1.0,2981246400-220365.jpg,2874307433-66280.jpg,A1PX4CR15QC57J
665,1.0,right,right,1.0,1.776,0.0,6.0,6.0,6.0,1.0,2237944827-301472.jpg,2898634397-367080.jpg,A1PX4CR15QC57J
666,3.0,right,right,1.0,1.586,0.0,7.0,7.0,7.0,1.0,2898624426-291544.jpg,2446758985-197609.jpg,A1PX4CR15QC57J
667,1.0,right,left,0.0,2.298,0.0,8.0,8.0,8.0,1.0,2238471391-240918.jpg,2238425482-313537.jpg,A1PX4CR15QC57J
668,1.0,left,left,1.0,3.0,0.0,9.0,9.0,9.0,1.0,2901952513-70703.jpg,2864907361-287062.jpg,A1PX4CR15QC57J
669,1.0,right,right,1.0,12.066,0.0,10.0,10.0,10.0,1.0,2237857458-1325.jpg,2874302418-65979.jpg,A1PX4CR15QC57J
670,1.0,left,left,1.0,2.667,0.0,11.0,11.0,11.0,1.0,2986451363-73599.jpg,2898626385-216899.jpg,A1PX4CR15QC57J
671,3.0,left,left,1.0,2.434,0.0,12.0,12.0,12.0,1.0,2898624426-291546.jpg,2981235446-294900.jpg,A1PX4CR15QC57J
672,3.0,right,left,0.0,2.205,0.0,13.0,13.0,13.0,1.0,2868474407-362885.jpg,2868475410-213219.jpg,A1PX4CR15QC57J
673,1.0,right,left,0.0,1.81,0.0,14.0,14.0,14.0,1.0,2981240424-145794.jpg,2964222378-71332.jpg,A1PX4CR15QC57J
674,3.0,right,right,1.0,2.04,0.0,15.0,15.0,15.0,1.0,2575120609-129862.jpg,2898618390-216538.jpg,A1PX4CR15QC57J
675,1.0,left,left,1.0,2.297,0.0,16.0,16.0,16.0,1.0,2901939379-143480.jpg,2901942428-69919.jpg,A1PX4CR15QC57J
676,3.0,left,left,1.0,1.778,0.0,17.0,17.0,17.0,1.0,2446759803-49249.jpg,2901951392-368654.jpg,A1PX4CR15QC57J
677,2.0,left,left,1.0,4.096,0.0,18.0,18.0,18.0,1.0,2874299429-139694.jpg,2981244403-72215.jpg,A1PX4CR15QC57J
678,2.0,left,left,1.0,2.382,0.0,19.0,19.0,19.0,1.0,2981241414-145842.jpg,2874301404-139813.jpg,A1PX4CR15QC57J
679,3.0,left,right,0.0,3.686,0.0,20.0,20.0,20.0,1.0,2238481198-19822.jpg,2238480803-19737.jpg,A1PX4CR15QC57J
680,3.0,right,left,0.0,2.435,0.0,21.0,21.0,21.0,1.0,2238577590-185467.jpg,2901947423-70311.jpg,A1PX4CR15QC57J
681,3.0,left,left,1.0,2.024,0.0,22.0,22.0,22.0,1.0,2964218374-144967.jpg,2981231446-294732.jpg,A1PX4CR15QC57J
682,1.0,right,right,1.0,6.577,0.0,23.0,23.0,23.0,1.0,2512876023-52283.jpg,2898633421-291973.jpg,A1PX4CR15QC57J
683,3.0,left,left,1.0,3.527,0.0,24.0,24.0,24.0,1.0,2238560245-182099.jpg,2238480980-168129.jpg,A1PX4CR15QC57J
684,3.0,right,left,0.0,2.664,0.0,25.0,25.0,25.0,1.0,2901942443-69925.jpg,2986451363-73598.jpg,A1PX4CR15QC57J
685,2.0,left,left,1.0,4.672,0.0,26.0,26.0,26.0,1.0,2864907432-362042.jpg,2901947423-70310.jpg,A1PX4CR15QC57J
686,3.0,left,left,1.0,2.005,0.0,27.0,27.0,27.0,1.0,2238428357-313623.jpg,2986408339-146952.jpg,A1PX4CR15QC57J
687,2.0,left,left,1.0,4.966,0.0,28.0,28.0,28.0,1.0,2512875899-126682.jpg,2592380177-354628.jpg,A1PX4CR15QC57J
688,3.0,left,left,1.0,4.077,0.0,29.0,29.0,29.0,1.0,2898635428-69104.jpg,2898625336-291572.jpg,A1PX4CR15QC57J
689,2.0,right,right,1.0,2.135,0.0,30.0,30.0,30.0,1.0,2874305405-214397.jpg,2981231403-71642.jpg,A1PX4CR15QC57J
690,3.0,right,left,0.0,1.766,0.0,31.0,31.0,31.0,1.0,2898632385-217137.jpg,2449442529-124445.jpg,A1PX4CR15QC57J
691,2.0,right,left,0.0,1.825,0.0,32.0,32.0,32.0,1.0,2964210336-293945.jpg,2883256307-365057.jpg,A1PX4CR15QC57J
692,1.0,left,left,1.0,1.769,0.0,33.0,33.0,33.0,1.0,2460547508-51571.jpg,2452380166-273109.jpg,A1PX4CR15QC57J
693,2.0,right,left,0.0,4.338,0.0,34.0,34.0,34.0,1.0,2986397322-371109.jpg,2874301407-363895.jpg,A1PX4CR15QC57J
694,3.0,right,left,0.0,1.976,0.0,35.0,35.0,35.0,1.0,2898628438-68785.jpg,2964223381-294447.jpg,A1PX4CR15QC57J
695,1.0,left,right,0.0,3.901,0.0,36.0,36.0,36.0,1.0,2898617468-68274.jpg,2901946439-144040.jpg,A1PX4CR15QC57J
696,2.0,left,left,1.0,2.143,0.0,37.0,37.0,37.0,1.0,2458347385-199723.jpg,2427874554-121863.jpg,A1PX4CR15QC57J
697,1.0,left,left,1.0,2.349,0.0,38.0,38.0,38.0,1.0,2874302418-65978.jpg,2964224310-219528.jpg,A1PX4CR15QC57J
698,1.0,right,right,1.0,1.461,0.0,39.0,39.0,39.0,1.0,2238328478-11678.jpg,2452380832-348593.jpg,A1PX4CR15QC57J
699,1.0,right,left,0.0,1.883,0.0,40.0,40.0,40.0,1.0,2981244394-145974.jpg,2964213381-294060.jpg,A1PX4CR15QC57J
700,2.0,right,right,1.0,4.447,0.0,41.0,41.0,41.0,1.0,2238555262-330312.jpg,2898618444-142233.jpg,A1PX4CR15QC57J
701,2.0,left,left,1.0,1.787,0.0,42.0,42.0,42.0,1.0,2592380177-354629.jpg,2579432534-130704.jpg,A1PX4CR15QC57J
702,3.0,right,left,0.0,4.837,0.0,43.0,43.0,43.0,1.0,2592380272-354673.jpg,2592379964-131054.jpg,A1PX4CR15QC57J
703,2.0,left,right,0.0,1.822,0.0,44.0,44.0,44.0,1.0,2864910426-287204.jpg,2883268412-365899.jpg,A1PX4CR15QC57J
704,3.0,right,left,0.0,2.321,0.0,45.0,45.0,45.0,1.0,2238531493-28260.jpg,2575120738-55529.jpg,A1PX4CR15QC57J
705,1.0,left,left,1.0,1.798,0.0,46.0,46.0,46.0,1.0,2883268471-290842.jpg,2883268471-290843.jpg,A1PX4CR15QC57J
706,2.0,right,left,0.0,1.579,0.0,47.0,47.0,47.0,1.0,2981246400-220363.jpg,2868474407-362883.jpg,A1PX4CR15QC57J
707,3.0,left,right,0.0,0.977,0.0,48.0,48.0,48.0,1.0,2898635427-367120.jpg,2898621427-366486.jpg,A1PX4CR15QC57J
708,2.0,right,left,0.0,1.365,0.0,49.0,49.0,49.0,1.0,2864901386-286797.jpg,2592380177-354626.jpg,A1PX4CR15QC57J
709,2.0,right,right,1.0,2.663,0.0,50.0,50.0,50.0,1.0,2984615361-295510.jpg,2883268412-365898.jpg,A1PX4CR15QC57J
710,2.0,right,right,1.0,1.9,0.0,51.0,51.0,51.0,1.0,2868487415-213924.jpg,2460547467-349422.jpg,A1PX4CR15QC57J
711,2.0,right,right,1.0,1.806,0.0,52.0,52.0,52.0,1.0,2901942443-69923.jpg,2874299429-139695.jpg,A1PX4CR15QC57J
712,1.0,right,left,0.0,3.667,0.0,53.0,53.0,53.0,1.0,2238584894-113161.jpg,2238572663-35822.jpg,A1PX4CR15QC57J
713,3.0,right,right,1.0,3.917,0.0,54.0,54.0,54.0,1.0,2898627427-366763.jpg,2883273443-68193.jpg,A1PX4CR15QC57J
714,3.0,left,right,0.0,1.543,0.0,55.0,55.0,55.0,1.0,2238480677-317399.jpg,2238480278-19661.jpg,A1PX4CR15QC57J
715,3.0,left,left,1.0,1.34,0.0,56.0,56.0,56.0,1.0,2901939379-143479.jpg,2964216376-294181.jpg,A1PX4CR15QC57J
716,1.0,right,left,0.0,2.777,0.0,57.0,57.0,57.0,1.0,2238550816-254000.jpg,2238580740-186218.jpg,A1PX4CR15QC57J
717,1.0,left,right,0.0,1.663,0.0,58.0,58.0,58.0,1.0,2964216465-219242.jpg,2238544191-252422.jpg,A1PX4CR15QC57J
718,2.0,left,right,0.0,1.654,0.0,59.0,59.0,59.0,1.0,2449442529-124446.jpg,2460547536-274181.jpg,A1PX4CR15QC57J
719,1.0,left,right,0.0,3.3301,0.0,0.0,0.0,0.0,1.0,2238425482-313537.jpg,2238471391-240918.jpg,AS08ODODBG8BX
720,1.0,right,right,1.0,2.6839,0.0,1.0,1.0,1.0,1.0,2864901420-212147.jpg,2864907432-362042.jpg,AS08ODODBG8BX
721,1.0,right,right,1.0,2.1338,0.0,2.0,2.0,2.0,1.0,2446759803-49251.jpg,2449442529-124446.jpg,AS08ODODBG8BX
722,2.0,right,left,0.0,2.4238,0.0,3.0,3.0,3.0,1.0,2238573447-333826.jpg,2901947423-70311.jpg,AS08ODODBG8BX
723,2.0,right,right,1.0,1.9087,0.0,4.0,4.0,4.0,1.0,2592380177-354628.jpg,2512875899-126682.jpg,AS08ODODBG8BX
724,1.0,right,left,0.0,2.4038,0.0,5.0,5.0,5.0,1.0,2986447306-296584.jpg,2874299429-139694.jpg,AS08ODODBG8BX
725,2.0,left,left,1.0,2.8343,0.0,6.0,6.0,6.0,1.0,2868474407-362883.jpg,2981246400-220363.jpg,AS08ODODBG8BX
726,2.0,right,right,1.0,1.999,0.0,7.0,7.0,7.0,1.0,2446759306-271734.jpg,2964218374-144967.jpg,AS08ODODBG8BX
727,2.0,right,left,0.0,2.3582,0.0,8.0,8.0,8.0,1.0,2874305405-214397.jpg,2981231403-71642.jpg,AS08ODODBG8BX
728,3.0,right,right,1.0,2.3517,0.0,9.0,9.0,9.0,1.0,2898632385-217139.jpg,2901939379-143480.jpg,AS08ODODBG8BX
729,3.0,right,right,1.0,3.1591,0.0,10.0,10.0,10.0,1.0,2238578544-111698.jpg,2874302418-65979.jpg,AS08ODODBG8BX
730,3.0,left,left,1.0,2.1317,0.0,11.0,11.0,11.0,1.0,2901941401-292798.jpg,2898631468-68931.jpg,AS08ODODBG8BX
731,3.0,right,right,1.0,2.5873,0.0,12.0,12.0,12.0,1.0,2238531493-28260.jpg,2575120738-55529.jpg,AS08ODODBG8BX
732,3.0,right,left,0.0,1.7326,0.0,13.0,13.0,13.0,1.0,2981240427-370099.jpg,2964222378-71332.jpg,AS08ODODBG8BX
733,1.0,left,left,1.0,1.6858,0.0,14.0,14.0,14.0,1.0,2964213381-294060.jpg,2981244394-145974.jpg,AS08ODODBG8BX
734,1.0,left,left,1.0,2.2452,0.0,15.0,15.0,15.0,1.0,2986451363-73599.jpg,2898626385-216899.jpg,AS08ODODBG8BX
735,2.0,left,left,1.0,1.781,0.0,16.0,16.0,16.0,1.0,2460547508-51571.jpg,2981232437-369759.jpg,AS08ODODBG8BX
736,3.0,left,left,1.0,2.0308,0.0,17.0,17.0,17.0,1.0,2898635428-69104.jpg,2898625336-291572.jpg,AS08ODODBG8BX
737,2.0,right,right,1.0,2.3137,0.0,18.0,18.0,18.0,1.0,2864909447-362144.jpg,2446758985-197609.jpg,AS08ODODBG8BX
738,1.0,left,left,1.0,2.0193,0.0,19.0,19.0,19.0,1.0,2868475410-213219.jpg,2901946465-218350.jpg,AS08ODODBG8BX
739,1.0,left,left,1.0,1.5221,0.0,20.0,20.0,20.0,1.0,2452380832-348593.jpg,2238328478-11678.jpg,AS08ODODBG8BX
740,3.0,right,right,1.0,2.6628,0.0,21.0,21.0,21.0,1.0,2864903351-286874.jpg,2238572663-35822.jpg,AS08ODODBG8BX
741,1.0,right,right,1.0,2.1299,0.0,22.0,22.0,22.0,1.0,2864902304-137862.jpg,2864910426-287204.jpg,AS08ODODBG8BX
742,3.0,right,left,0.0,2.5802,0.0,23.0,23.0,23.0,1.0,2964216376-294181.jpg,2901939379-143479.jpg,AS08ODODBG8BX
743,1.0,left,right,0.0,1.8795,0.0,24.0,24.0,24.0,1.0,2458347385-199723.jpg,2238480434-93829.jpg,AS08ODODBG8BX
744,1.0,right,right,1.0,2.414,0.0,25.0,25.0,25.0,1.0,2446761374-124213.jpg,2874301407-363895.jpg,AS08ODODBG8BX
745,1.0,right,right,1.0,2.4634,0.0,26.0,26.0,26.0,1.0,2862691449-137104.jpg,2238481198-19822.jpg,AS08ODODBG8BX
746,3.0,left,left,1.0,3.015,0.0,27.0,27.0,27.0,1.0,2874303365-214262.jpg,2864911457-362260.jpg,AS08ODODBG8BX
747,2.0,right,right,1.0,2.1378,0.0,28.0,28.0,28.0,1.0,2238479053-19457.jpg,2592379964-131054.jpg,AS08ODODBG8BX
748,2.0,right,right,1.0,2.4134,0.0,29.0,29.0,29.0,1.0,2981246400-220365.jpg,2874307433-66280.jpg,AS08ODODBG8BX
749,3.0,left,left,1.0,2.0728,0.0,30.0,30.0,30.0,1.0,2592380177-354626.jpg,2238117096-228518.jpg,AS08ODODBG8BX
750,3.0,right,left,0.0,2.0304,0.0,31.0,31.0,31.0,1.0,2901947448-70314.jpg,2883268471-290842.jpg,AS08ODODBG8BX
751,1.0,left,left,1.0,2.1113,0.0,32.0,32.0,32.0,1.0,2898618444-142233.jpg,2898631359-142721.jpg,AS08ODODBG8BX
752,2.0,left,left,1.0,2.3459,0.0,33.0,33.0,33.0,1.0,2874299429-139695.jpg,2901942443-69923.jpg,AS08ODODBG8BX
753,3.0,right,right,1.0,1.7725,0.0,34.0,34.0,34.0,1.0,2994401319-148290.jpg,2452381505-199546.jpg,AS08ODODBG8BX
754,2.0,right,right,1.0,2.7792,0.0,35.0,35.0,35.0,1.0,2874301404-139813.jpg,2981241414-145842.jpg,AS08ODODBG8BX
755,1.0,left,left,1.0,1.4994,0.0,36.0,36.0,36.0,1.0,2898617468-68274.jpg,2901946439-144040.jpg,AS08ODODBG8BX
756,3.0,right,right,1.0,1.5561,0.0,37.0,37.0,37.0,1.0,2901951392-368654.jpg,2446759803-49249.jpg,AS08ODODBG8BX
757,1.0,right,left,0.0,2.6549,0.0,38.0,38.0,38.0,1.0,2238550816-254000.jpg,2238580740-186218.jpg,AS08ODODBG8BX
758,3.0,left,left,1.0,2.6923,0.0,39.0,39.0,39.0,1.0,2460547467-349421.jpg,2981235446-294901.jpg,AS08ODODBG8BX
759,3.0,right,right,1.0,2.1811,0.0,40.0,40.0,40.0,1.0,2238480980-168129.jpg,2238560245-182099.jpg,AS08ODODBG8BX
760,3.0,left,left,1.0,1.6754,0.0,41.0,41.0,41.0,1.0,2460547467-349422.jpg,2864909447-362146.jpg,AS08ODODBG8BX
761,1.0,right,right,1.0,2.8037,0.0,42.0,42.0,42.0,1.0,2512876023-52283.jpg,2898633421-291973.jpg,AS08ODODBG8BX
762,2.0,right,right,1.0,2.0277,0.0,43.0,43.0,43.0,1.0,2984615361-295509.jpg,2238428357-313623.jpg,AS08ODODBG8BX
763,2.0,left,right,0.0,1.8828,0.0,44.0,44.0,44.0,1.0,2238480677-317399.jpg,2238573546-258454.jpg,AS08ODODBG8BX
764,2.0,left,left,1.0,3.3193,0.0,45.0,45.0,45.0,1.0,2986451363-73598.jpg,2984628361-295995.jpg,AS08ODODBG8BX
765,3.0,left,right,0.0,1.8447,0.0,46.0,46.0,46.0,1.0,2964223381-294447.jpg,2898628438-68785.jpg,AS08ODODBG8BX
766,3.0,left,right,0.0,1.7012,0.0,47.0,47.0,47.0,1.0,2883273443-68193.jpg,2898627427-366763.jpg,AS08ODODBG8BX
767,1.0,left,left,1.0,2.2736,0.0,48.0,48.0,48.0,1.0,2874302418-65978.jpg,2964224310-219528.jpg,AS08ODODBG8BX
768,1.0,left,left,1.0,2.659,0.0,49.0,49.0,49.0,1.0,2883268412-365898.jpg,2984626312-370849.jpg,AS08ODODBG8BX
769,2.0,right,left,0.0,1.5218,0.0,50.0,50.0,50.0,1.0,2901934408-69289.jpg,2898634397-367080.jpg,AS08ODODBG8BX
770,1.0,right,left,0.0,2.0117,0.0,51.0,51.0,51.0,1.0,2964221435-219434.jpg,2898635427-367120.jpg,AS08ODODBG8BX
771,1.0,right,right,1.0,2.1635,0.0,52.0,52.0,52.0,1.0,2611628310-206388.jpg,2883256307-365057.jpg,AS08ODODBG8BX
772,2.0,left,left,1.0,2.3061,0.0,53.0,53.0,53.0,1.0,2238481928-19949.jpg,2864900357-361688.jpg,AS08ODODBG8BX
773,2.0,right,right,1.0,1.7375,0.0,54.0,54.0,54.0,1.0,2986408373-73286.jpg,2449442529-124445.jpg,AS08ODODBG8BX
774,3.0,left,left,1.0,2.4405,0.0,55.0,55.0,55.0,1.0,2898618390-216538.jpg,2575120609-129862.jpg,AS08ODODBG8BX
775,2.0,left,right,0.0,1.995,0.0,56.0,56.0,56.0,1.0,2592380177-354629.jpg,2579432534-130704.jpg,AS08ODODBG8BX
776,2.0,right,right,1.0,2.3168,0.0,57.0,57.0,57.0,1.0,2868469411-287540.jpg,2901952513-70703.jpg,AS08ODODBG8BX
777,3.0,left,right,0.0,2.2951,0.0,58.0,58.0,58.0,1.0,2898624426-291546.jpg,2981235446-294900.jpg,AS08ODODBG8BX
778,2.0,right,left,0.0,3.0088,0.0,59.0,59.0,59.0,1.0,2864900319-137787.jpg,2964216465-219242.jpg,AS08ODODBG8BX
779,3.0,left,left,1.0,3.6352,0.0,0.0,0.0,0.0,1.0,2898624426-291546.jpg,2981235446-294900.jpg,AK52RXEJKR81A
780,2.0,right,right,1.0,2.888200001,0.0,1.0,1.0,1.0,1.0,2874314526-289684.jpg,2238560245-182099.jpg,AK52RXEJKR81A
781,1.0,right,right,1.0,1.5071,0.0,2.0,2.0,2.0,1.0,2237857458-1324.jpg,2986451363-73598.jpg,AK52RXEJKR81A
782,3.0,left,left,1.0,2.9544,0.0,3.0,3.0,3.0,1.0,2238481928-19949.jpg,2981241419-145844.jpg,AK52RXEJKR81A
783,1.0,right,right,1.0,1.7368,0.0,4.0,4.0,4.0,1.0,2238499057-320266.jpg,2238428357-313623.jpg,AK52RXEJKR81A
784,1.0,right,right,1.0,14.6447,0.0,5.0,5.0,5.0,1.0,2964224310-219528.jpg,2874302418-65978.jpg,AK52RXEJKR81A
785,3.0,left,right,0.0,2.5731,0.0,6.0,6.0,6.0,1.0,2964223381-294447.jpg,2898628438-68785.jpg,AK52RXEJKR81A
786,1.0,left,left,1.0,2.0599,0.0,7.0,7.0,7.0,1.0,2883268471-290842.jpg,2883268471-290843.jpg,AK52RXEJKR81A
787,2.0,left,left,1.0,2.0517,0.0,8.0,8.0,8.0,1.0,2460547508-51571.jpg,2981232437-369759.jpg,AK52RXEJKR81A
788,3.0,right,left,0.0,1.8932,0.0,9.0,9.0,9.0,1.0,2964217461-294238.jpg,2898634397-367080.jpg,AK52RXEJKR81A
789,1.0,right,right,1.0,1.3652,0.0,10.0,10.0,10.0,1.0,2238480434-93829.jpg,2458347385-199723.jpg,AK52RXEJKR81A
790,3.0,right,right,1.0,1.513299999,0.0,11.0,11.0,11.0,1.0,2864911457-362260.jpg,2874303365-214262.jpg,AK52RXEJKR81A
791,3.0,right,right,1.0,2.5756,0.0,12.0,12.0,12.0,1.0,2238578544-111698.jpg,2874302418-65979.jpg,AK52RXEJKR81A
792,3.0,left,left,1.0,2.1211,0.0,13.0,13.0,13.0,1.0,2901941401-292798.jpg,2898631468-68931.jpg,AK52RXEJKR81A
793,2.0,right,right,1.0,6.783900001,0.0,14.0,14.0,14.0,1.0,2238571930-184143.jpg,2238572663-35822.jpg,AK52RXEJKR81A
794,1.0,left,right,0.0,2.6422,0.0,15.0,15.0,15.0,1.0,2964218374-144967.jpg,2964218374-144968.jpg,AK52RXEJKR81A
795,2.0,left,left,1.0,1.5863,0.0,16.0,16.0,16.0,1.0,2901939379-143480.jpg,2981229442-369621.jpg,AK52RXEJKR81A
796,3.0,right,right,1.0,1.9731,0.0,17.0,17.0,17.0,1.0,2901947323-70275.jpg,2874301407-363895.jpg,AK52RXEJKR81A
797,3.0,right,left,0.0,1.887099999,0.0,18.0,18.0,18.0,1.0,2238436252-314037.jpg,2883268412-365898.jpg,AK52RXEJKR81A
798,2.0,left,left,1.0,1.8981,0.0,19.0,19.0,19.0,1.0,2901939379-143479.jpg,2446758985-197610.jpg,AK52RXEJKR81A
799,1.0,left,right,0.0,2.7643,0.0,20.0,20.0,20.0,1.0,2452381505-199546.jpg,2901938432-367627.jpg,AK52RXEJKR81A
800,1.0,left,left,1.0,1.2877,0.0,21.0,21.0,21.0,1.0,2460547467-349421.jpg,2898631394-142727.jpg,AK52RXEJKR81A
801,1.0,right,right,1.0,1.5851,0.0,22.0,22.0,22.0,1.0,2238471391-240918.jpg,2238425482-313537.jpg,AK52RXEJKR81A
802,1.0,right,right,1.0,2.409400001,0.0,23.0,23.0,23.0,1.0,2446760601-272099.jpg,2446759803-49249.jpg,AK52RXEJKR81A
803,2.0,right,left,0.0,5.7336,0.0,24.0,24.0,24.0,1.0,2981246400-220363.jpg,2868474407-362883.jpg,AK52RXEJKR81A
804,1.0,right,right,1.0,3.7748,0.0,25.0,25.0,25.0,1.0,2238576792-334659.jpg,2592380177-354626.jpg,AK52RXEJKR81A
805,2.0,left,left,1.0,1.443900001,0.0,26.0,26.0,26.0,1.0,2446758985-197609.jpg,2864909447-362144.jpg,AK52RXEJKR81A
806,3.0,right,right,1.0,3.451700001,0.0,27.0,27.0,27.0,1.0,2238480803-19737.jpg,2238481198-19822.jpg,AK52RXEJKR81A
807,3.0,left,right,0.0,2.882900001,0.0,28.0,28.0,28.0,1.0,2964216465-219242.jpg,2898619327-366362.jpg,AK52RXEJKR81A
808,3.0,right,right,1.0,2.641099999,0.0,29.0,29.0,29.0,1.0,2864904453-63933.jpg,2883256307-365057.jpg,AK52RXEJKR81A
809,2.0,right,right,1.0,1.5128,0.0,30.0,30.0,30.0,1.0,2575120738-55528.jpg,2575120738-55529.jpg,AK52RXEJKR81A
810,1.0,right,left,0.0,3.0195,0.0,31.0,31.0,31.0,1.0,2238550816-254000.jpg,2238580740-186218.jpg,AK52RXEJKR81A
811,1.0,right,right,1.0,1.285,0.0,32.0,32.0,32.0,1.0,2237856148-989.jpg,2898618390-216538.jpg,AK52RXEJKR81A
812,2.0,right,right,1.0,2.7252,0.0,33.0,33.0,33.0,1.0,2238573447-333826.jpg,2901947423-70311.jpg,AK52RXEJKR81A
813,1.0,left,left,1.0,2.7023,0.0,34.0,34.0,34.0,1.0,2449442529-124446.jpg,2446759803-49251.jpg,AK52RXEJKR81A
814,1.0,left,right,0.0,1.5206,0.0,35.0,35.0,35.0,1.0,2512875899-126682.jpg,2460547536-274179.jpg,AK52RXEJKR81A
815,3.0,left,left,1.0,1.8119,0.0,36.0,36.0,36.0,1.0,2964222378-71332.jpg,2981240427-370099.jpg,AK52RXEJKR81A
816,2.0,left,left,1.0,1.6684,0.0,37.0,37.0,37.0,1.0,2898635428-69104.jpg,2901943411-292945.jpg,AK52RXEJKR81A
817,3.0,right,right,1.0,1.582200001,0.0,38.0,38.0,38.0,1.0,2427873848-47312.jpg,2981241414-145842.jpg,AK52RXEJKR81A
818,2.0,left,left,1.0,1.8086,0.0,39.0,39.0,39.0,1.0,2238480677-317399.jpg,2238573546-258454.jpg,AK52RXEJKR81A
819,2.0,left,right,0.0,1.9465,0.0,40.0,40.0,40.0,1.0,2883273443-68193.jpg,2460547508-51572.jpg,AK52RXEJKR81A
820,2.0,left,left,1.0,2.348799999,0.0,41.0,41.0,41.0,1.0,2864910426-287204.jpg,2883268412-365899.jpg,AK52RXEJKR81A
821,2.0,left,left,1.0,1.812200001,0.0,42.0,42.0,42.0,1.0,2592380177-354629.jpg,2579432534-130704.jpg,AK52RXEJKR81A
822,2.0,right,right,1.0,1.5068,0.0,43.0,43.0,43.0,1.0,2238481813-19930.jpg,2452380832-348593.jpg,AK52RXEJKR81A
823,1.0,left,left,1.0,1.2856,0.0,44.0,44.0,44.0,1.0,2592379964-131054.jpg,2575963989-130576.jpg,AK52RXEJKR81A
824,2.0,left,right,0.0,2.6412,0.0,45.0,45.0,45.0,1.0,2986451363-73599.jpg,2860302315-210704.jpg,AK52RXEJKR81A
825,3.0,right,left,0.0,1.3693,0.0,46.0,46.0,46.0,1.0,2898618444-142232.jpg,2898618444-142233.jpg,AK52RXEJKR81A
826,2.0,right,right,1.0,2.1921,0.0,47.0,47.0,47.0,1.0,2981244403-72215.jpg,2874299429-139694.jpg,AK52RXEJKR81A
827,1.0,left,left,1.0,1.2049,0.0,48.0,48.0,48.0,1.0,2449442529-124445.jpg,2452380171-273112.jpg,AK52RXEJKR81A
828,3.0,right,left,0.0,4.1021,0.0,49.0,49.0,49.0,1.0,2238481198-19821.jpg,2901952513-70703.jpg,AK52RXEJKR81A
829,2.0,left,left,1.0,1.743599999,0.0,50.0,50.0,50.0,1.0,2981231403-71642.jpg,2874305405-214397.jpg,AK52RXEJKR81A
830,1.0,left,left,1.0,1.512799999,0.0,51.0,51.0,51.0,1.0,2874299429-139695.jpg,2883266388-67750.jpg,AK52RXEJKR81A
831,2.0,right,right,1.0,2.3365,0.0,52.0,52.0,52.0,1.0,2901943387-368037.jpg,2898617468-68274.jpg,AK52RXEJKR81A
832,3.0,right,right,1.0,1.2873,0.0,53.0,53.0,53.0,1.0,2864909447-362146.jpg,2460547467-349422.jpg,AK52RXEJKR81A
833,1.0,left,right,0.0,1.74,0.0,54.0,54.0,54.0,1.0,2874307433-66280.jpg,2984615358-72439.jpg,AK52RXEJKR81A
834,3.0,left,right,0.0,2.9019,0.0,55.0,55.0,55.0,1.0,2868475410-213219.jpg,2868474407-362885.jpg,AK52RXEJKR81A
835,3.0,left,left,1.0,1.6406,0.0,56.0,56.0,56.0,1.0,2898633421-291973.jpg,2238550049-105691.jpg,AK52RXEJKR81A
836,3.0,left,right,0.0,1.9284,0.0,57.0,57.0,57.0,1.0,2864907432-362042.jpg,2989726338-74002.jpg,AK52RXEJKR81A
837,2.0,right,right,1.0,2.040099999,0.0,58.0,58.0,58.0,1.0,2868479517-363220.jpg,2898635427-367120.jpg,AK52RXEJKR81A
838,1.0,right,right,1.0,1.2816,0.0,59.0,59.0,59.0,1.0,2981244394-145974.jpg,2964213381-294060.jpg,AK52RXEJKR81A
839,2.0,right,right,1.0,1.7432,0.0,0.0,0.0,0.0,1.0,2446758985-197610.jpg,2901939379-143479.jpg,ALYR5CI2SM2JC
840,3.0,left,left,1.0,1.7452,0.0,1.0,1.0,1.0,1.0,2901941401-292798.jpg,2898631468-68931.jpg,ALYR5CI2SM2JC
841,3.0,right,right,1.0,2.6389,0.0,2.0,2.0,2.0,1.0,2238481198-19821.jpg,2901952513-70703.jpg,ALYR5CI2SM2JC
842,3.0,left,right,0.0,1.5243,0.0,3.0,3.0,3.0,1.0,2592380177-354629.jpg,2512875587-350044.jpg,ALYR5CI2SM2JC
843,3.0,left,right,0.0,1.4725,0.0,4.0,4.0,4.0,1.0,2449442529-124446.jpg,2460547536-274178.jpg,ALYR5CI2SM2JC
844,2.0,left,right,0.0,1.5835,0.0,5.0,5.0,5.0,1.0,2883268471-290842.jpg,2883255450-215310.jpg,ALYR5CI2SM2JC
845,3.0,right,left,0.0,1.3052,0.0,6.0,6.0,6.0,1.0,2898633480-217190.jpg,2238425482-313537.jpg,ALYR5CI2SM2JC
846,1.0,left,right,0.0,1.9532,0.0,7.0,7.0,7.0,1.0,2512875899-126682.jpg,2460547536-274179.jpg,ALYR5CI2SM2JC
847,1.0,left,right,0.0,1.0768,0.0,8.0,8.0,8.0,1.0,2964222378-71332.jpg,2981240424-145794.jpg,ALYR5CI2SM2JC
848,3.0,left,left,1.0,1.5369,0.0,9.0,9.0,9.0,1.0,2460547508-51571.jpg,2901941438-69835.jpg,ALYR5CI2SM2JC
849,1.0,left,left,1.0,1.9957,0.0,10.0,10.0,10.0,1.0,2898633421-291973.jpg,2512876023-52283.jpg,ALYR5CI2SM2JC
850,1.0,right,right,1.0,1.322,0.0,11.0,11.0,11.0,1.0,2883266388-67750.jpg,2874299429-139695.jpg,ALYR5CI2SM2JC
851,1.0,left,left,1.0,1.0828,0.0,12.0,12.0,12.0,1.0,2964218374-144967.jpg,2964218374-144968.jpg,ALYR5CI2SM2JC
852,1.0,left,right,0.0,1.3054,0.0,13.0,13.0,13.0,1.0,2238480677-317399.jpg,2238481630-168218.jpg,ALYR5CI2SM2JC
853,2.0,right,right,1.0,1.4587,0.0,14.0,14.0,14.0,1.0,2864901386-286797.jpg,2592380177-354626.jpg,ALYR5CI2SM2JC
854,3.0,right,right,1.0,2.5085,0.0,15.0,15.0,15.0,1.0,2901951392-368654.jpg,2446759803-49249.jpg,ALYR5CI2SM2JC
855,1.0,right,right,1.0,1.4073,0.0,16.0,16.0,16.0,1.0,2237856148-989.jpg,2898618390-216538.jpg,ALYR5CI2SM2JC
856,3.0,right,right,1.0,1.2774,0.0,17.0,17.0,17.0,1.0,2864911457-362260.jpg,2874303365-214262.jpg,ALYR5CI2SM2JC
857,3.0,left,left,1.0,1.6914,0.0,18.0,18.0,18.0,1.0,2446758985-197609.jpg,2898624426-291544.jpg,ALYR5CI2SM2JC
858,3.0,right,right,1.0,1.5789,0.0,19.0,19.0,19.0,1.0,2238531493-28260.jpg,2575120738-55529.jpg,ALYR5CI2SM2JC
859,2.0,right,right,1.0,1.3105,0.0,20.0,20.0,20.0,1.0,2238480803-19739.jpg,2868475410-213219.jpg,ALYR5CI2SM2JC
860,3.0,right,right,1.0,1.4203,0.0,21.0,21.0,21.0,1.0,2901947323-70275.jpg,2874301407-363895.jpg,ALYR5CI2SM2JC
861,3.0,right,left,0.0,1.5283,0.0,22.0,22.0,22.0,1.0,2964220333-71258.jpg,2238580740-186218.jpg,ALYR5CI2SM2JC
862,1.0,right,right,1.0,2.6495,0.0,23.0,23.0,23.0,1.0,2898631394-142727.jpg,2460547467-349421.jpg,ALYR5CI2SM2JC
863,1.0,right,right,1.0,1.5756,0.0,24.0,24.0,24.0,1.0,2237944827-301472.jpg,2898634397-367080.jpg,ALYR5CI2SM2JC
864,1.0,right,right,1.0,1.4436,0.0,25.0,25.0,25.0,1.0,2986447306-296584.jpg,2874299429-139694.jpg,ALYR5CI2SM2JC
865,1.0,right,right,1.0,0.9107,0.0,26.0,26.0,26.0,1.0,2238584894-113161.jpg,2238572663-35822.jpg,ALYR5CI2SM2JC
866,1.0,left,left,1.0,1.1794,0.0,27.0,27.0,27.0,1.0,2238428357-313623.jpg,2238499057-320266.jpg,ALYR5CI2SM2JC
867,2.0,right,left,0.0,1.5808,0.0,28.0,28.0,28.0,1.0,2238481813-19930.jpg,2452380832-348593.jpg,ALYR5CI2SM2JC
868,2.0,left,right,0.0,1.2429,0.0,29.0,29.0,29.0,1.0,2986451363-73599.jpg,2860302315-210704.jpg,ALYR5CI2SM2JC
869,2.0,left,right,0.0,2.3594,0.0,30.0,30.0,30.0,1.0,2964216465-219242.jpg,2864900319-137787.jpg,ALYR5CI2SM2JC
870,3.0,left,left,1.0,1.6987,0.0,31.0,31.0,31.0,1.0,2964213381-294060.jpg,2964213381-294061.jpg,ALYR5CI2SM2JC
871,3.0,right,right,1.0,1.2864,0.0,32.0,32.0,32.0,1.0,2994401319-148290.jpg,2452381505-199546.jpg,ALYR5CI2SM2JC
872,2.0,right,right,1.0,1.5245,0.0,33.0,33.0,33.0,1.0,2883268412-365899.jpg,2864910426-287204.jpg,ALYR5CI2SM2JC
873,1.0,right,right,1.0,2.1391,0.0,34.0,34.0,34.0,1.0,2237857458-1324.jpg,2986451363-73598.jpg,ALYR5CI2SM2JC
874,2.0,left,right,0.0,1.9771,0.0,35.0,35.0,35.0,1.0,2883273443-68193.jpg,2460547508-51572.jpg,ALYR5CI2SM2JC
875,1.0,left,left,1.0,1.105,0.0,36.0,36.0,36.0,1.0,2864907432-362042.jpg,2864901420-212147.jpg,ALYR5CI2SM2JC
876,1.0,left,left,1.0,1.3792,0.0,37.0,37.0,37.0,1.0,2460547467-349422.jpg,2898618440-216545.jpg,ALYR5CI2SM2JC
877,2.0,left,left,1.0,0.9555,0.0,38.0,38.0,38.0,1.0,2898618444-142233.jpg,2238555262-330312.jpg,ALYR5CI2SM2JC
878,2.0,right,right,1.0,1.686,0.0,39.0,39.0,39.0,1.0,2981236443-71859.jpg,2898624426-291546.jpg,ALYR5CI2SM2JC
879,2.0,left,right,0.0,1.2858,0.0,40.0,40.0,40.0,1.0,2238560245-182099.jpg,2874314526-289684.jpg,ALYR5CI2SM2JC
880,3.0,right,right,1.0,1.3945,0.0,41.0,41.0,41.0,1.0,2864904453-63933.jpg,2883256307-365057.jpg,ALYR5CI2SM2JC
881,1.0,left,left,1.0,0.8415,0.0,42.0,42.0,42.0,1.0,2981241414-145842.jpg,2238516618-25604.jpg,ALYR5CI2SM2JC
882,3.0,left,left,1.0,0.832,0.0,43.0,43.0,43.0,1.0,2898635427-367120.jpg,2898621427-366486.jpg,ALYR5CI2SM2JC
883,2.0,left,right,0.0,1.0603,0.0,44.0,44.0,44.0,1.0,2901947423-70311.jpg,2238573447-333826.jpg,ALYR5CI2SM2JC
884,1.0,right,right,1.0,1.1084,0.0,45.0,45.0,45.0,1.0,2452380171-273112.jpg,2449442529-124445.jpg,ALYR5CI2SM2JC
885,1.0,right,right,1.0,1.8554,0.0,46.0,46.0,46.0,1.0,2579432519-130698.jpg,2981231403-71642.jpg,ALYR5CI2SM2JC
886,3.0,left,left,1.0,1.8264,0.0,47.0,47.0,47.0,1.0,2883268412-365898.jpg,2238436252-314037.jpg,ALYR5CI2SM2JC
887,2.0,left,left,1.0,1.2003,0.0,48.0,48.0,48.0,1.0,2868474407-362883.jpg,2981246400-220363.jpg,ALYR5CI2SM2JC
888,3.0,right,right,1.0,2.1202,0.0,49.0,49.0,49.0,1.0,2981241419-145844.jpg,2238481928-19949.jpg,ALYR5CI2SM2JC
889,2.0,left,left,1.0,1.6709,0.0,50.0,50.0,50.0,1.0,2898617468-68274.jpg,2901943387-368037.jpg,ALYR5CI2SM2JC
890,1.0,right,left,0.0,1.2536,0.0,51.0,51.0,51.0,1.0,2446759803-49250.jpg,2898635428-69104.jpg,ALYR5CI2SM2JC
891,2.0,left,left,1.0,1.3901,0.0,52.0,52.0,52.0,1.0,2874307433-66280.jpg,2981246400-220365.jpg,ALYR5CI2SM2JC
892,2.0,left,right,0.0,1.9125,0.0,53.0,53.0,53.0,1.0,2874302418-65978.jpg,2238481198-19823.jpg,ALYR5CI2SM2JC
893,3.0,right,right,1.0,1.72,0.0,54.0,54.0,54.0,1.0,2592380272-354673.jpg,2592379964-131054.jpg,ALYR5CI2SM2JC
894,3.0,left,left,1.0,1.1358,0.0,55.0,55.0,55.0,1.0,2901939379-143480.jpg,2898632385-217139.jpg,ALYR5CI2SM2JC
895,2.0,right,right,1.0,1.9946,0.0,56.0,56.0,56.0,1.0,2901941438-69836.jpg,2964223381-294447.jpg,ALYR5CI2SM2JC
896,1.0,right,right,1.0,1.9104,0.0,57.0,57.0,57.0,1.0,2862691449-137104.jpg,2238481198-19822.jpg,ALYR5CI2SM2JC
897,2.0,left,left,1.0,1.084,0.0,58.0,58.0,58.0,1.0,2874302418-65979.jpg,2238480648-19714.jpg,ALYR5CI2SM2JC
898,2.0,left,right,0.0,1.1419,0.0,59.0,59.0,59.0,1.0,2458347385-199723.jpg,2427874554-121863.jpg,ALYR5CI2SM2JC
899,3.0,left,right,0.0,5.4022,0.0,0.0,0.0,0.0,1.0,2874307433-66280.jpg,2981231422-369714.jpg,AZD5EFRI6AB7X
900,2.0,left,right,0.0,1.6677,0.0,1.0,1.0,1.0,1.0,2986451363-73598.jpg,2984628361-295995.jpg,AZD5EFRI6AB7X
901,2.0,left,left,1.0,1.3474,0.0,2.0,2.0,2.0,1.0,2883256307-365057.jpg,2964210336-293945.jpg,AZD5EFRI6AB7X
902,2.0,left,right,0.0,1.3111,0.0,3.0,3.0,3.0,1.0,2864907432-362042.jpg,2901947423-70310.jpg,AZD5EFRI6AB7X
903,3.0,right,right,1.0,1.2744,0.0,4.0,4.0,4.0,1.0,2898619327-366362.jpg,2964216465-219242.jpg,AZD5EFRI6AB7X
904,3.0,left,left,1.0,1.9571,0.0,5.0,5.0,5.0,1.0,2460547467-349422.jpg,2864909447-362146.jpg,AZD5EFRI6AB7X
905,2.0,right,right,1.0,1.2829,0.0,6.0,6.0,6.0,1.0,2901941438-69836.jpg,2964223381-294447.jpg,AZD5EFRI6AB7X
