button.numClicks,button.timesOn,button.timesOff,workID,Age,Gender,Hours slept (last night),date,expName,psychopyVersion,OS,frameRate,space_key_responce.keys,space_key_responce.rt,demo_encoding_response.keys,demo_encoding_response.corr,demo_encoding_loop.thisRepN,demo_encoding_loop.thisTrialN,demo_encoding_loop.thisN,demo_encoding_loop.thisIndex,demo_encoding_loop.ran,DemoImage,DemoCorrect,demo_test_response.keys,demo_test_response.corr,demo_test_response.rt,demo_test_loop.thisRepN,demo_test_loop.thisTrialN,demo_test_loop.thisN,demo_test_loop.thisIndex,demo_test_loop.ran,DemoImage1,DemoImage2,DemoCorrectTest,test_encoding_response.keys,test_encoding_response.corr,trials.thisRepN,trials.thisTrialN,trials.thisN,trials.thisIndex,trials.ran,target_image,pair,layer,correct,key_resp_end.keys,key_resp_end.rt,test_test_response.keys,test_test_response.corr,test_test_response.rt,trials_2.thisRepN,trials_2.thisTrialN,trials_2.thisN,trials_2.thisIndex,trials_2.ran,image1,image2,key_resp_end_2.keys,key_resp_end_2.rt
1,[2.5683999999761795],[2.5685000000000286],ATOUNVWV5W8W2,52,Female,8,2022-09-25_06h19.29.701,memory_pilot_most_recent,2022.2.4,Win32,12.71520484,,,,,,,,,,,,,,,,,,,,,,,,,,,,,,,,,,,,,,,,,,,,,,,
,,,ATOUNVWV5W8W2,52,Female,8,2022-09-25_06h19.29.701,memory_pilot_most_recent,2022.2.4,Win32,12.71520484,,,,,,,,,,,,,,,,,,,,,,,,,,,,,,,,,,,,,,,,,,,,,,,
,,,ATOUNVWV5W8W2,52,Female,8,2022-09-25_06h19.29.701,memory_pilot_most_recent,2022.2.4,Win32,12.71520484,space,1.3624,,,,,,,,,,,,,,,,,,,,,,,,,,,,,,,,,,,,,,,,,,,,,
,,,ATOUNVWV5W8W2,52,Female,8,2022-09-25_06h19.29.701,memory_pilot_most_recent,2022.2.4,Win32,12.71520484,,,,,,,,,,,,,,,,,,,,,,,,,,,,,,,,,,,,,,,,,,,,,,,
,,,ATOUNVWV5W8W2,52,Female,8,2022-09-25_06h19.29.701,memory_pilot_most_recent,2022.2.4,Win32,12.71520484,,,,1,0,0,0,0,1,flower1.jpg,,,,,,,,,,,,,,,,,,,,,,,,,,,,,,,,,,,,,
,,,ATOUNVWV5W8W2,52,Female,8,2022-09-25_06h19.29.701,memory_pilot_most_recent,2022.2.4,Win32,12.71520484,,,,1,0,1,1,1,1,flower2.jpg,,,,,,,,,,,,,,,,,,,,,,,,,,,,,,,,,,,,,
,,,ATOUNVWV5W8W2,52,Female,8,2022-09-25_06h19.29.701,memory_pilot_most_recent,2022.2.4,Win32,12.71520484,,,,0,0,2,2,2,1,left.jpg,left,,,,,,,,,,,,,,,,,,,,,,,,,,,,,,,,,,,,
,,,ATOUNVWV5W8W2,52,Female,8,2022-09-25_06h19.29.701,memory_pilot_most_recent,2022.2.4,Win32,12.71520484,,,,1,0,3,3,3,1,flower3.jpg,,,,,,,,,,,,,,,,,,,,,,,,,,,,,,,,,,,,,
,,,ATOUNVWV5W8W2,52,Female,8,2022-09-25_06h19.29.701,memory_pilot_most_recent,2022.2.4,Win32,12.71520484,,,,1,0,4,4,4,1,flower4.jpg,,,,,,,,,,,,,,,,,,,,,,,,,,,,,,,,,,,,,
,,,ATOUNVWV5W8W2,52,Female,8,2022-09-25_06h19.29.701,memory_pilot_most_recent,2022.2.4,Win32,12.71520484,,,,1,0,5,5,5,1,flower5.jpg,,,,,,,,,,,,,,,,,,,,,,,,,,,,,,,,,,,,,
,,,ATOUNVWV5W8W2,52,Female,8,2022-09-25_06h19.29.701,memory_pilot_most_recent,2022.2.4,Win32,12.71520484,,,,1,0,6,6,6,1,flower6.jpg,,,,,,,,,,,,,,,,,,,,,,,,,,,,,,,,,,,,,
,,,ATOUNVWV5W8W2,52,Female,8,2022-09-25_06h19.29.701,memory_pilot_most_recent,2022.2.4,Win32,12.71520484,,,,,,,,,,,,,,,,,,,,,,,,,,,,,,,,,,,,,,,,,,,,,,,
,,,ATOUNVWV5W8W2,52,Female,8,2022-09-25_06h19.29.701,memory_pilot_most_recent,2022.2.4,Win32,12.71520484,,,,,,,,,,,,left,1,3.4683,0,0,0,0,1,flower1.jpg,flower1_pair.jpg,left,,,,,,,,,,,,,,,,,,,,,,,,,
,,,ATOUNVWV5W8W2,52,Female,8,2022-09-25_06h19.29.701,memory_pilot_most_recent,2022.2.4,Win32,12.71520484,,,,,,,,,,,,right,1,1.7633,0,1,1,1,1,flower2_pair.jpg,flower2.jpg,right,,,,,,,,,,,,,,,,,,,,,,,,,
,,,ATOUNVWV5W8W2,52,Female,8,2022-09-25_06h19.29.701,memory_pilot_most_recent,2022.2.4,Win32,12.71520484,,,,,,,,,,,,left,1,1.3404,0,2,2,2,1,flower3.jpg,flower3_pair.jpg,left,,,,,,,,,,,,,,,,,,,,,,,,,
,,,ATOUNVWV5W8W2,52,Female,8,2022-09-25_06h19.29.701,memory_pilot_most_recent,2022.2.4,Win32,12.71520484,,,,,,,,,,,,right,0,1.2593,0,3,3,3,1,flower4.jpg,flower4_pair.jpg,left,,,,,,,,,,,,,,,,,,,,,,,,,
,,,ATOUNVWV5W8W2,52,Female,8,2022-09-25_06h19.29.701,memory_pilot_most_recent,2022.2.4,Win32,12.71520484,,,,,,,,,,,,left,0,1.9997,0,4,4,4,1,flower5_pair.jpg,flower5.jpg,right,,,,,,,,,,,,,,,,,,,,,,,,,
,,,ATOUNVWV5W8W2,52,Female,8,2022-09-25_06h19.29.701,memory_pilot_most_recent,2022.2.4,Win32,12.71520484,,,,,,,,,,,,left,1,1.4492,0,5,5,5,1,flower6.jpg,flower6_pair.jpg,left,,,,,,,,,,,,,,,,,,,,,,,,,
,,,ATOUNVWV5W8W2,52,Female,8,2022-09-25_06h19.29.701,memory_pilot_most_recent,2022.2.4,Win32,12.71520484,,,,,,,,,,,,,,,,,,,,,,,,,,,,,,,,,,,,,,,,,,,,,,,
,,,ATOUNVWV5W8W2,52,Female,8,2022-09-25_06h19.29.701,memory_pilot_most_recent,2022.2.4,Win32,12.71520484,space,1.1524,,,,,,,,,,,,,,,,,,,,,,,,,,,,,,,,,,,,,,,,,,,,,
,,,ATOUNVWV5W8W2,52,Female,8,2022-09-25_06h19.29.701,memory_pilot_most_recent,2022.2.4,Win32,12.71520484,,,,,,,,,,,,,,,,,,,,,,,,1,0,0,0,0,1,2874299429-139695.jpg,2901942443-69923.jpg,2,,,,,,,,,,,,,,,
,,,ATOUNVWV5W8W2,52,Female,8,2022-09-25_06h19.29.701,memory_pilot_most_recent,2022.2.4,Win32,12.71520484,,,,,,,,,,,,,,,,,,,,,,,,1,0,1,1,1,1,2898618390-216538.jpg,2575120609-129862.jpg,3,,,,,,,,,,,,,,,
,,,ATOUNVWV5W8W2,52,Female,8,2022-09-25_06h19.29.701,memory_pilot_most_recent,2022.2.4,Win32,12.71520484,,,,,,,,,,,,,,,,,,,,,,,,1,0,2,2,2,1,2883256307-365057.jpg,2964210336-293945.jpg,2,,,,,,,,,,,,,,,
,,,ATOUNVWV5W8W2,52,Female,8,2022-09-25_06h19.29.701,memory_pilot_most_recent,2022.2.4,Win32,12.71520484,,,,,,,,,,,,,,,,,,,,,,,,1,0,3,3,3,1,2449442529-124446.jpg,2446759803-49251.jpg,1,,,,,,,,,,,,,,,
,,,ATOUNVWV5W8W2,52,Female,8,2022-09-25_06h19.29.701,memory_pilot_most_recent,2022.2.4,Win32,12.71520484,,,,,,,,,,,,,,,,,,,,,,,,1,0,4,4,4,1,2238481928-19949.jpg,2981241419-145844.jpg,3,,,,,,,,,,,,,,,
,,,ATOUNVWV5W8W2,52,Female,8,2022-09-25_06h19.29.701,memory_pilot_most_recent,2022.2.4,Win32,12.71520484,,,,,,,,,,,,,,,,,,,,,,,,1,0,5,5,5,1,2901939379-143479.jpg,2964216376-294181.jpg,3,,,,,,,,,,,,,,,
,,,ATOUNVWV5W8W2,52,Female,8,2022-09-25_06h19.29.701,memory_pilot_most_recent,2022.2.4,Win32,12.71520484,,,,,,,,,,,,,,,,,,,,,,,,1,0,6,6,6,1,2238425482-313537.jpg,2238436322-314047.jpg,2,,,,,,,,,,,,,,,
,,,ATOUNVWV5W8W2,52,Female,8,2022-09-25_06h19.29.701,memory_pilot_most_recent,2022.2.4,Win32,12.71520484,,,,,,,,,,,,,,,,,,,,,,,,1,0,7,7,7,1,2238572663-35822.jpg,2238571930-184143.jpg,2,,,,,,,,,,,,,,,
,,,ATOUNVWV5W8W2,52,Female,8,2022-09-25_06h19.29.701,memory_pilot_most_recent,2022.2.4,Win32,12.71520484,,,,,,,,,,,,,,,,,,,,,,,,1,0,8,8,8,1,2238481198-19822.jpg,2862691449-137104.jpg,1,,,,,,,,,,,,,,,
,,,ATOUNVWV5W8W2,52,Female,8,2022-09-25_06h19.29.701,memory_pilot_most_recent,2022.2.4,Win32,12.71520484,,,,,,,,,,,,,,,,,,,,,,,,0,0,9,9,9,1,right.jpg,,,right,,,,,,,,,,,,,,
,,,ATOUNVWV5W8W2,52,Female,8,2022-09-25_06h19.29.701,memory_pilot_most_recent,2022.2.4,Win32,12.71520484,,,,,,,,,,,,,,,,,,,,,,,,1,0,10,10,10,1,2898634397-367080.jpg,2901934408-69289.jpg,2,,,,,,,,,,,,,,,
,,,ATOUNVWV5W8W2,52,Female,8,2022-09-25_06h19.29.701,memory_pilot_most_recent,2022.2.4,Win32,12.71520484,,,,,,,,,,,,,,,,,,,,,,,,1,0,11,11,11,1,2964223381-294447.jpg,2901941438-69836.jpg,2,,,,,,,,,,,,,,,
,,,ATOUNVWV5W8W2,52,Female,8,2022-09-25_06h19.29.701,memory_pilot_most_recent,2022.2.4,Win32,12.71520484,,,,,,,,,,,,,,,,,,,,,,,,1,0,12,12,12,1,2898635427-367120.jpg,2898621427-366486.jpg,3,,,,,,,,,,,,,,,
,,,ATOUNVWV5W8W2,52,Female,8,2022-09-25_06h19.29.701,memory_pilot_most_recent,2022.2.4,Win32,12.71520484,,,,,,,,,,,,,,,,,,,,,,,,1,0,13,13,13,1,2458347385-199723.jpg,2458347252-348911.jpg,3,,,,,,,,,,,,,,,
,,,ATOUNVWV5W8W2,52,Female,8,2022-09-25_06h19.29.701,memory_pilot_most_recent,2022.2.4,Win32,12.71520484,,,,,,,,,,,,,,,,,,,,,,,,1,0,14,14,14,1,2446758985-197609.jpg,2981240424-145795.jpg,1,,,,,,,,,,,,,,,
,,,ATOUNVWV5W8W2,52,Female,8,2022-09-25_06h19.29.701,memory_pilot_most_recent,2022.2.4,Win32,12.71520484,,,,,,,,,,,,,,,,,,,,,,,,1,0,15,15,15,1,2238580740-186218.jpg,2238521193-26285.jpg,2,,,,,,,,,,,,,,,
,,,ATOUNVWV5W8W2,52,Female,8,2022-09-25_06h19.29.701,memory_pilot_most_recent,2022.2.4,Win32,12.71520484,,,,,,,,,,,,,,,,,,,,,,,,0,0,16,16,16,1,left.jpg,,,left,,,,,,,,,,,,,,
,,,ATOUNVWV5W8W2,52,Female,8,2022-09-25_06h19.29.701,memory_pilot_most_recent,2022.2.4,Win32,12.71520484,,,,,,,,,,,,,,,,,,,,,,,,1,0,17,17,17,1,2238428357-313623.jpg,2238499057-320266.jpg,1,,,,,,,,,,,,,,,
,,,ATOUNVWV5W8W2,52,Female,8,2022-09-25_06h19.29.701,memory_pilot_most_recent,2022.2.4,Win32,12.71520484,,,,,,,,,,,,,,,,,,,,,,,,1,0,18,18,18,1,2592380177-354626.jpg,2238117096-228518.jpg,3,,,,,,,,,,,,,,,
,,,ATOUNVWV5W8W2,52,Female,8,2022-09-25_06h19.29.701,memory_pilot_most_recent,2022.2.4,Win32,12.71520484,,,,,,,,,,,,,,,,,,,,,,,,1,0,19,19,19,1,2446759803-49249.jpg,2446760601-272099.jpg,1,,,,,,,,,,,,,,,
,,,ATOUNVWV5W8W2,52,Female,8,2022-09-25_06h19.29.701,memory_pilot_most_recent,2022.2.4,Win32,12.71520484,,,,,,,,,,,,,,,,,,,,,,,,1,0,20,20,20,1,2449442529-124445.jpg,2898632385-217137.jpg,3,,,,,,,,,,,,,,,
,,,ATOUNVWV5W8W2,52,Female,8,2022-09-25_06h19.29.701,memory_pilot_most_recent,2022.2.4,Win32,12.71520484,,,,,,,,,,,,,,,,,,,,,,,,1,0,21,21,21,1,2868474407-362883.jpg,2460547732-349518.jpg,1,,,,,,,,,,,,,,,
,,,ATOUNVWV5W8W2,52,Female,8,2022-09-25_06h19.29.701,memory_pilot_most_recent,2022.2.4,Win32,12.71520484,,,,,,,,,,,,,,,,,,,,,,,,1,0,22,22,22,1,2964216465-219242.jpg,2238544191-252422.jpg,1,,,,,,,,,,,,,,,
,,,ATOUNVWV5W8W2,52,Female,8,2022-09-25_06h19.29.701,memory_pilot_most_recent,2022.2.4,Win32,12.71520484,,,,,,,,,,,,,,,,,,,,,,,,1,0,23,23,23,1,2964222378-71332.jpg,2981240424-145794.jpg,1,,,,,,,,,,,,,,,
,,,ATOUNVWV5W8W2,52,Female,8,2022-09-25_06h19.29.701,memory_pilot_most_recent,2022.2.4,Win32,12.71520484,,,,,,,,,,,,,,,,,,,,,,,,1,0,24,24,24,1,2512875899-126682.jpg,2986447332-371497.jpg,3,,,,,,,,,,,,,,,
,,,ATOUNVWV5W8W2,52,Female,8,2022-09-25_06h19.29.701,memory_pilot_most_recent,2022.2.4,Win32,12.71520484,,,,,,,,,,,,,,,,,,,,,,,,1,0,25,25,25,1,2883273443-68193.jpg,2883254439-140940.jpg,1,,,,,,,,,,,,,,,
,,,ATOUNVWV5W8W2,52,Female,8,2022-09-25_06h19.29.701,memory_pilot_most_recent,2022.2.4,Win32,12.71520484,,,,,,,,,,,,,,,,,,,,,,,,0,0,26,26,26,1,left.jpg,,,left,,,,,,,,,,,,,,
,,,ATOUNVWV5W8W2,52,Female,8,2022-09-25_06h19.29.701,memory_pilot_most_recent,2022.2.4,Win32,12.71520484,,,,,,,,,,,,,,,,,,,,,,,,1,0,27,27,27,1,2868475410-213219.jpg,2238480803-19739.jpg,2,,,,,,,,,,,,,,,
,,,ATOUNVWV5W8W2,52,Female,8,2022-09-25_06h19.29.701,memory_pilot_most_recent,2022.2.4,Win32,12.71520484,,,,,,,,,,,,,,,,,,,,,,,,1,0,28,28,28,1,2901952513-70703.jpg,2864907361-287062.jpg,1,,,,,,,,,,,,,,,
,,,ATOUNVWV5W8W2,52,Female,8,2022-09-25_06h19.29.701,memory_pilot_most_recent,2022.2.4,Win32,12.71520484,,,,,,,,,,,,,,,,,,,,,,,,1,0,29,29,29,1,2964213381-294060.jpg,2981244394-145974.jpg,1,,,,,,,,,,,,,,,
,,,ATOUNVWV5W8W2,52,Female,8,2022-09-25_06h19.29.701,memory_pilot_most_recent,2022.2.4,Win32,12.71520484,,,,,,,,,,,,,,,,,,,,,,,,1,0,30,30,30,1,2883268412-365898.jpg,2984615361-295510.jpg,2,,,,,,,,,,,,,,,
,,,ATOUNVWV5W8W2,52,Female,8,2022-09-25_06h19.29.701,memory_pilot_most_recent,2022.2.4,Win32,12.71520484,,,,,,,,,,,,,,,,,,,,,,,,1,0,31,31,31,1,2901941401-292798.jpg,2898631468-68931.jpg,3,,,,,,,,,,,,,,,
,,,ATOUNVWV5W8W2,52,Female,8,2022-09-25_06h19.29.701,memory_pilot_most_recent,2022.2.4,Win32,12.71520484,,,,,,,,,,,,,,,,,,,,,,,,1,0,32,32,32,1,2452380832-348593.jpg,2238328478-11678.jpg,1,,,,,,,,,,,,,,,
,,,ATOUNVWV5W8W2,52,Female,8,2022-09-25_06h19.29.701,memory_pilot_most_recent,2022.2.4,Win32,12.71520484,,,,,,,,,,,,,,,,,,,,,,,,1,0,33,33,33,1,2883268471-290842.jpg,2883255450-215310.jpg,2,,,,,,,,,,,,,,,
,,,ATOUNVWV5W8W2,52,Female,8,2022-09-25_06h19.29.701,memory_pilot_most_recent,2022.2.4,Win32,12.71520484,,,,,,,,,,,,,,,,,,,,,,,,1,0,34,34,34,1,2460547508-51571.jpg,2452380166-273109.jpg,1,,,,,,,,,,,,,,,
,,,ATOUNVWV5W8W2,52,Female,8,2022-09-25_06h19.29.701,memory_pilot_most_recent,2022.2.4,Win32,12.71520484,,,,,,,,,,,,,,,,,,,,,,,,1,0,35,35,35,1,2864907432-362042.jpg,2864901420-212147.jpg,1,,,,,,,,,,,,,,,
,,,ATOUNVWV5W8W2,52,Female,8,2022-09-25_06h19.29.701,memory_pilot_most_recent,2022.2.4,Win32,12.71520484,,,,,,,,,,,,,,,,,,,,,,,,1,0,36,36,36,1,2592380177-354629.jpg,2579432534-130704.jpg,2,,,,,,,,,,,,,,,
,,,ATOUNVWV5W8W2,52,Female,8,2022-09-25_06h19.29.701,memory_pilot_most_recent,2022.2.4,Win32,12.71520484,,,,,,,,,,,,,,,,,,,,,,,,1,0,37,37,37,1,2981231403-71642.jpg,2579432519-130698.jpg,1,,,,,,,,,,,,,,,
,,,ATOUNVWV5W8W2,52,Female,8,2022-09-25_06h19.29.701,memory_pilot_most_recent,2022.2.4,Win32,12.71520484,,,,,,,,,,,,,,,,,,,,,,,,0,0,38,38,38,1,left.jpg,,,left,,,,,,,,,,,,,,
,,,ATOUNVWV5W8W2,52,Female,8,2022-09-25_06h19.29.701,memory_pilot_most_recent,2022.2.4,Win32,12.71520484,,,,,,,,,,,,,,,,,,,,,,,,1,0,39,39,39,1,2592379964-131054.jpg,2238479053-19457.jpg,2,,,,,,,,,,,,,,,
,,,ATOUNVWV5W8W2,52,Female,8,2022-09-25_06h19.29.701,memory_pilot_most_recent,2022.2.4,Win32,12.71520484,,,,,,,,,,,,,,,,,,,,,,,,1,0,40,40,40,1,2452381505-199546.jpg,2898632385-217138.jpg,2,,,,,,,,,,,,,,,
,,,ATOUNVWV5W8W2,52,Female,8,2022-09-25_06h19.29.701,memory_pilot_most_recent,2022.2.4,Win32,12.71520484,,,,,,,,,,,,,,,,,,,,,,,,1,0,41,41,41,1,2901939379-143480.jpg,2901942428-69919.jpg,1,,,,,,,,,,,,,,,
,,,ATOUNVWV5W8W2,52,Female,8,2022-09-25_06h19.29.701,memory_pilot_most_recent,2022.2.4,Win32,12.71520484,,,,,,,,,,,,,,,,,,,,,,,,1,0,42,42,42,1,2874307433-66280.jpg,2981231422-369714.jpg,3,,,,,,,,,,,,,,,
,,,ATOUNVWV5W8W2,52,Female,8,2022-09-25_06h19.29.701,memory_pilot_most_recent,2022.2.4,Win32,12.71520484,,,,,,,,,,,,,,,,,,,,,,,,1,0,43,43,43,1,2238560245-182099.jpg,2238480980-168129.jpg,3,,,,,,,,,,,,,,,
,,,ATOUNVWV5W8W2,52,Female,8,2022-09-25_06h19.29.701,memory_pilot_most_recent,2022.2.4,Win32,12.71520484,,,,,,,,,,,,,,,,,,,,,,,,1,0,44,44,44,1,2460547467-349421.jpg,2981235446-294901.jpg,3,,,,,,,,,,,,,,,
,,,ATOUNVWV5W8W2,52,Female,8,2022-09-25_06h19.29.701,memory_pilot_most_recent,2022.2.4,Win32,12.71520484,,,,,,,,,,,,,,,,,,,,,,,,1,0,45,45,45,1,2986451363-73598.jpg,2237857458-1324.jpg,1,,,,,,,,,,,,,,,
,,,ATOUNVWV5W8W2,52,Female,8,2022-09-25_06h19.29.701,memory_pilot_most_recent,2022.2.4,Win32,12.71520484,,,,,,,,,,,,,,,,,,,,,,,,1,0,46,46,46,1,2898633421-291973.jpg,2238550049-105691.jpg,3,,,,,,,,,,,,,,,
,,,ATOUNVWV5W8W2,52,Female,8,2022-09-25_06h19.29.701,memory_pilot_most_recent,2022.2.4,Win32,12.71520484,,,,,,,,,,,,,,,,,,,,,,,,1,0,47,47,47,1,2898618444-142233.jpg,2238555262-330312.jpg,2,,,,,,,,,,,,,,,
,,,ATOUNVWV5W8W2,52,Female,8,2022-09-25_06h19.29.701,memory_pilot_most_recent,2022.2.4,Win32,12.71520484,,,,,,,,,,,,,,,,,,,,,,,,1,0,48,48,48,1,2238480677-317399.jpg,2238480278-19661.jpg,3,,,,,,,,,,,,,,,
,,,ATOUNVWV5W8W2,52,Female,8,2022-09-25_06h19.29.701,memory_pilot_most_recent,2022.2.4,Win32,12.71520484,,,,,,,,,,,,,,,,,,,,,,,,0,0,49,49,49,1,left.jpg,,,left,,,,,,,,,,,,,,
,,,ATOUNVWV5W8W2,52,Female,8,2022-09-25_06h19.29.701,memory_pilot_most_recent,2022.2.4,Win32,12.71520484,,,,,,,,,,,,,,,,,,,,,,,,1,0,50,50,50,1,2898635428-69104.jpg,2446759803-49250.jpg,1,,,,,,,,,,,,,,,
,,,ATOUNVWV5W8W2,52,Female,8,2022-09-25_06h19.29.701,memory_pilot_most_recent,2022.2.4,Win32,12.71520484,,,,,,,,,,,,,,,,,,,,,,,,1,0,51,51,51,1,2981241414-145842.jpg,2874301404-139813.jpg,2,,,,,,,,,,,,,,,
,,,ATOUNVWV5W8W2,52,Female,8,2022-09-25_06h19.29.701,memory_pilot_most_recent,2022.2.4,Win32,12.71520484,,,,,,,,,,,,,,,,,,,,,,,,1,0,52,52,52,1,2964218374-144967.jpg,2981231446-294732.jpg,3,,,,,,,,,,,,,,,
,,,ATOUNVWV5W8W2,52,Female,8,2022-09-25_06h19.29.701,memory_pilot_most_recent,2022.2.4,Win32,12.71520484,,,,,,,,,,,,,,,,,,,,,,,,1,0,53,53,53,1,2874301407-363895.jpg,2986397322-371109.jpg,2,,,,,,,,,,,,,,,
,,,ATOUNVWV5W8W2,52,Female,8,2022-09-25_06h19.29.701,memory_pilot_most_recent,2022.2.4,Win32,12.71520484,,,,,,,,,,,,,,,,,,,,,,,,1,0,54,54,54,1,2874299429-139694.jpg,2986447306-296584.jpg,1,,,,,,,,,,,,,,,
,,,ATOUNVWV5W8W2,52,Female,8,2022-09-25_06h19.29.701,memory_pilot_most_recent,2022.2.4,Win32,12.71520484,,,,,,,,,,,,,,,,,,,,,,,,1,0,55,55,55,1,2874303365-214262.jpg,2274829821-263682.jpg,1,,,,,,,,,,,,,,,
,,,ATOUNVWV5W8W2,52,Female,8,2022-09-25_06h19.29.701,memory_pilot_most_recent,2022.2.4,Win32,12.71520484,,,,,,,,,,,,,,,,,,,,,,,,1,0,56,56,56,1,2898624426-291546.jpg,2981235446-294900.jpg,3,,,,,,,,,,,,,,,
,,,ATOUNVWV5W8W2,52,Female,8,2022-09-25_06h19.29.701,memory_pilot_most_recent,2022.2.4,Win32,12.71520484,,,,,,,,,,,,,,,,,,,,,,,,1,0,57,57,57,1,2986451363-73599.jpg,2238434559-90406.jpg,3,,,,,,,,,,,,,,,
,,,ATOUNVWV5W8W2,52,Female,8,2022-09-25_06h19.29.701,memory_pilot_most_recent,2022.2.4,Win32,12.71520484,,,,,,,,,,,,,,,,,,,,,,,,1,0,58,58,58,1,2874302418-65978.jpg,2898633321-291943.jpg,3,,,,,,,,,,,,,,,
,,,ATOUNVWV5W8W2,52,Female,8,2022-09-25_06h19.29.701,memory_pilot_most_recent,2022.2.4,Win32,12.71520484,,,,,,,,,,,,,,,,,,,,,,,,1,0,59,59,59,1,2575120738-55529.jpg,2575120738-55528.jpg,2,,,,,,,,,,,,,,,
,,,ATOUNVWV5W8W2,52,Female,8,2022-09-25_06h19.29.701,memory_pilot_most_recent,2022.2.4,Win32,12.71520484,,,,,,,,,,,,,,,,,,,,,,,,1,0,60,60,60,1,2874302418-65979.jpg,2238480648-19714.jpg,2,,,,,,,,,,,,,,,
,,,ATOUNVWV5W8W2,52,Female,8,2022-09-25_06h19.29.701,memory_pilot_most_recent,2022.2.4,Win32,12.71520484,,,,,,,,,,,,,,,,,,,,,,,,1,0,61,61,61,1,2901947423-70311.jpg,2238573447-333826.jpg,2,,,,,,,,,,,,,,,
,,,ATOUNVWV5W8W2,52,Female,8,2022-09-25_06h19.29.701,memory_pilot_most_recent,2022.2.4,Win32,12.71520484,,,,,,,,,,,,,,,,,,,,,,,,1,0,62,62,62,1,2864910426-287204.jpg,2901939433-69672.jpg,3,,,,,,,,,,,,,,,
,,,ATOUNVWV5W8W2,52,Female,8,2022-09-25_06h19.29.701,memory_pilot_most_recent,2022.2.4,Win32,12.71520484,,,,,,,,,,,,,,,,,,,,,,,,1,0,63,63,63,1,2898617468-68274.jpg,2964207374-144577.jpg,3,,,,,,,,,,,,,,,
,,,ATOUNVWV5W8W2,52,Female,8,2022-09-25_06h19.29.701,memory_pilot_most_recent,2022.2.4,Win32,12.71520484,,,,,,,,,,,,,,,,,,,,,,,,1,0,64,64,64,1,2460547467-349422.jpg,2868487415-213924.jpg,2,,,,,,,,,,,,,,,
,,,ATOUNVWV5W8W2,52,Female,8,2022-09-25_06h19.29.701,memory_pilot_most_recent,2022.2.4,Win32,12.71520484,,,,,,,,,,,,,,,,,,,,,,,,,,,,,,,,,,space,385.753,,,,,,,,,,,,
,,,ATOUNVWV5W8W2,52,Female,8,2022-09-25_06h19.29.701,memory_pilot_most_recent,2022.2.4,Win32,12.71520484,,,,,,,,,,,,,,,,,,,,,,,,,,,,,,,,,,,,,,,,,,,,,,,
,,,ATOUNVWV5W8W2,52,Female,8,2022-09-25_06h19.29.701,memory_pilot_most_recent,2022.2.4,Win32,12.71520484,,,,,,,,,,,,,,,,,,,,,,,,,,,,,,,,1,right,,,right,1,2.6036,0,0,0,0,1,2446759803-49250.jpg,2898635428-69104.jpg,,
,,,ATOUNVWV5W8W2,52,Female,8,2022-09-25_06h19.29.701,memory_pilot_most_recent,2022.2.4,Win32,12.71520484,,,,,,,,,,,,,,,,,,,,,,,,,,,,,,,,2,left,,,left,1,2.5132,0,1,1,1,1,2238425482-313537.jpg,2238436322-314047.jpg,,
,,,ATOUNVWV5W8W2,52,Female,8,2022-09-25_06h19.29.701,memory_pilot_most_recent,2022.2.4,Win32,12.71520484,,,,,,,,,,,,,,,,,,,,,,,,,,,,,,,,2,left,,,left,1,1.449,0,2,2,2,1,2575120738-55529.jpg,2575120738-55528.jpg,,
,,,ATOUNVWV5W8W2,52,Female,8,2022-09-25_06h19.29.701,memory_pilot_most_recent,2022.2.4,Win32,12.71520484,,,,,,,,,,,,,,,,,,,,,,,,,,,,,,,,3,left,,,left,1,1.5561,0,3,3,3,1,2238560245-182099.jpg,2238480980-168129.jpg,,
,,,ATOUNVWV5W8W2,52,Female,8,2022-09-25_06h19.29.701,memory_pilot_most_recent,2022.2.4,Win32,12.71520484,,,,,,,,,,,,,,,,,,,,,,,,,,,,,,,,3,right,,,right,1,1.538,0,4,4,4,1,2458347252-348911.jpg,2458347385-199723.jpg,,
,,,ATOUNVWV5W8W2,52,Female,8,2022-09-25_06h19.29.701,memory_pilot_most_recent,2022.2.4,Win32,12.71520484,,,,,,,,,,,,,,,,,,,,,,,,,,,,,,,,2,left,,,left,1,1.1685,0,5,5,5,1,2460547467-349422.jpg,2868487415-213924.jpg,,
,,,ATOUNVWV5W8W2,52,Female,8,2022-09-25_06h19.29.701,memory_pilot_most_recent,2022.2.4,Win32,12.71520484,,,,,,,,,,,,,,,,,,,,,,,,,,,,,,,,1,right,,,right,1,1.2559,0,6,6,6,1,2452380166-273109.jpg,2460547508-51571.jpg,,
,,,ATOUNVWV5W8W2,52,Female,8,2022-09-25_06h19.29.701,memory_pilot_most_recent,2022.2.4,Win32,12.71520484,,,,,,,,,,,,,,,,,,,,,,,,,,,,,,,,2,right,,,right,1,1.3302,0,7,7,7,1,2238480803-19739.jpg,2868475410-213219.jpg,,
,,,ATOUNVWV5W8W2,52,Female,8,2022-09-25_06h19.29.701,memory_pilot_most_recent,2022.2.4,Win32,12.71520484,,,,,,,,,,,,,,,,,,,,,,,,,,,,,,,,2,right,,,right,1,1.35,0,8,8,8,1,2874301404-139813.jpg,2981241414-145842.jpg,,
,,,ATOUNVWV5W8W2,52,Female,8,2022-09-25_06h19.29.701,memory_pilot_most_recent,2022.2.4,Win32,12.71520484,,,,,,,,,,,,,,,,,,,,,,,,,,,,,,,,1,left,,,left,1,1.1432,0,9,9,9,1,2986451363-73598.jpg,2237857458-1324.jpg,,
,,,ATOUNVWV5W8W2,52,Female,8,2022-09-25_06h19.29.701,memory_pilot_most_recent,2022.2.4,Win32,12.71520484,,,,,,,,,,,,,,,,,,,,,,,,,,,,,,,,3,left,,,left,1,1.9131,0,10,10,10,1,2592380177-354626.jpg,2238117096-228518.jpg,,
,,,ATOUNVWV5W8W2,52,Female,8,2022-09-25_06h19.29.701,memory_pilot_most_recent,2022.2.4,Win32,12.71520484,,,,,,,,,,,,,,,,,,,,,,,,,,,,,,,,3,right,,,left,0,1.3611,0,11,11,11,1,2981231422-369714.jpg,2874307433-66280.jpg,,
,,,ATOUNVWV5W8W2,52,Female,8,2022-09-25_06h19.29.701,memory_pilot_most_recent,2022.2.4,Win32,12.71520484,,,,,,,,,,,,,,,,,,,,,,,,,,,,,,,,2,right,,,right,1,1.1325,0,12,12,12,1,2238480648-19714.jpg,2874302418-65979.jpg,,
,,,ATOUNVWV5W8W2,52,Female,8,2022-09-25_06h19.29.701,memory_pilot_most_recent,2022.2.4,Win32,12.71520484,,,,,,,,,,,,,,,,,,,,,,,,,,,,,,,,2,left,,,left,1,1.4487,0,13,13,13,1,2592380177-354629.jpg,2579432534-130704.jpg,,
,,,ATOUNVWV5W8W2,52,Female,8,2022-09-25_06h19.29.701,memory_pilot_most_recent,2022.2.4,Win32,12.71520484,,,,,,,,,,,,,,,,,,,,,,,,,,,,,,,,3,left,,,left,1,1.6366,0,14,14,14,1,2864910426-287204.jpg,2901939433-69672.jpg,,
,,,ATOUNVWV5W8W2,52,Female,8,2022-09-25_06h19.29.701,memory_pilot_most_recent,2022.2.4,Win32,12.71520484,,,,,,,,,,,,,,,,,,,,,,,,,,,,,,,,3,right,,,left,0,1.5263,0,15,15,15,1,2898633321-291943.jpg,2874302418-65978.jpg,,
,,,ATOUNVWV5W8W2,52,Female,8,2022-09-25_06h19.29.701,memory_pilot_most_recent,2022.2.4,Win32,12.71520484,,,,,,,,,,,,,,,,,,,,,,,,,,,,,,,,2,right,,,right,1,1.3431,0,16,16,16,1,2883255450-215310.jpg,2883268471-290842.jpg,,
,,,ATOUNVWV5W8W2,52,Female,8,2022-09-25_06h19.29.701,memory_pilot_most_recent,2022.2.4,Win32,12.71520484,,,,,,,,,,,,,,,,,,,,,,,,,,,,,,,,2,left,,,right,0,0.9859,0,17,17,17,1,2964223381-294447.jpg,2901941438-69836.jpg,,
,,,ATOUNVWV5W8W2,52,Female,8,2022-09-25_06h19.29.701,memory_pilot_most_recent,2022.2.4,Win32,12.71520484,,,,,,,,,,,,,,,,,,,,,,,,,,,,,,,,2,right,,,right,1,1.4453,0,18,18,18,1,2901942443-69923.jpg,2874299429-139695.jpg,,
,,,ATOUNVWV5W8W2,52,Female,8,2022-09-25_06h19.29.701,memory_pilot_most_recent,2022.2.4,Win32,12.71520484,,,,,,,,,,,,,,,,,,,,,,,,,,,,,,,,2,right,,,left,0,1.4519,0,19,19,19,1,2898632385-217138.jpg,2452381505-199546.jpg,,
,,,ATOUNVWV5W8W2,52,Female,8,2022-09-25_06h19.29.701,memory_pilot_most_recent,2022.2.4,Win32,12.71520484,,,,,,,,,,,,,,,,,,,,,,,,,,,,,,,,1,left,,,left,1,2.1647,0,20,20,20,1,2446759803-49249.jpg,2446760601-272099.jpg,,
,,,ATOUNVWV5W8W2,52,Female,8,2022-09-25_06h19.29.701,memory_pilot_most_recent,2022.2.4,Win32,12.71520484,,,,,,,,,,,,,,,,,,,,,,,,,,,,,,,,1,left,,,right,0,1.3553,0,21,21,21,1,2238428357-313623.jpg,2238499057-320266.jpg,,
,,,ATOUNVWV5W8W2,52,Female,8,2022-09-25_06h19.29.701,memory_pilot_most_recent,2022.2.4,Win32,12.71520484,,,,,,,,,,,,,,,,,,,,,,,,,,,,,,,,3,left,,,left,1,1.2653,0,22,22,22,1,2901939379-143479.jpg,2964216376-294181.jpg,,
,,,ATOUNVWV5W8W2,52,Female,8,2022-09-25_06h19.29.701,memory_pilot_most_recent,2022.2.4,Win32,12.71520484,,,,,,,,,,,,,,,,,,,,,,,,,,,,,,,,1,right,,,right,1,1.1001,0,23,23,23,1,2238328478-11678.jpg,2452380832-348593.jpg,,
,,,ATOUNVWV5W8W2,52,Female,8,2022-09-25_06h19.29.701,memory_pilot_most_recent,2022.2.4,Win32,12.71520484,,,,,,,,,,,,,,,,,,,,,,,,,,,,,,,,3,right,,,right,1,2.2795,0,24,24,24,1,2898632385-217137.jpg,2449442529-124445.jpg,,
,,,ATOUNVWV5W8W2,52,Female,8,2022-09-25_06h19.29.701,memory_pilot_most_recent,2022.2.4,Win32,12.71520484,,,,,,,,,,,,,,,,,,,,,,,,,,,,,,,,2,right,,,right,1,1.3051,0,25,25,25,1,2964210336-293945.jpg,2883256307-365057.jpg,,
,,,ATOUNVWV5W8W2,52,Female,8,2022-09-25_06h19.29.701,memory_pilot_most_recent,2022.2.4,Win32,12.71520484,,,,,,,,,,,,,,,,,,,,,,,,,,,,,,,,1,right,,,right,1,1.2609,0,26,26,26,1,2274829821-263682.jpg,2874303365-214262.jpg,,
,,,ATOUNVWV5W8W2,52,Female,8,2022-09-25_06h19.29.701,memory_pilot_most_recent,2022.2.4,Win32,12.71520484,,,,,,,,,,,,,,,,,,,,,,,,,,,,,,,,1,right,,,right,1,1.4753,0,27,27,27,1,2238544191-252422.jpg,2964216465-219242.jpg,,
,,,ATOUNVWV5W8W2,52,Female,8,2022-09-25_06h19.29.701,memory_pilot_most_recent,2022.2.4,Win32,12.71520484,,,,,,,,,,,,,,,,,,,,,,,,,,,,,,,,1,left,,,left,1,1.0994,0,28,28,28,1,2964213381-294060.jpg,2981244394-145974.jpg,,
,,,ATOUNVWV5W8W2,52,Female,8,2022-09-25_06h19.29.701,memory_pilot_most_recent,2022.2.4,Win32,12.71520484,,,,,,,,,,,,,,,,,,,,,,,,,,,,,,,,1,right,,,right,1,1.068,0,29,29,29,1,2579432519-130698.jpg,2981231403-71642.jpg,,
,,,ATOUNVWV5W8W2,52,Female,8,2022-09-25_06h19.29.701,memory_pilot_most_recent,2022.2.4,Win32,12.71520484,,,,,,,,,,,,,,,,,,,,,,,,,,,,,,,,1,left,,,left,1,1.348,0,30,30,30,1,2864907432-362042.jpg,2864901420-212147.jpg,,
,,,ATOUNVWV5W8W2,52,Female,8,2022-09-25_06h19.29.701,memory_pilot_most_recent,2022.2.4,Win32,12.71520484,,,,,,,,,,,,,,,,,,,,,,,,,,,,,,,,2,right,,,left,0,1.3524,0,31,31,31,1,2238571930-184143.jpg,2238572663-35822.jpg,,
,,,ATOUNVWV5W8W2,52,Female,8,2022-09-25_06h19.29.701,memory_pilot_most_recent,2022.2.4,Win32,12.71520484,,,,,,,,,,,,,,,,,,,,,,,,,,,,,,,,3,right,,,right,1,1.945,0,32,32,32,1,2981235446-294901.jpg,2460547467-349421.jpg,,
,,,ATOUNVWV5W8W2,52,Female,8,2022-09-25_06h19.29.701,memory_pilot_most_recent,2022.2.4,Win32,12.71520484,,,,,,,,,,,,,,,,,,,,,,,,,,,,,,,,1,left,,,left,1,1.638,0,33,33,33,1,2446758985-197609.jpg,2981240424-145795.jpg,,
,,,ATOUNVWV5W8W2,52,Female,8,2022-09-25_06h19.29.701,memory_pilot_most_recent,2022.2.4,Win32,12.71520484,,,,,,,,,,,,,,,,,,,,,,,,,,,,,,,,1,right,,,right,1,1.8496,0,34,34,34,1,2864907361-287062.jpg,2901952513-70703.jpg,,
,,,ATOUNVWV5W8W2,52,Female,8,2022-09-25_06h19.29.701,memory_pilot_most_recent,2022.2.4,Win32,12.71520484,,,,,,,,,,,,,,,,,,,,,,,,,,,,,,,,1,right,,,right,1,1.5369,0,35,35,35,1,2446759803-49251.jpg,2449442529-124446.jpg,,
,,,ATOUNVWV5W8W2,52,Female,8,2022-09-25_06h19.29.701,memory_pilot_most_recent,2022.2.4,Win32,12.71520484,,,,,,,,,,,,,,,,,,,,,,,,,,,,,,,,3,left,,,right,0,1.2761,0,36,36,36,1,2964218374-144967.jpg,2981231446-294732.jpg,,
,,,ATOUNVWV5W8W2,52,Female,8,2022-09-25_06h19.29.701,memory_pilot_most_recent,2022.2.4,Win32,12.71520484,,,,,,,,,,,,,,,,,,,,,,,,,,,,,,,,3,left,,,left,1,0.9655,0,37,37,37,1,2901941401-292798.jpg,2898631468-68931.jpg,,
,,,ATOUNVWV5W8W2,52,Female,8,2022-09-25_06h19.29.701,memory_pilot_most_recent,2022.2.4,Win32,12.71520484,,,,,,,,,,,,,,,,,,,,,,,,,,,,,,,,3,right,,,left,0,0.953,0,38,38,38,1,2238434559-90406.jpg,2986451363-73599.jpg,,
,,,ATOUNVWV5W8W2,52,Female,8,2022-09-25_06h19.29.701,memory_pilot_most_recent,2022.2.4,Win32,12.71520484,,,,,,,,,,,,,,,,,,,,,,,,,,,,,,,,1,left,,,left,1,1.7715,0,39,39,39,1,2964222378-71332.jpg,2981240424-145794.jpg,,
,,,ATOUNVWV5W8W2,52,Female,8,2022-09-25_06h19.29.701,memory_pilot_most_recent,2022.2.4,Win32,12.71520484,,,,,,,,,,,,,,,,,,,,,,,,,,,,,,,,2,right,,,right,1,1.1733,0,40,40,40,1,2984615361-295510.jpg,2883268412-365898.jpg,,
,,,ATOUNVWV5W8W2,52,Female,8,2022-09-25_06h19.29.701,memory_pilot_most_recent,2022.2.4,Win32,12.71520484,,,,,,,,,,,,,,,,,,,,,,,,,,,,,,,,1,right,,,right,1,1.458,0,41,41,41,1,2862691449-137104.jpg,2238481198-19822.jpg,,
,,,ATOUNVWV5W8W2,52,Female,8,2022-09-25_06h19.29.701,memory_pilot_most_recent,2022.2.4,Win32,12.71520484,,,,,,,,,,,,,,,,,,,,,,,,,,,,,,,,2,left,,,right,0,1.2596,0,42,42,42,1,2874301407-363895.jpg,2986397322-371109.jpg,,
,,,ATOUNVWV5W8W2,52,Female,8,2022-09-25_06h19.29.701,memory_pilot_most_recent,2022.2.4,Win32,12.71520484,,,,,,,,,,,,,,,,,,,,,,,,,,,,,,,,2,left,,,left,1,1.0715,0,43,43,43,1,2901947423-70311.jpg,2238573447-333826.jpg,,
,,,ATOUNVWV5W8W2,52,Female,8,2022-09-25_06h19.29.701,memory_pilot_most_recent,2022.2.4,Win32,12.71520484,,,,,,,,,,,,,,,,,,,,,,,,,,,,,,,,3,right,,,right,1,1.3502,0,44,44,44,1,2238550049-105691.jpg,2898633421-291973.jpg,,
,,,ATOUNVWV5W8W2,52,Female,8,2022-09-25_06h19.29.701,memory_pilot_most_recent,2022.2.4,Win32,12.71520484,,,,,,,,,,,,,,,,,,,,,,,,,,,,,,,,2,left,,,left,1,1.1711,0,45,45,45,1,2592379964-131054.jpg,2238479053-19457.jpg,,
,,,ATOUNVWV5W8W2,52,Female,8,2022-09-25_06h19.29.701,memory_pilot_most_recent,2022.2.4,Win32,12.71520484,,,,,,,,,,,,,,,,,,,,,,,,,,,,,,,,3,right,,,right,1,2.0133,0,46,46,46,1,2575120609-129862.jpg,2898618390-216538.jpg,,
,,,ATOUNVWV5W8W2,52,Female,8,2022-09-25_06h19.29.701,memory_pilot_most_recent,2022.2.4,Win32,12.71520484,,,,,,,,,,,,,,,,,,,,,,,,,,,,,,,,3,left,,,left,1,1.3818,0,47,47,47,1,2898624426-291546.jpg,2981235446-294900.jpg,,
,,,ATOUNVWV5W8W2,52,Female,8,2022-09-25_06h19.29.701,memory_pilot_most_recent,2022.2.4,Win32,12.71520484,,,,,,,,,,,,,,,,,,,,,,,,,,,,,,,,1,left,,,left,1,1.096,0,48,48,48,1,2874299429-139694.jpg,2986447306-296584.jpg,,
,,,ATOUNVWV5W8W2,52,Female,8,2022-09-25_06h19.29.701,memory_pilot_most_recent,2022.2.4,Win32,12.71520484,,,,,,,,,,,,,,,,,,,,,,,,,,,,,,,,2,left,,,left,1,1.0493,0,49,49,49,1,2898618444-142233.jpg,2238555262-330312.jpg,,
,,,ATOUNVWV5W8W2,52,Female,8,2022-09-25_06h19.29.701,memory_pilot_most_recent,2022.2.4,Win32,12.71520484,,,,,,,,,,,,,,,,,,,,,,,,,,,,,,,,3,left,,,left,1,1.1697,0,50,50,50,1,2898635427-367120.jpg,2898621427-366486.jpg,,
,,,ATOUNVWV5W8W2,52,Female,8,2022-09-25_06h19.29.701,memory_pilot_most_recent,2022.2.4,Win32,12.71520484,,,,,,,,,,,,,,,,,,,,,,,,,,,,,,,,1,left,,,right,0,1.2595,0,51,51,51,1,2883273443-68193.jpg,2883254439-140940.jpg,,
,,,ATOUNVWV5W8W2,52,Female,8,2022-09-25_06h19.29.701,memory_pilot_most_recent,2022.2.4,Win32,12.71520484,,,,,,,,,,,,,,,,,,,,,,,,,,,,,,,,3,left,,,right,0,1.6278,0,52,52,52,1,2512875899-126682.jpg,2986447332-371497.jpg,,
,,,ATOUNVWV5W8W2,52,Female,8,2022-09-25_06h19.29.701,memory_pilot_most_recent,2022.2.4,Win32,12.71520484,,,,,,,,,,,,,,,,,,,,,,,,,,,,,,,,1,right,,,right,1,1.1452,0,53,53,53,1,2901942428-69919.jpg,2901939379-143480.jpg,,
,,,ATOUNVWV5W8W2,52,Female,8,2022-09-25_06h19.29.701,memory_pilot_most_recent,2022.2.4,Win32,12.71520484,,,,,,,,,,,,,,,,,,,,,,,,,,,,,,,,3,right,,,right,1,1.2525,0,54,54,54,1,2964207374-144577.jpg,2898617468-68274.jpg,,
,,,ATOUNVWV5W8W2,52,Female,8,2022-09-25_06h19.29.701,memory_pilot_most_recent,2022.2.4,Win32,12.71520484,,,,,,,,,,,,,,,,,,,,,,,,,,,,,,,,3,left,,,right,0,1.4305,0,55,55,55,1,2238481928-19949.jpg,2981241419-145844.jpg,,
,,,ATOUNVWV5W8W2,52,Female,8,2022-09-25_06h19.29.701,memory_pilot_most_recent,2022.2.4,Win32,12.71520484,,,,,,,,,,,,,,,,,,,,,,,,,,,,,,,,2,left,,,left,1,1.1453,0,56,56,56,1,2898634397-367080.jpg,2901934408-69289.jpg,,
,,,ATOUNVWV5W8W2,52,Female,8,2022-09-25_06h19.29.701,memory_pilot_most_recent,2022.2.4,Win32,12.71520484,,,,,,,,,,,,,,,,,,,,,,,,,,,,,,,,3,right,,,right,1,1.7078,0,57,57,57,1,2238480278-19661.jpg,2238480677-317399.jpg,,
,,,ATOUNVWV5W8W2,52,Female,8,2022-09-25_06h19.29.701,memory_pilot_most_recent,2022.2.4,Win32,12.71520484,,,,,,,,,,,,,,,,,,,,,,,,,,,,,,,,2,right,,,right,1,1.8271,0,58,58,58,1,2238521193-26285.jpg,2238580740-186218.jpg,,
,,,ATOUNVWV5W8W2,52,Female,8,2022-09-25_06h19.29.701,memory_pilot_most_recent,2022.2.4,Win32,12.71520484,,,,,,,,,,,,,,,,,,,,,,,,,,,,,,,,1,left,,,left,1,1.1565,0,59,59,59,1,2868474407-362883.jpg,2460547732-349518.jpg,,
,,,ATOUNVWV5W8W2,52,Female,8,2022-09-25_06h19.29.701,memory_pilot_most_recent,2022.2.4,Win32,12.71520484,,,,,,,,,,,,,,,,,,,,,,,,,,,,,,,,,,,,,,,,,,,,,,space,2.3867
