button.numClicks,button.timesOn,button.timesOff,workID,Age,Gender,Hours slept (last night),date,expName,psychopyVersion,OS,frameRate,space_key_responce.keys,space_key_responce.rt,demo_encoding_response.keys,demo_encoding_response.corr,demo_encoding_loop.thisRepN,demo_encoding_loop.thisTrialN,demo_encoding_loop.thisN,demo_encoding_loop.thisIndex,demo_encoding_loop.ran,DemoImage,DemoCorrect,demo_encoding_response.rt,demo_test_response.keys,demo_test_response.corr,demo_test_response.rt,demo_test_loop.thisRepN,demo_test_loop.thisTrialN,demo_test_loop.thisN,demo_test_loop.thisIndex,demo_test_loop.ran,DemoImage1,DemoImage2,DemoCorrectTest,test_encoding_response.keys,test_encoding_response.corr,trials.thisRepN,trials.thisTrialN,trials.thisN,trials.thisIndex,trials.ran,target_image,pair,layer,correct,test_encoding_response.rt,key_resp_end.keys,key_resp_end.rt,test_test_response.keys,test_test_response.corr,test_test_response.rt,trials_2.thisRepN,trials_2.thisTrialN,trials_2.thisN,trials_2.thisIndex,trials_2.ran,image1,image2,key_resp_end_2.keys,key_resp_end_2.rt
1,[35.32789999961858],[35.32789999961858],A2NLR3S7WBULAK,48,FEMALE,7,2022-10-06_04h59.46.761,memory_pilot_most_recent,2022.2.4,Win32,8.261663403,,,,,,,,,,,,,,,,,,,,,,,,,,,,,,,,,,,,,,,,,,,,,,,,,
,,,A2NLR3S7WBULAK,48,FEMALE,7,2022-10-06_04h59.46.761,memory_pilot_most_recent,2022.2.4,Win32,8.261663403,,,,,,,,,,,,,,,,,,,,,,,,,,,,,,,,,,,,,,,,,,,,,,,,,
,,,A2NLR3S7WBULAK,48,FEMALE,7,2022-10-06_04h59.46.761,memory_pilot_most_recent,2022.2.4,Win32,8.261663403,space,7.0119,,,,,,,,,,,,,,,,,,,,,,,,,,,,,,,,,,,,,,,,,,,,,,,
,,,A2NLR3S7WBULAK,48,FEMALE,7,2022-10-06_04h59.46.761,memory_pilot_most_recent,2022.2.4,Win32,8.261663403,,,,,,,,,,,,,,,,,,,,,,,,,,,,,,,,,,,,,,,,,,,,,,,,,
,,,A2NLR3S7WBULAK,48,FEMALE,7,2022-10-06_04h59.46.761,memory_pilot_most_recent,2022.2.4,Win32,8.261663403,,,,1,0,0,0,0,1,flower1.jpg,,,,,,,,,,,,,,,,,,,,,,,,,,,,,,,,,,,,,,,
,,,A2NLR3S7WBULAK,48,FEMALE,7,2022-10-06_04h59.46.761,memory_pilot_most_recent,2022.2.4,Win32,8.261663403,,,,1,0,1,1,1,1,flower2.jpg,,,,,,,,,,,,,,,,,,,,,,,,,,,,,,,,,,,,,,,
,,,A2NLR3S7WBULAK,48,FEMALE,7,2022-10-06_04h59.46.761,memory_pilot_most_recent,2022.2.4,Win32,8.261663403,,,left,1,0,2,2,2,1,left.jpg,left,1.1314,,,,,,,,,,,,,,,,,,,,,,,,,,,,,,,,,,,,,
,,,A2NLR3S7WBULAK,48,FEMALE,7,2022-10-06_04h59.46.761,memory_pilot_most_recent,2022.2.4,Win32,8.261663403,,,,1,0,3,3,3,1,flower3.jpg,,,,,,,,,,,,,,,,,,,,,,,,,,,,,,,,,,,,,,,
,,,A2NLR3S7WBULAK,48,FEMALE,7,2022-10-06_04h59.46.761,memory_pilot_most_recent,2022.2.4,Win32,8.261663403,,,,1,0,4,4,4,1,flower4.jpg,,,,,,,,,,,,,,,,,,,,,,,,,,,,,,,,,,,,,,,
,,,A2NLR3S7WBULAK,48,FEMALE,7,2022-10-06_04h59.46.761,memory_pilot_most_recent,2022.2.4,Win32,8.261663403,,,,1,0,5,5,5,1,flower5.jpg,,,,,,,,,,,,,,,,,,,,,,,,,,,,,,,,,,,,,,,
,,,A2NLR3S7WBULAK,48,FEMALE,7,2022-10-06_04h59.46.761,memory_pilot_most_recent,2022.2.4,Win32,8.261663403,,,,1,0,6,6,6,1,flower6.jpg,,,,,,,,,,,,,,,,,,,,,,,,,,,,,,,,,,,,,,,
,,,A2NLR3S7WBULAK,48,FEMALE,7,2022-10-06_04h59.46.761,memory_pilot_most_recent,2022.2.4,Win32,8.261663403,,,,,,,,,,,,,,,,,,,,,,,,,,,,,,,,,,,,,,,,,,,,,,,,,
,,,A2NLR3S7WBULAK,48,FEMALE,7,2022-10-06_04h59.46.761,memory_pilot_most_recent,2022.2.4,Win32,8.261663403,,,,,,,,,,,,,left,1,1.8214,0,0,0,0,1,flower1.jpg,flower1_pair.jpg,left,,,,,,,,,,,,,,,,,,,,,,,,,,
,,,A2NLR3S7WBULAK,48,FEMALE,7,2022-10-06_04h59.46.761,memory_pilot_most_recent,2022.2.4,Win32,8.261663403,,,,,,,,,,,,,left,0,2.7435,0,1,1,1,1,flower2_pair.jpg,flower2.jpg,right,,,,,,,,,,,,,,,,,,,,,,,,,,
,,,A2NLR3S7WBULAK,48,FEMALE,7,2022-10-06_04h59.46.761,memory_pilot_most_recent,2022.2.4,Win32,8.261663403,,,,,,,,,,,,,left,1,1.7892,0,2,2,2,1,flower3.jpg,flower3_pair.jpg,left,,,,,,,,,,,,,,,,,,,,,,,,,,
,,,A2NLR3S7WBULAK,48,FEMALE,7,2022-10-06_04h59.46.761,memory_pilot_most_recent,2022.2.4,Win32,8.261663403,,,,,,,,,,,,,right,0,1.3801,0,3,3,3,1,flower4.jpg,flower4_pair.jpg,left,,,,,,,,,,,,,,,,,,,,,,,,,,
,,,A2NLR3S7WBULAK,48,FEMALE,7,2022-10-06_04h59.46.761,memory_pilot_most_recent,2022.2.4,Win32,8.261663403,,,,,,,,,,,,,left,0,1.4846,0,4,4,4,1,flower5_pair.jpg,flower5.jpg,right,,,,,,,,,,,,,,,,,,,,,,,,,,
,,,A2NLR3S7WBULAK,48,FEMALE,7,2022-10-06_04h59.46.761,memory_pilot_most_recent,2022.2.4,Win32,8.261663403,,,,,,,,,,,,,right,0,1.4543,0,5,5,5,1,flower6.jpg,flower6_pair.jpg,left,,,,,,,,,,,,,,,,,,,,,,,,,,
,,,A2NLR3S7WBULAK,48,FEMALE,7,2022-10-06_04h59.46.761,memory_pilot_most_recent,2022.2.4,Win32,8.261663403,,,,,,,,,,,,,,,,,,,,,,,,,,,,,,,,,,,,,,,,,,,,,,,,,
,,,A2NLR3S7WBULAK,48,FEMALE,7,2022-10-06_04h59.46.761,memory_pilot_most_recent,2022.2.4,Win32,8.261663403,space,2.2754,,,,,,,,,,,,,,,,,,,,,,,,,,,,,,,,,,,,,,,,,,,,,,,
,,,A2NLR3S7WBULAK,48,FEMALE,7,2022-10-06_04h59.46.761,memory_pilot_most_recent,2022.2.4,Win32,8.261663403,,,,,,,,,,,,,,,,,,,,,,,,,1,0,0,0,0,1,2575120738-55529.jpg,2238531493-28260.jpg,3,,,,,,,,,,,,,,,,
,,,A2NLR3S7WBULAK,48,FEMALE,7,2022-10-06_04h59.46.761,memory_pilot_most_recent,2022.2.4,Win32,8.261663403,,,,,,,,,,,,,,,,,,,,,,,,,1,0,1,1,1,1,2512875899-126682.jpg,2460547536-274179.jpg,1,,,,,,,,,,,,,,,,
,,,A2NLR3S7WBULAK,48,FEMALE,7,2022-10-06_04h59.46.761,memory_pilot_most_recent,2022.2.4,Win32,8.261663403,,,,,,,,,,,,,,,,,,,,,,,,,1,0,2,2,2,1,2898617468-68274.jpg,2901943387-368037.jpg,2,,,,,,,,,,,,,,,,
,,,A2NLR3S7WBULAK,48,FEMALE,7,2022-10-06_04h59.46.761,memory_pilot_most_recent,2022.2.4,Win32,8.261663403,,,,,,,,,,,,,,,,,,,,,,,,,1,0,3,3,3,1,2446758985-197609.jpg,2864909447-362144.jpg,2,,,,,,,,,,,,,,,,
,,,A2NLR3S7WBULAK,48,FEMALE,7,2022-10-06_04h59.46.761,memory_pilot_most_recent,2022.2.4,Win32,8.261663403,,,,,,,,,,,,,,,,,,,,,,,,,1,0,4,4,4,1,2238572663-35822.jpg,2864903351-286874.jpg,3,,,,,,,,,,,,,,,,
,,,A2NLR3S7WBULAK,48,FEMALE,7,2022-10-06_04h59.46.761,memory_pilot_most_recent,2022.2.4,Win32,8.261663403,,,,,,,,,,,,,,,,,,,,,,,,,1,0,5,5,5,1,2964218374-144967.jpg,2446759306-271734.jpg,2,,,,,,,,,,,,,,,,
,,,A2NLR3S7WBULAK,48,FEMALE,7,2022-10-06_04h59.46.761,memory_pilot_most_recent,2022.2.4,Win32,8.261663403,,,,,,,,,,,,,,,,,,,,,,,,,1,0,6,6,6,1,2901947423-70311.jpg,2860312398-62572.jpg,1,,,,,,,,,,,,,,,,
,,,A2NLR3S7WBULAK,48,FEMALE,7,2022-10-06_04h59.46.761,memory_pilot_most_recent,2022.2.4,Win32,8.261663403,,,,,,,,,,,,,,,,,,,,,,,,,1,0,7,7,7,1,2458347385-199723.jpg,2458347252-348911.jpg,3,,,,,,,,,,,,,,,,
,,,A2NLR3S7WBULAK,48,FEMALE,7,2022-10-06_04h59.46.761,memory_pilot_most_recent,2022.2.4,Win32,8.261663403,,,,,,,,,,,,,,,,,,,,,,,,left,1,0,8,8,8,1,left.jpg,,,left,0.9424,,,,,,,,,,,,,,
,,,A2NLR3S7WBULAK,48,FEMALE,7,2022-10-06_04h59.46.761,memory_pilot_most_recent,2022.2.4,Win32,8.261663403,,,,,,,,,,,,,,,,,,,,,,,,,1,0,9,9,9,1,2874307433-66280.jpg,2981246400-220365.jpg,2,,,,,,,,,,,,,,,,
,,,A2NLR3S7WBULAK,48,FEMALE,7,2022-10-06_04h59.46.761,memory_pilot_most_recent,2022.2.4,Win32,8.261663403,,,,,,,,,,,,,,,,,,,,,,,,,1,0,10,10,10,1,2868475410-213219.jpg,2868474407-362885.jpg,3,,,,,,,,,,,,,,,,
,,,A2NLR3S7WBULAK,48,FEMALE,7,2022-10-06_04h59.46.761,memory_pilot_most_recent,2022.2.4,Win32,8.261663403,,,,,,,,,,,,,,,,,,,,,,,,,1,0,11,11,11,1,2868474407-362883.jpg,2981246400-220363.jpg,2,,,,,,,,,,,,,,,,
,,,A2NLR3S7WBULAK,48,FEMALE,7,2022-10-06_04h59.46.761,memory_pilot_most_recent,2022.2.4,Win32,8.261663403,,,,,,,,,,,,,,,,,,,,,,,,,1,0,12,12,12,1,2898635428-69104.jpg,2898625336-291572.jpg,3,,,,,,,,,,,,,,,,
,,,A2NLR3S7WBULAK,48,FEMALE,7,2022-10-06_04h59.46.761,memory_pilot_most_recent,2022.2.4,Win32,8.261663403,,,,,,,,,,,,,,,,,,,,,,,,,1,0,13,13,13,1,2864907432-362042.jpg,2864901420-212147.jpg,1,,,,,,,,,,,,,,,,
,,,A2NLR3S7WBULAK,48,FEMALE,7,2022-10-06_04h59.46.761,memory_pilot_most_recent,2022.2.4,Win32,8.261663403,,,,,,,,,,,,,,,,,,,,,,,,,1,0,14,14,14,1,2964213381-294060.jpg,2981244394-145974.jpg,1,,,,,,,,,,,,,,,,
,,,A2NLR3S7WBULAK,48,FEMALE,7,2022-10-06_04h59.46.761,memory_pilot_most_recent,2022.2.4,Win32,8.261663403,,,,,,,,,,,,,,,,,,,,,,,,,1,0,15,15,15,1,2238480677-317399.jpg,2238481630-168218.jpg,1,,,,,,,,,,,,,,,,
,,,A2NLR3S7WBULAK,48,FEMALE,7,2022-10-06_04h59.46.761,memory_pilot_most_recent,2022.2.4,Win32,8.261663403,,,,,,,,,,,,,,,,,,,,,,,,left,1,0,16,16,16,1,left.jpg,,,left,0.9064,,,,,,,,,,,,,,
,,,A2NLR3S7WBULAK,48,FEMALE,7,2022-10-06_04h59.46.761,memory_pilot_most_recent,2022.2.4,Win32,8.261663403,,,,,,,,,,,,,,,,,,,,,,,,,1,0,17,17,17,1,2592380177-354626.jpg,2238117096-228518.jpg,3,,,,,,,,,,,,,,,,
,,,A2NLR3S7WBULAK,48,FEMALE,7,2022-10-06_04h59.46.761,memory_pilot_most_recent,2022.2.4,Win32,8.261663403,,,,,,,,,,,,,,,,,,,,,,,,,1,0,18,18,18,1,2592379964-131054.jpg,2575963989-130576.jpg,1,,,,,,,,,,,,,,,,
,,,A2NLR3S7WBULAK,48,FEMALE,7,2022-10-06_04h59.46.761,memory_pilot_most_recent,2022.2.4,Win32,8.261663403,,,,,,,,,,,,,,,,,,,,,,,,,1,0,19,19,19,1,2901941401-292798.jpg,2898631468-68931.jpg,3,,,,,,,,,,,,,,,,
,,,A2NLR3S7WBULAK,48,FEMALE,7,2022-10-06_04h59.46.761,memory_pilot_most_recent,2022.2.4,Win32,8.261663403,,,,,,,,,,,,,,,,,,,,,,,,,1,0,20,20,20,1,2901952513-70703.jpg,2238481198-19821.jpg,3,,,,,,,,,,,,,,,,
,,,A2NLR3S7WBULAK,48,FEMALE,7,2022-10-06_04h59.46.761,memory_pilot_most_recent,2022.2.4,Win32,8.261663403,,,,,,,,,,,,,,,,,,,,,,,,,1,0,21,21,21,1,2874302418-65979.jpg,2238480648-19714.jpg,2,,,,,,,,,,,,,,,,
,,,A2NLR3S7WBULAK,48,FEMALE,7,2022-10-06_04h59.46.761,memory_pilot_most_recent,2022.2.4,Win32,8.261663403,,,,,,,,,,,,,,,,,,,,,,,,,1,0,22,22,22,1,2592380177-354629.jpg,2898633421-291974.jpg,1,,,,,,,,,,,,,,,,
,,,A2NLR3S7WBULAK,48,FEMALE,7,2022-10-06_04h59.46.761,memory_pilot_most_recent,2022.2.4,Win32,8.261663403,,,,,,,,,,,,,,,,,,,,,,,,,1,0,23,23,23,1,2874299429-139695.jpg,2883266388-67750.jpg,1,,,,,,,,,,,,,,,,
,,,A2NLR3S7WBULAK,48,FEMALE,7,2022-10-06_04h59.46.761,memory_pilot_most_recent,2022.2.4,Win32,8.261663403,,,,,,,,,,,,,,,,,,,,,,,,,1,0,24,24,24,1,2238425482-313537.jpg,2238436322-314047.jpg,2,,,,,,,,,,,,,,,,
,,,A2NLR3S7WBULAK,48,FEMALE,7,2022-10-06_04h59.46.761,memory_pilot_most_recent,2022.2.4,Win32,8.261663403,,,,,,,,,,,,,,,,,,,,,,,,,1,0,25,25,25,1,2986451363-73598.jpg,2901942443-69925.jpg,3,,,,,,,,,,,,,,,,
,,,A2NLR3S7WBULAK,48,FEMALE,7,2022-10-06_04h59.46.761,memory_pilot_most_recent,2022.2.4,Win32,8.261663403,,,,,,,,,,,,,,,,,,,,,,,,,1,0,26,26,26,1,2898635427-367120.jpg,2964221435-219434.jpg,1,,,,,,,,,,,,,,,,
,,,A2NLR3S7WBULAK,48,FEMALE,7,2022-10-06_04h59.46.761,memory_pilot_most_recent,2022.2.4,Win32,8.261663403,,,,,,,,,,,,,,,,,,,,,,,,,1,0,27,27,27,1,2460547508-51571.jpg,2981232437-369759.jpg,2,,,,,,,,,,,,,,,,
,,,A2NLR3S7WBULAK,48,FEMALE,7,2022-10-06_04h59.46.761,memory_pilot_most_recent,2022.2.4,Win32,8.261663403,,,,,,,,,,,,,,,,,,,,,,,,,1,0,28,28,28,1,2964216465-219242.jpg,2898619327-366362.jpg,3,,,,,,,,,,,,,,,,
,,,A2NLR3S7WBULAK,48,FEMALE,7,2022-10-06_04h59.46.761,memory_pilot_most_recent,2022.2.4,Win32,8.261663403,,,,,,,,,,,,,,,,,,,,,,,,,1,0,29,29,29,1,2901939379-143480.jpg,2981229442-369621.jpg,2,,,,,,,,,,,,,,,,
,,,A2NLR3S7WBULAK,48,FEMALE,7,2022-10-06_04h59.46.761,memory_pilot_most_recent,2022.2.4,Win32,8.261663403,,,,,,,,,,,,,,,,,,,,,,,,,0,0,30,30,30,1,right.jpg,,,right,,,,,,,,,,,,,,,
,,,A2NLR3S7WBULAK,48,FEMALE,7,2022-10-06_04h59.46.761,memory_pilot_most_recent,2022.2.4,Win32,8.261663403,,,,,,,,,,,,,,,,,,,,,,,,,1,0,31,31,31,1,2874301407-363895.jpg,2986397322-371109.jpg,2,,,,,,,,,,,,,,,,
,,,A2NLR3S7WBULAK,48,FEMALE,7,2022-10-06_04h59.46.761,memory_pilot_most_recent,2022.2.4,Win32,8.261663403,,,,,,,,,,,,,,,,,,,,,,,,,1,0,32,32,32,1,2460547467-349421.jpg,2981235446-294901.jpg,3,,,,,,,,,,,,,,,,
,,,A2NLR3S7WBULAK,48,FEMALE,7,2022-10-06_04h59.46.761,memory_pilot_most_recent,2022.2.4,Win32,8.261663403,,,,,,,,,,,,,,,,,,,,,,,,,1,0,33,33,33,1,2238428357-313623.jpg,2238499057-320266.jpg,1,,,,,,,,,,,,,,,,
,,,A2NLR3S7WBULAK,48,FEMALE,7,2022-10-06_04h59.46.761,memory_pilot_most_recent,2022.2.4,Win32,8.261663403,,,,,,,,,,,,,,,,,,,,,,,,,1,0,34,34,34,1,2901939379-143479.jpg,2460547467-349423.jpg,1,,,,,,,,,,,,,,,,
,,,A2NLR3S7WBULAK,48,FEMALE,7,2022-10-06_04h59.46.761,memory_pilot_most_recent,2022.2.4,Win32,8.261663403,,,,,,,,,,,,,,,,,,,,,,,,,1,0,35,35,35,1,2446759803-49249.jpg,2901951392-368654.jpg,3,,,,,,,,,,,,,,,,
,,,A2NLR3S7WBULAK,48,FEMALE,7,2022-10-06_04h59.46.761,memory_pilot_most_recent,2022.2.4,Win32,8.261663403,,,,,,,,,,,,,,,,,,,,,,,,,1,0,36,36,36,1,2452380832-348593.jpg,2238481813-19930.jpg,2,,,,,,,,,,,,,,,,
,,,A2NLR3S7WBULAK,48,FEMALE,7,2022-10-06_04h59.46.761,memory_pilot_most_recent,2022.2.4,Win32,8.261663403,,,,,,,,,,,,,,,,,,,,,,,,,1,0,37,37,37,1,2981241414-145842.jpg,2238516618-25604.jpg,1,,,,,,,,,,,,,,,,
,,,A2NLR3S7WBULAK,48,FEMALE,7,2022-10-06_04h59.46.761,memory_pilot_most_recent,2022.2.4,Win32,8.261663403,,,,,,,,,,,,,,,,,,,,,,,,,1,0,38,38,38,1,2898618444-142233.jpg,2238555262-330312.jpg,2,,,,,,,,,,,,,,,,
,,,A2NLR3S7WBULAK,48,FEMALE,7,2022-10-06_04h59.46.761,memory_pilot_most_recent,2022.2.4,Win32,8.261663403,,,,,,,,,,,,,,,,,,,,,,,,,1,0,39,39,39,1,2874302418-65978.jpg,2898633321-291943.jpg,3,,,,,,,,,,,,,,,,
,,,A2NLR3S7WBULAK,48,FEMALE,7,2022-10-06_04h59.46.761,memory_pilot_most_recent,2022.2.4,Win32,8.261663403,,,,,,,,,,,,,,,,,,,,,,,,,0,0,40,40,40,1,right.jpg,,,right,,,,,,,,,,,,,,,
,,,A2NLR3S7WBULAK,48,FEMALE,7,2022-10-06_04h59.46.761,memory_pilot_most_recent,2022.2.4,Win32,8.261663403,,,,,,,,,,,,,,,,,,,,,,,,,1,0,41,41,41,1,2874303365-214262.jpg,2238563377-332054.jpg,2,,,,,,,,,,,,,,,,
,,,A2NLR3S7WBULAK,48,FEMALE,7,2022-10-06_04h59.46.761,memory_pilot_most_recent,2022.2.4,Win32,8.261663403,,,,,,,,,,,,,,,,,,,,,,,,,1,0,42,42,42,1,2238481198-19822.jpg,2862691449-137104.jpg,1,,,,,,,,,,,,,,,,
,,,A2NLR3S7WBULAK,48,FEMALE,7,2022-10-06_04h59.46.761,memory_pilot_most_recent,2022.2.4,Win32,8.261663403,,,,,,,,,,,,,,,,,,,,,,,,,1,0,43,43,43,1,2460547467-349422.jpg,2864909447-362146.jpg,3,,,,,,,,,,,,,,,,
,,,A2NLR3S7WBULAK,48,FEMALE,7,2022-10-06_04h59.46.761,memory_pilot_most_recent,2022.2.4,Win32,8.261663403,,,,,,,,,,,,,,,,,,,,,,,,,1,0,44,44,44,1,2981231403-71642.jpg,2427873763-47290.jpg,3,,,,,,,,,,,,,,,,
,,,A2NLR3S7WBULAK,48,FEMALE,7,2022-10-06_04h59.46.761,memory_pilot_most_recent,2022.2.4,Win32,8.261663403,,,,,,,,,,,,,,,,,,,,,,,,,1,0,45,45,45,1,2238560245-182099.jpg,2592380255-205553.jpg,1,,,,,,,,,,,,,,,,
,,,A2NLR3S7WBULAK,48,FEMALE,7,2022-10-06_04h59.46.761,memory_pilot_most_recent,2022.2.4,Win32,8.261663403,,,,,,,,,,,,,,,,,,,,,,,,,1,0,46,46,46,1,2449442529-124446.jpg,2460547536-274181.jpg,2,,,,,,,,,,,,,,,,
,,,A2NLR3S7WBULAK,48,FEMALE,7,2022-10-06_04h59.46.761,memory_pilot_most_recent,2022.2.4,Win32,8.261663403,,,,,,,,,,,,,,,,,,,,,,,,,1,0,47,47,47,1,2898624426-291546.jpg,2981236443-71859.jpg,2,,,,,,,,,,,,,,,,
,,,A2NLR3S7WBULAK,48,FEMALE,7,2022-10-06_04h59.46.761,memory_pilot_most_recent,2022.2.4,Win32,8.261663403,,,,,,,,,,,,,,,,,,,,,,,,,1,0,48,48,48,1,2986451363-73599.jpg,2898626385-216899.jpg,1,,,,,,,,,,,,,,,,
,,,A2NLR3S7WBULAK,48,FEMALE,7,2022-10-06_04h59.46.761,memory_pilot_most_recent,2022.2.4,Win32,8.261663403,,,,,,,,,,,,,,,,,,,,,,,,,1,0,49,49,49,1,2874299429-139694.jpg,2981244403-72215.jpg,2,,,,,,,,,,,,,,,,
,,,A2NLR3S7WBULAK,48,FEMALE,7,2022-10-06_04h59.46.761,memory_pilot_most_recent,2022.2.4,Win32,8.261663403,,,,,,,,,,,,,,,,,,,,,,,,left,1,0,50,50,50,1,left.jpg,,,left,1.3716,,,,,,,,,,,,,,
,,,A2NLR3S7WBULAK,48,FEMALE,7,2022-10-06_04h59.46.761,memory_pilot_most_recent,2022.2.4,Win32,8.261663403,,,,,,,,,,,,,,,,,,,,,,,,,1,0,51,51,51,1,2864910426-287204.jpg,2864902304-137862.jpg,1,,,,,,,,,,,,,,,,
,,,A2NLR3S7WBULAK,48,FEMALE,7,2022-10-06_04h59.46.761,memory_pilot_most_recent,2022.2.4,Win32,8.261663403,,,,,,,,,,,,,,,,,,,,,,,,,1,0,52,52,52,1,2898618390-216538.jpg,2901939327-367670.jpg,2,,,,,,,,,,,,,,,,
,,,A2NLR3S7WBULAK,48,FEMALE,7,2022-10-06_04h59.46.761,memory_pilot_most_recent,2022.2.4,Win32,8.261663403,,,,,,,,,,,,,,,,,,,,,,,,,1,0,53,53,53,1,2883273443-68193.jpg,2883254439-140940.jpg,1,,,,,,,,,,,,,,,,
,,,A2NLR3S7WBULAK,48,FEMALE,7,2022-10-06_04h59.46.761,memory_pilot_most_recent,2022.2.4,Win32,8.261663403,,,,,,,,,,,,,,,,,,,,,,,,,1,0,54,54,54,1,2964222378-71332.jpg,2981240424-145794.jpg,1,,,,,,,,,,,,,,,,
,,,A2NLR3S7WBULAK,48,FEMALE,7,2022-10-06_04h59.46.761,memory_pilot_most_recent,2022.2.4,Win32,8.261663403,,,,,,,,,,,,,,,,,,,,,,,,,1,0,55,55,55,1,2238580740-186218.jpg,2238521193-26285.jpg,2,,,,,,,,,,,,,,,,
,,,A2NLR3S7WBULAK,48,FEMALE,7,2022-10-06_04h59.46.761,memory_pilot_most_recent,2022.2.4,Win32,8.261663403,,,,,,,,,,,,,,,,,,,,,,,,,1,0,56,56,56,1,2238481928-19949.jpg,2864900357-361688.jpg,2,,,,,,,,,,,,,,,,
,,,A2NLR3S7WBULAK,48,FEMALE,7,2022-10-06_04h59.46.761,memory_pilot_most_recent,2022.2.4,Win32,8.261663403,,,,,,,,,,,,,,,,,,,,,,,,,1,0,57,57,57,1,2898634397-367080.jpg,2964217461-294238.jpg,3,,,,,,,,,,,,,,,,
,,,A2NLR3S7WBULAK,48,FEMALE,7,2022-10-06_04h59.46.761,memory_pilot_most_recent,2022.2.4,Win32,8.261663403,,,,,,,,,,,,,,,,,,,,,,,,,1,0,58,58,58,1,2883268471-290842.jpg,2883268471-290843.jpg,1,,,,,,,,,,,,,,,,
,,,A2NLR3S7WBULAK,48,FEMALE,7,2022-10-06_04h59.46.761,memory_pilot_most_recent,2022.2.4,Win32,8.261663403,,,,,,,,,,,,,,,,,,,,,,,,,1,0,59,59,59,1,2964223381-294447.jpg,2898628438-68785.jpg,3,,,,,,,,,,,,,,,,
,,,A2NLR3S7WBULAK,48,FEMALE,7,2022-10-06_04h59.46.761,memory_pilot_most_recent,2022.2.4,Win32,8.261663403,,,,,,,,,,,,,,,,,,,,,,,,,1,0,60,60,60,1,2883268412-365898.jpg,2984615361-295510.jpg,2,,,,,,,,,,,,,,,,
,,,A2NLR3S7WBULAK,48,FEMALE,7,2022-10-06_04h59.46.761,memory_pilot_most_recent,2022.2.4,Win32,8.261663403,,,,,,,,,,,,,,,,,,,,,,,,,1,0,61,61,61,1,2883256307-365057.jpg,2864904453-63933.jpg,3,,,,,,,,,,,,,,,,
,,,A2NLR3S7WBULAK,48,FEMALE,7,2022-10-06_04h59.46.761,memory_pilot_most_recent,2022.2.4,Win32,8.261663403,,,,,,,,,,,,,,,,,,,,,,,,,1,0,62,62,62,1,2452381505-199546.jpg,2901938432-367627.jpg,1,,,,,,,,,,,,,,,,
,,,A2NLR3S7WBULAK,48,FEMALE,7,2022-10-06_04h59.46.761,memory_pilot_most_recent,2022.2.4,Win32,8.261663403,,,,,,,,,,,,,,,,,,,,,,,,,1,0,63,63,63,1,2449442529-124445.jpg,2898632385-217137.jpg,3,,,,,,,,,,,,,,,,
,,,A2NLR3S7WBULAK,48,FEMALE,7,2022-10-06_04h59.46.761,memory_pilot_most_recent,2022.2.4,Win32,8.261663403,,,,,,,,,,,,,,,,,,,,,,,,,1,0,64,64,64,1,2898633421-291973.jpg,2238550049-105691.jpg,3,,,,,,,,,,,,,,,,
,,,A2NLR3S7WBULAK,48,FEMALE,7,2022-10-06_04h59.46.761,memory_pilot_most_recent,2022.2.4,Win32,8.261663403,,,,,,,,,,,,,,,,,,,,,,,,,,,,,,,,,,,,space,2.8495,,,,,,,,,,,,
,,,A2NLR3S7WBULAK,48,FEMALE,7,2022-10-06_04h59.46.761,memory_pilot_most_recent,2022.2.4,Win32,8.261663403,,,,,,,,,,,,,,,,,,,,,,,,,,,,,,,,,,,,,,,,,,,,,,,,,
,,,A2NLR3S7WBULAK,48,FEMALE,7,2022-10-06_04h59.46.761,memory_pilot_most_recent,2022.2.4,Win32,8.261663403,,,,,,,,,,,,,,,,,,,,,,,,,,,,,,,,,3,right,,,,left,0,1.6432,0,0,0,0,1,2901942443-69925.jpg,2986451363-73598.jpg,,
,,,A2NLR3S7WBULAK,48,FEMALE,7,2022-10-06_04h59.46.761,memory_pilot_most_recent,2022.2.4,Win32,8.261663403,,,,,,,,,,,,,,,,,,,,,,,,,,,,,,,,,2,right,,,,right,1,0.6475,0,1,1,1,1,2446759306-271734.jpg,2964218374-144967.jpg,,
,,,A2NLR3S7WBULAK,48,FEMALE,7,2022-10-06_04h59.46.761,memory_pilot_most_recent,2022.2.4,Win32,8.261663403,,,,,,,,,,,,,,,,,,,,,,,,,,,,,,,,,2,right,,,,left,0,0.1675,0,2,2,2,1,2981229442-369621.jpg,2901939379-143480.jpg,,
,,,A2NLR3S7WBULAK,48,FEMALE,7,2022-10-06_04h59.46.761,memory_pilot_most_recent,2022.2.4,Win32,8.261663403,,,,,,,,,,,,,,,,,,,,,,,,,,,,,,,,,2,left,,,,left,1,1.8982,0,3,3,3,1,2460547508-51571.jpg,2981232437-369759.jpg,,
,,,A2NLR3S7WBULAK,48,FEMALE,7,2022-10-06_04h59.46.761,memory_pilot_most_recent,2022.2.4,Win32,8.261663403,,,,,,,,,,,,,,,,,,,,,,,,,,,,,,,,,3,right,,,,right,1,0.9661,0,4,4,4,1,2238550049-105691.jpg,2898633421-291973.jpg,,
,,,A2NLR3S7WBULAK,48,FEMALE,7,2022-10-06_04h59.46.761,memory_pilot_most_recent,2022.2.4,Win32,8.261663403,,,,,,,,,,,,,,,,,,,,,,,,,,,,,,,,,1,right,,,,right,1,1.7467,0,5,5,5,1,2238481630-168218.jpg,2238480677-317399.jpg,,
,,,A2NLR3S7WBULAK,48,FEMALE,7,2022-10-06_04h59.46.761,memory_pilot_most_recent,2022.2.4,Win32,8.261663403,,,,,,,,,,,,,,,,,,,,,,,,,,,,,,,,,3,right,,,,right,1,1.158,0,6,6,6,1,2901951392-368654.jpg,2446759803-49249.jpg,,
,,,A2NLR3S7WBULAK,48,FEMALE,7,2022-10-06_04h59.46.761,memory_pilot_most_recent,2022.2.4,Win32,8.261663403,,,,,,,,,,,,,,,,,,,,,,,,,,,,,,,,,2,right,,,,left,0,1.4384,0,7,7,7,1,2460547536-274181.jpg,2449442529-124446.jpg,,
,,,A2NLR3S7WBULAK,48,FEMALE,7,2022-10-06_04h59.46.761,memory_pilot_most_recent,2022.2.4,Win32,8.261663403,,,,,,,,,,,,,,,,,,,,,,,,,,,,,,,,,3,right,,,,right,1,1.0734,0,8,8,8,1,2458347252-348911.jpg,2458347385-199723.jpg,,
,,,A2NLR3S7WBULAK,48,FEMALE,7,2022-10-06_04h59.46.761,memory_pilot_most_recent,2022.2.4,Win32,8.261663403,,,,,,,,,,,,,,,,,,,,,,,,,,,,,,,,,2,right,,,,right,1,1.0414,0,9,9,9,1,2238480648-19714.jpg,2874302418-65979.jpg,,
,,,A2NLR3S7WBULAK,48,FEMALE,7,2022-10-06_04h59.46.761,memory_pilot_most_recent,2022.2.4,Win32,8.261663403,,,,,,,,,,,,,,,,,,,,,,,,,,,,,,,,,3,right,,,,right,1,1.7966,0,10,10,10,1,2898625336-291572.jpg,2898635428-69104.jpg,,
,,,A2NLR3S7WBULAK,48,FEMALE,7,2022-10-06_04h59.46.761,memory_pilot_most_recent,2022.2.4,Win32,8.261663403,,,,,,,,,,,,,,,,,,,,,,,,,,,,,,,,,3,left,,,,right,0,1.4657,0,11,11,11,1,2964223381-294447.jpg,2898628438-68785.jpg,,
,,,A2NLR3S7WBULAK,48,FEMALE,7,2022-10-06_04h59.46.761,memory_pilot_most_recent,2022.2.4,Win32,8.261663403,,,,,,,,,,,,,,,,,,,,,,,,,,,,,,,,,3,left,,,,left,1,1.9222,0,12,12,12,1,2592380177-354626.jpg,2238117096-228518.jpg,,
,,,A2NLR3S7WBULAK,48,FEMALE,7,2022-10-06_04h59.46.761,memory_pilot_most_recent,2022.2.4,Win32,8.261663403,,,,,,,,,,,,,,,,,,,,,,,,,,,,,,,,,2,right,,,,right,1,1.5552,0,13,13,13,1,2901943387-368037.jpg,2898617468-68274.jpg,,
,,,A2NLR3S7WBULAK,48,FEMALE,7,2022-10-06_04h59.46.761,memory_pilot_most_recent,2022.2.4,Win32,8.261663403,,,,,,,,,,,,,,,,,,,,,,,,,,,,,,,,,3,left,,,,left,1,2.2914,0,14,14,14,1,2238572663-35822.jpg,2864903351-286874.jpg,,
,,,A2NLR3S7WBULAK,48,FEMALE,7,2022-10-06_04h59.46.761,memory_pilot_most_recent,2022.2.4,Win32,8.261663403,,,,,,,,,,,,,,,,,,,,,,,,,,,,,,,,,1,right,,,,right,1,1.2497,0,15,15,15,1,2981244394-145974.jpg,2964213381-294060.jpg,,
,,,A2NLR3S7WBULAK,48,FEMALE,7,2022-10-06_04h59.46.761,memory_pilot_most_recent,2022.2.4,Win32,8.261663403,,,,,,,,,,,,,,,,,,,,,,,,,,,,,,,,,2,right,,,,right,1,1.0779,0,16,16,16,1,2238521193-26285.jpg,2238580740-186218.jpg,,
,,,A2NLR3S7WBULAK,48,FEMALE,7,2022-10-06_04h59.46.761,memory_pilot_most_recent,2022.2.4,Win32,8.261663403,,,,,,,,,,,,,,,,,,,,,,,,,,,,,,,,,3,left,,,,left,1,1.0057,0,17,17,17,1,2449442529-124445.jpg,2898632385-217137.jpg,,
,,,A2NLR3S7WBULAK,48,FEMALE,7,2022-10-06_04h59.46.761,memory_pilot_most_recent,2022.2.4,Win32,8.261663403,,,,,,,,,,,,,,,,,,,,,,,,,,,,,,,,,3,right,,,,right,1,1.4405,0,18,18,18,1,2964217461-294238.jpg,2898634397-367080.jpg,,
,,,A2NLR3S7WBULAK,48,FEMALE,7,2022-10-06_04h59.46.761,memory_pilot_most_recent,2022.2.4,Win32,8.261663403,,,,,,,,,,,,,,,,,,,,,,,,,,,,,,,,,1,right,,,,right,1,0.9952,0,19,19,19,1,2862691449-137104.jpg,2238481198-19822.jpg,,
,,,A2NLR3S7WBULAK,48,FEMALE,7,2022-10-06_04h59.46.761,memory_pilot_most_recent,2022.2.4,Win32,8.261663403,,,,,,,,,,,,,,,,,,,,,,,,,,,,,,,,,1,right,,,,right,1,1.2634,0,20,20,20,1,2238499057-320266.jpg,2238428357-313623.jpg,,
,,,A2NLR3S7WBULAK,48,FEMALE,7,2022-10-06_04h59.46.761,memory_pilot_most_recent,2022.2.4,Win32,8.261663403,,,,,,,,,,,,,,,,,,,,,,,,,,,,,,,,,2,left,,,,right,0,1.0169,0,21,21,21,1,2868474407-362883.jpg,2981246400-220363.jpg,,
,,,A2NLR3S7WBULAK,48,FEMALE,7,2022-10-06_04h59.46.761,memory_pilot_most_recent,2022.2.4,Win32,8.261663403,,,,,,,,,,,,,,,,,,,,,,,,,,,,,,,,,2,left,,,,right,0,1.3647,0,22,22,22,1,2238481928-19949.jpg,2864900357-361688.jpg,,
,,,A2NLR3S7WBULAK,48,FEMALE,7,2022-10-06_04h59.46.761,memory_pilot_most_recent,2022.2.4,Win32,8.261663403,,,,,,,,,,,,,,,,,,,,,,,,,,,,,,,,,1,left,,,,left,1,1.0419,0,23,23,23,1,2592380177-354629.jpg,2898633421-291974.jpg,,
,,,A2NLR3S7WBULAK,48,FEMALE,7,2022-10-06_04h59.46.761,memory_pilot_most_recent,2022.2.4,Win32,8.261663403,,,,,,,,,,,,,,,,,,,,,,,,,,,,,,,,,3,right,,,,left,0,1.3304,0,24,24,24,1,2427873763-47290.jpg,2981231403-71642.jpg,,
,,,A2NLR3S7WBULAK,48,FEMALE,7,2022-10-06_04h59.46.761,memory_pilot_most_recent,2022.2.4,Win32,8.261663403,,,,,,,,,,,,,,,,,,,,,,,,,,,,,,,,,1,right,,,,right,1,1.2085,0,25,25,25,1,2592380255-205553.jpg,2238560245-182099.jpg,,
,,,A2NLR3S7WBULAK,48,FEMALE,7,2022-10-06_04h59.46.761,memory_pilot_most_recent,2022.2.4,Win32,8.261663403,,,,,,,,,,,,,,,,,,,,,,,,,,,,,,,,,2,left,,,,right,0,1.3192,0,26,26,26,1,2883268412-365898.jpg,2984615361-295510.jpg,,
,,,A2NLR3S7WBULAK,48,FEMALE,7,2022-10-06_04h59.46.761,memory_pilot_most_recent,2022.2.4,Win32,8.261663403,,,,,,,,,,,,,,,,,,,,,,,,,,,,,,,,,1,left,,,,left,1,2.0276,0,27,27,27,1,2874299429-139695.jpg,2883266388-67750.jpg,,
,,,A2NLR3S7WBULAK,48,FEMALE,7,2022-10-06_04h59.46.761,memory_pilot_most_recent,2022.2.4,Win32,8.261663403,,,,,,,,,,,,,,,,,,,,,,,,,,,,,,,,,1,left,,,,right,0,1.2056,0,28,28,28,1,2981241414-145842.jpg,2238516618-25604.jpg,,
,,,A2NLR3S7WBULAK,48,FEMALE,7,2022-10-06_04h59.46.761,memory_pilot_most_recent,2022.2.4,Win32,8.261663403,,,,,,,,,,,,,,,,,,,,,,,,,,,,,,,,,2,right,,,,right,1,1.1005,0,29,29,29,1,2981236443-71859.jpg,2898624426-291546.jpg,,
,,,A2NLR3S7WBULAK,48,FEMALE,7,2022-10-06_04h59.46.761,memory_pilot_most_recent,2022.2.4,Win32,8.261663403,,,,,,,,,,,,,,,,,,,,,,,,,,,,,,,,,1,left,,,,left,1,1.9859,0,30,30,30,1,2452381505-199546.jpg,2901938432-367627.jpg,,
,,,A2NLR3S7WBULAK,48,FEMALE,7,2022-10-06_04h59.46.761,memory_pilot_most_recent,2022.2.4,Win32,8.261663403,,,,,,,,,,,,,,,,,,,,,,,,,,,,,,,,,1,left,,,,right,0,1.1429,0,31,31,31,1,2986451363-73599.jpg,2898626385-216899.jpg,,
,,,A2NLR3S7WBULAK,48,FEMALE,7,2022-10-06_04h59.46.761,memory_pilot_most_recent,2022.2.4,Win32,8.261663403,,,,,,,,,,,,,,,,,,,,,,,,,,,,,,,,,3,right,,,,right,1,2.319,0,32,32,32,1,2981235446-294901.jpg,2460547467-349421.jpg,,
,,,A2NLR3S7WBULAK,48,FEMALE,7,2022-10-06_04h59.46.761,memory_pilot_most_recent,2022.2.4,Win32,8.261663403,,,,,,,,,,,,,,,,,,,,,,,,,,,,,,,,,2,left,,,,left,1,1.1613,0,33,33,33,1,2238425482-313537.jpg,2238436322-314047.jpg,,
,,,A2NLR3S7WBULAK,48,FEMALE,7,2022-10-06_04h59.46.761,memory_pilot_most_recent,2022.2.4,Win32,8.261663403,,,,,,,,,,,,,,,,,,,,,,,,,,,,,,,,,3,left,,,,left,1,1.2933,0,34,34,34,1,2874302418-65978.jpg,2898633321-291943.jpg,,
,,,A2NLR3S7WBULAK,48,FEMALE,7,2022-10-06_04h59.46.761,memory_pilot_most_recent,2022.2.4,Win32,8.261663403,,,,,,,,,,,,,,,,,,,,,,,,,,,,,,,,,1,left,,,,left,1,1.4792,0,35,35,35,1,2901947423-70311.jpg,2860312398-62572.jpg,,
,,,A2NLR3S7WBULAK,48,FEMALE,7,2022-10-06_04h59.46.761,memory_pilot_most_recent,2022.2.4,Win32,8.261663403,,,,,,,,,,,,,,,,,,,,,,,,,,,,,,,,,3,left,,,,left,1,1.155,0,36,36,36,1,2901952513-70703.jpg,2238481198-19821.jpg,,
,,,A2NLR3S7WBULAK,48,FEMALE,7,2022-10-06_04h59.46.761,memory_pilot_most_recent,2022.2.4,Win32,8.261663403,,,,,,,,,,,,,,,,,,,,,,,,,,,,,,,,,1,right,,,,left,0,0.9896,0,37,37,37,1,2460547467-349423.jpg,2901939379-143479.jpg,,
,,,A2NLR3S7WBULAK,48,FEMALE,7,2022-10-06_04h59.46.761,memory_pilot_most_recent,2022.2.4,Win32,8.261663403,,,,,,,,,,,,,,,,,,,,,,,,,,,,,,,,,1,left,,,,left,1,0.9733,0,38,38,38,1,2964222378-71332.jpg,2981240424-145794.jpg,,
,,,A2NLR3S7WBULAK,48,FEMALE,7,2022-10-06_04h59.46.761,memory_pilot_most_recent,2022.2.4,Win32,8.261663403,,,,,,,,,,,,,,,,,,,,,,,,,,,,,,,,,1,right,,,,right,1,1.4191,0,39,39,39,1,2575963989-130576.jpg,2592379964-131054.jpg,,
,,,A2NLR3S7WBULAK,48,FEMALE,7,2022-10-06_04h59.46.761,memory_pilot_most_recent,2022.2.4,Win32,8.261663403,,,,,,,,,,,,,,,,,,,,,,,,,,,,,,,,,1,right,,,,left,0,1.5491,0,40,40,40,1,2964221435-219434.jpg,2898635427-367120.jpg,,
,,,A2NLR3S7WBULAK,48,FEMALE,7,2022-10-06_04h59.46.761,memory_pilot_most_recent,2022.2.4,Win32,8.261663403,,,,,,,,,,,,,,,,,,,,,,,,,,,,,,,,,2,left,,,,right,0,1.0334,0,41,41,41,1,2874303365-214262.jpg,2238563377-332054.jpg,,
,,,A2NLR3S7WBULAK,48,FEMALE,7,2022-10-06_04h59.46.761,memory_pilot_most_recent,2022.2.4,Win32,8.261663403,,,,,,,,,,,,,,,,,,,,,,,,,,,,,,,,,3,right,,,,right,1,1.339,0,42,42,42,1,2898631468-68931.jpg,2901941401-292798.jpg,,
,,,A2NLR3S7WBULAK,48,FEMALE,7,2022-10-06_04h59.46.761,memory_pilot_most_recent,2022.2.4,Win32,8.261663403,,,,,,,,,,,,,,,,,,,,,,,,,,,,,,,,,1,left,,,,right,0,1.1513,0,43,43,43,1,2883273443-68193.jpg,2883254439-140940.jpg,,
,,,A2NLR3S7WBULAK,48,FEMALE,7,2022-10-06_04h59.46.761,memory_pilot_most_recent,2022.2.4,Win32,8.261663403,,,,,,,,,,,,,,,,,,,,,,,,,,,,,,,,,2,left,,,,right,0,1.0935,0,44,44,44,1,2874301407-363895.jpg,2986397322-371109.jpg,,
,,,A2NLR3S7WBULAK,48,FEMALE,7,2022-10-06_04h59.46.761,memory_pilot_most_recent,2022.2.4,Win32,8.261663403,,,,,,,,,,,,,,,,,,,,,,,,,,,,,,,,,2,left,,,,right,0,1.6686,0,45,45,45,1,2898618444-142233.jpg,2238555262-330312.jpg,,
,,,A2NLR3S7WBULAK,48,FEMALE,7,2022-10-06_04h59.46.761,memory_pilot_most_recent,2022.2.4,Win32,8.261663403,,,,,,,,,,,,,,,,,,,,,,,,,,,,,,,,,3,left,,,,left,1,0.8224,0,46,46,46,1,2964216465-219242.jpg,2898619327-366362.jpg,,
,,,A2NLR3S7WBULAK,48,FEMALE,7,2022-10-06_04h59.46.761,memory_pilot_most_recent,2022.2.4,Win32,8.261663403,,,,,,,,,,,,,,,,,,,,,,,,,,,,,,,,,2,left,,,,right,0,1.3432,0,47,47,47,1,2452380832-348593.jpg,2238481813-19930.jpg,,
,,,A2NLR3S7WBULAK,48,FEMALE,7,2022-10-06_04h59.46.761,memory_pilot_most_recent,2022.2.4,Win32,8.261663403,,,,,,,,,,,,,,,,,,,,,,,,,,,,,,,,,3,right,,,,left,0,1.2202,0,48,48,48,1,2868474407-362885.jpg,2868475410-213219.jpg,,
,,,A2NLR3S7WBULAK,48,FEMALE,7,2022-10-06_04h59.46.761,memory_pilot_most_recent,2022.2.4,Win32,8.261663403,,,,,,,,,,,,,,,,,,,,,,,,,,,,,,,,,2,left,,,,left,1,1.3738,0,49,49,49,1,2874299429-139694.jpg,2981244403-72215.jpg,,
,,,A2NLR3S7WBULAK,48,FEMALE,7,2022-10-06_04h59.46.761,memory_pilot_most_recent,2022.2.4,Win32,8.261663403,,,,,,,,,,,,,,,,,,,,,,,,,,,,,,,,,3,right,,,,right,1,1.6176,0,50,50,50,1,2864909447-362146.jpg,2460547467-349422.jpg,,
,,,A2NLR3S7WBULAK,48,FEMALE,7,2022-10-06_04h59.46.761,memory_pilot_most_recent,2022.2.4,Win32,8.261663403,,,,,,,,,,,,,,,,,,,,,,,,,,,,,,,,,3,left,,,,left,1,1.0042,0,51,51,51,1,2575120738-55529.jpg,2238531493-28260.jpg,,
,,,A2NLR3S7WBULAK,48,FEMALE,7,2022-10-06_04h59.46.761,memory_pilot_most_recent,2022.2.4,Win32,8.261663403,,,,,,,,,,,,,,,,,,,,,,,,,,,,,,,,,3,right,,,,left,0,1.0177,0,52,52,52,1,2864904453-63933.jpg,2883256307-365057.jpg,,
,,,A2NLR3S7WBULAK,48,FEMALE,7,2022-10-06_04h59.46.761,memory_pilot_most_recent,2022.2.4,Win32,8.261663403,,,,,,,,,,,,,,,,,,,,,,,,,,,,,,,,,1,right,,,,left,0,1.4304,0,53,53,53,1,2864901420-212147.jpg,2864907432-362042.jpg,,
,,,A2NLR3S7WBULAK,48,FEMALE,7,2022-10-06_04h59.46.761,memory_pilot_most_recent,2022.2.4,Win32,8.261663403,,,,,,,,,,,,,,,,,,,,,,,,,,,,,,,,,1,left,,,,right,0,0.2094,0,54,54,54,1,2512875899-126682.jpg,2460547536-274179.jpg,,
,,,A2NLR3S7WBULAK,48,FEMALE,7,2022-10-06_04h59.46.761,memory_pilot_most_recent,2022.2.4,Win32,8.261663403,,,,,,,,,,,,,,,,,,,,,,,,,,,,,,,,,1,right,,,,right,1,1.7952,0,55,55,55,1,2883268471-290843.jpg,2883268471-290842.jpg,,
,,,A2NLR3S7WBULAK,48,FEMALE,7,2022-10-06_04h59.46.761,memory_pilot_most_recent,2022.2.4,Win32,8.261663403,,,,,,,,,,,,,,,,,,,,,,,,,,,,,,,,,1,right,,,,right,1,1.3114,0,56,56,56,1,2864902304-137862.jpg,2864910426-287204.jpg,,
,,,A2NLR3S7WBULAK,48,FEMALE,7,2022-10-06_04h59.46.761,memory_pilot_most_recent,2022.2.4,Win32,8.261663403,,,,,,,,,,,,,,,,,,,,,,,,,,,,,,,,,2,right,,,,left,0,1.0146,0,57,57,57,1,2901939327-367670.jpg,2898618390-216538.jpg,,
,,,A2NLR3S7WBULAK,48,FEMALE,7,2022-10-06_04h59.46.761,memory_pilot_most_recent,2022.2.4,Win32,8.261663403,,,,,,,,,,,,,,,,,,,,,,,,,,,,,,,,,2,left,,,,left,1,1.8562,0,58,58,58,1,2446758985-197609.jpg,2864909447-362144.jpg,,
,,,A2NLR3S7WBULAK,48,FEMALE,7,2022-10-06_04h59.46.761,memory_pilot_most_recent,2022.2.4,Win32,8.261663403,,,,,,,,,,,,,,,,,,,,,,,,,,,,,,,,,2,left,,,,right,0,2.1273,0,59,59,59,1,2874307433-66280.jpg,2981246400-220365.jpg,,
,,,A2NLR3S7WBULAK,48,FEMALE,7,2022-10-06_04h59.46.761,memory_pilot_most_recent,2022.2.4,Win32,8.261663403,,,,,,,,,,,,,,,,,,,,,,,,,,,,,,,,,,,,,,,,,,,,,,,,space,42.158
