button.numClicks,button.timesOn,button.timesOff,workID,Age,Gender,Hours slept (last night),date,expName,psychopyVersion,OS,frameRate,space_key_responce.keys,space_key_responce.rt,demo_encoding_response.keys,demo_encoding_response.corr,demo_encoding_loop.thisRepN,demo_encoding_loop.thisTrialN,demo_encoding_loop.thisN,demo_encoding_loop.thisIndex,demo_encoding_loop.ran,DemoImage,DemoCorrect,demo_encoding_response.rt,demo_test_response.keys,demo_test_response.corr,demo_test_response.rt,demo_test_loop.thisRepN,demo_test_loop.thisTrialN,demo_test_loop.thisN,demo_test_loop.thisIndex,demo_test_loop.ran,DemoImage1,DemoImage2,DemoCorrectTest,test_encoding_response.keys,test_encoding_response.corr,trials.thisRepN,trials.thisTrialN,trials.thisN,trials.thisIndex,trials.ran,target_image,pair,layer,correct,test_encoding_response.rt,key_resp_end.keys,key_resp_end.rt,test_test_response.keys,test_test_response.corr,test_test_response.rt,trials_2.thisRepN,trials_2.thisTrialN,trials_2.thisN,trials_2.thisIndex,trials_2.ran,image1,image2,key_resp_end_2.keys,key_resp_end_2.rt
1,[4.007799999952319],[4.007900000095368],A3MC0GSXYQ2P7A,39,Male,8,2022-10-06_03h37.53.421,memory_pilot_most_recent,2022.2.4,Win32,9.120842036,,,,,,,,,,,,,,,,,,,,,,,,,,,,,,,,,,,,,,,,,,,,,,,,,
,,,A3MC0GSXYQ2P7A,39,Male,8,2022-10-06_03h37.53.421,memory_pilot_most_recent,2022.2.4,Win32,9.120842036,,,,,,,,,,,,,,,,,,,,,,,,,,,,,,,,,,,,,,,,,,,,,,,,,
,,,A3MC0GSXYQ2P7A,39,Male,8,2022-10-06_03h37.53.421,memory_pilot_most_recent,2022.2.4,Win32,9.120842036,space,5.2975,,,,,,,,,,,,,,,,,,,,,,,,,,,,,,,,,,,,,,,,,,,,,,,
,,,A3MC0GSXYQ2P7A,39,Male,8,2022-10-06_03h37.53.421,memory_pilot_most_recent,2022.2.4,Win32,9.120842036,,,,,,,,,,,,,,,,,,,,,,,,,,,,,,,,,,,,,,,,,,,,,,,,,
,,,A3MC0GSXYQ2P7A,39,Male,8,2022-10-06_03h37.53.421,memory_pilot_most_recent,2022.2.4,Win32,9.120842036,,,,1,0,0,0,0,1,flower1.jpg,,,,,,,,,,,,,,,,,,,,,,,,,,,,,,,,,,,,,,,
,,,A3MC0GSXYQ2P7A,39,Male,8,2022-10-06_03h37.53.421,memory_pilot_most_recent,2022.2.4,Win32,9.120842036,,,,1,0,1,1,1,1,flower2.jpg,,,,,,,,,,,,,,,,,,,,,,,,,,,,,,,,,,,,,,,
,,,A3MC0GSXYQ2P7A,39,Male,8,2022-10-06_03h37.53.421,memory_pilot_most_recent,2022.2.4,Win32,9.120842036,,,left,1,0,2,2,2,1,left.jpg,left,2.05,,,,,,,,,,,,,,,,,,,,,,,,,,,,,,,,,,,,,
,,,A3MC0GSXYQ2P7A,39,Male,8,2022-10-06_03h37.53.421,memory_pilot_most_recent,2022.2.4,Win32,9.120842036,,,,1,0,3,3,3,1,flower3.jpg,,,,,,,,,,,,,,,,,,,,,,,,,,,,,,,,,,,,,,,
,,,A3MC0GSXYQ2P7A,39,Male,8,2022-10-06_03h37.53.421,memory_pilot_most_recent,2022.2.4,Win32,9.120842036,,,,1,0,4,4,4,1,flower4.jpg,,,,,,,,,,,,,,,,,,,,,,,,,,,,,,,,,,,,,,,
,,,A3MC0GSXYQ2P7A,39,Male,8,2022-10-06_03h37.53.421,memory_pilot_most_recent,2022.2.4,Win32,9.120842036,,,,1,0,5,5,5,1,flower5.jpg,,,,,,,,,,,,,,,,,,,,,,,,,,,,,,,,,,,,,,,
,,,A3MC0GSXYQ2P7A,39,Male,8,2022-10-06_03h37.53.421,memory_pilot_most_recent,2022.2.4,Win32,9.120842036,,,,1,0,6,6,6,1,flower6.jpg,,,,,,,,,,,,,,,,,,,,,,,,,,,,,,,,,,,,,,,
,,,A3MC0GSXYQ2P7A,39,Male,8,2022-10-06_03h37.53.421,memory_pilot_most_recent,2022.2.4,Win32,9.120842036,,,,,,,,,,,,,,,,,,,,,,,,,,,,,,,,,,,,,,,,,,,,,,,,,
,,,A3MC0GSXYQ2P7A,39,Male,8,2022-10-06_03h37.53.421,memory_pilot_most_recent,2022.2.4,Win32,9.120842036,,,,,,,,,,,,,left,1,4.3174,0,0,0,0,1,flower1.jpg,flower1_pair.jpg,left,,,,,,,,,,,,,,,,,,,,,,,,,,
,,,A3MC0GSXYQ2P7A,39,Male,8,2022-10-06_03h37.53.421,memory_pilot_most_recent,2022.2.4,Win32,9.120842036,,,,,,,,,,,,,left,0,8.1065,0,1,1,1,1,flower2_pair.jpg,flower2.jpg,right,,,,,,,,,,,,,,,,,,,,,,,,,,
,,,A3MC0GSXYQ2P7A,39,Male,8,2022-10-06_03h37.53.421,memory_pilot_most_recent,2022.2.4,Win32,9.120842036,,,,,,,,,,,,,left,1,2.761,0,2,2,2,1,flower3.jpg,flower3_pair.jpg,left,,,,,,,,,,,,,,,,,,,,,,,,,,
,,,A3MC0GSXYQ2P7A,39,Male,8,2022-10-06_03h37.53.421,memory_pilot_most_recent,2022.2.4,Win32,9.120842036,,,,,,,,,,,,,left,1,4.1337,0,3,3,3,1,flower4.jpg,flower4_pair.jpg,left,,,,,,,,,,,,,,,,,,,,,,,,,,
,,,A3MC0GSXYQ2P7A,39,Male,8,2022-10-06_03h37.53.421,memory_pilot_most_recent,2022.2.4,Win32,9.120842036,,,,,,,,,,,,,right,1,3.0284,0,4,4,4,1,flower5_pair.jpg,flower5.jpg,right,,,,,,,,,,,,,,,,,,,,,,,,,,
,,,A3MC0GSXYQ2P7A,39,Male,8,2022-10-06_03h37.53.421,memory_pilot_most_recent,2022.2.4,Win32,9.120842036,,,,,,,,,,,,,right,0,4.6879,0,5,5,5,1,flower6.jpg,flower6_pair.jpg,left,,,,,,,,,,,,,,,,,,,,,,,,,,
,,,A3MC0GSXYQ2P7A,39,Male,8,2022-10-06_03h37.53.421,memory_pilot_most_recent,2022.2.4,Win32,9.120842036,,,,,,,,,,,,,,,,,,,,,,,,,,,,,,,,,,,,,,,,,,,,,,,,,
,,,A3MC0GSXYQ2P7A,39,Male,8,2022-10-06_03h37.53.421,memory_pilot_most_recent,2022.2.4,Win32,9.120842036,space,1.7229,,,,,,,,,,,,,,,,,,,,,,,,,,,,,,,,,,,,,,,,,,,,,,,
,,,A3MC0GSXYQ2P7A,39,Male,8,2022-10-06_03h37.53.421,memory_pilot_most_recent,2022.2.4,Win32,9.120842036,,,,,,,,,,,,,,,,,,,,,,,,,1,0,0,0,0,1,2868474407-362883.jpg,2901948383-70363.jpg,3,,,,,,,,,,,,,,,,
,,,A3MC0GSXYQ2P7A,39,Male,8,2022-10-06_03h37.53.421,memory_pilot_most_recent,2022.2.4,Win32,9.120842036,,,,,,,,,,,,,,,,,,,,,,,,,1,0,1,1,1,1,2238428357-313623.jpg,2986408339-146952.jpg,3,,,,,,,,,,,,,,,,
,,,A3MC0GSXYQ2P7A,39,Male,8,2022-10-06_03h37.53.421,memory_pilot_most_recent,2022.2.4,Win32,9.120842036,,,,,,,,,,,,,,,,,,,,,,,,,1,0,2,2,2,1,2986451363-73599.jpg,2898626385-216899.jpg,1,,,,,,,,,,,,,,,,
,,,A3MC0GSXYQ2P7A,39,Male,8,2022-10-06_03h37.53.421,memory_pilot_most_recent,2022.2.4,Win32,9.120842036,,,,,,,,,,,,,,,,,,,,,,,,,1,0,3,3,3,1,2898635428-69104.jpg,2901943411-292945.jpg,2,,,,,,,,,,,,,,,,
,,,A3MC0GSXYQ2P7A,39,Male,8,2022-10-06_03h37.53.421,memory_pilot_most_recent,2022.2.4,Win32,9.120842036,,,,,,,,,,,,,,,,,,,,,,,,,1,0,4,4,4,1,2901952513-70703.jpg,2868469411-287540.jpg,2,,,,,,,,,,,,,,,,
,,,A3MC0GSXYQ2P7A,39,Male,8,2022-10-06_03h37.53.421,memory_pilot_most_recent,2022.2.4,Win32,9.120842036,,,,,,,,,,,,,,,,,,,,,,,,,1,0,5,5,5,1,2512875899-126682.jpg,2460547536-274179.jpg,1,,,,,,,,,,,,,,,,
,,,A3MC0GSXYQ2P7A,39,Male,8,2022-10-06_03h37.53.421,memory_pilot_most_recent,2022.2.4,Win32,9.120842036,,,,,,,,,,,,,,,,,,,,,,,,,1,0,6,6,6,1,2449442529-124445.jpg,2986408373-73286.jpg,2,,,,,,,,,,,,,,,,
,,,A3MC0GSXYQ2P7A,39,Male,8,2022-10-06_03h37.53.421,memory_pilot_most_recent,2022.2.4,Win32,9.120842036,,,,,,,,,,,,,,,,,,,,,,,,,1,0,7,7,7,1,2874302418-65978.jpg,2898633321-291943.jpg,3,,,,,,,,,,,,,,,,
,,,A3MC0GSXYQ2P7A,39,Male,8,2022-10-06_03h37.53.421,memory_pilot_most_recent,2022.2.4,Win32,9.120842036,,,,,,,,,,,,,,,,,,,,,,,,,1,0,8,8,8,1,2458347385-199723.jpg,2238480434-93829.jpg,1,,,,,,,,,,,,,,,,
,,,A3MC0GSXYQ2P7A,39,Male,8,2022-10-06_03h37.53.421,memory_pilot_most_recent,2022.2.4,Win32,9.120842036,,,,,,,,,,,,,,,,,,,,,,,,,1,0,9,9,9,1,2238572663-35822.jpg,2864903351-286874.jpg,3,,,,,,,,,,,,,,,,
,,,A3MC0GSXYQ2P7A,39,Male,8,2022-10-06_03h37.53.421,memory_pilot_most_recent,2022.2.4,Win32,9.120842036,,,,,,,,,,,,,,,,,,,,,,,,,1,0,10,10,10,1,2460547508-51571.jpg,2452380166-273109.jpg,1,,,,,,,,,,,,,,,,
,,,A3MC0GSXYQ2P7A,39,Male,8,2022-10-06_03h37.53.421,memory_pilot_most_recent,2022.2.4,Win32,9.120842036,,,,,,,,,,,,,,,,,,,,,,,,,1,0,11,11,11,1,2460547467-349422.jpg,2868487415-213924.jpg,2,,,,,,,,,,,,,,,,
,,,A3MC0GSXYQ2P7A,39,Male,8,2022-10-06_03h37.53.421,memory_pilot_most_recent,2022.2.4,Win32,9.120842036,,,,,,,,,,,,,,,,,,,,,,,,,1,0,12,12,12,1,2868475410-213219.jpg,2868474407-362885.jpg,3,,,,,,,,,,,,,,,,
,,,A3MC0GSXYQ2P7A,39,Male,8,2022-10-06_03h37.53.421,memory_pilot_most_recent,2022.2.4,Win32,9.120842036,,,,,,,,,,,,,,,,,,,,,,,,,1,0,13,13,13,1,2883268471-290842.jpg,2883255450-215310.jpg,2,,,,,,,,,,,,,,,,
,,,A3MC0GSXYQ2P7A,39,Male,8,2022-10-06_03h37.53.421,memory_pilot_most_recent,2022.2.4,Win32,9.120842036,,,,,,,,,,,,,,,,,,,,,,,,,0,0,14,14,14,1,right.jpg,,,right,,,,,,,,,,,,,,,
,,,A3MC0GSXYQ2P7A,39,Male,8,2022-10-06_03h37.53.421,memory_pilot_most_recent,2022.2.4,Win32,9.120842036,,,,,,,,,,,,,,,,,,,,,,,,,1,0,15,15,15,1,2883268412-365898.jpg,2984615361-295510.jpg,2,,,,,,,,,,,,,,,,
,,,A3MC0GSXYQ2P7A,39,Male,8,2022-10-06_03h37.53.421,memory_pilot_most_recent,2022.2.4,Win32,9.120842036,,,,,,,,,,,,,,,,,,,,,,,,,1,0,16,16,16,1,2874303365-214262.jpg,2274829821-263682.jpg,1,,,,,,,,,,,,,,,,
,,,A3MC0GSXYQ2P7A,39,Male,8,2022-10-06_03h37.53.421,memory_pilot_most_recent,2022.2.4,Win32,9.120842036,,,,,,,,,,,,,,,,,,,,,,,,left,1,0,17,17,17,1,left.jpg,,,left,1.9786,,,,,,,,,,,,,,
,,,A3MC0GSXYQ2P7A,39,Male,8,2022-10-06_03h37.53.421,memory_pilot_most_recent,2022.2.4,Win32,9.120842036,,,,,,,,,,,,,,,,,,,,,,,,,1,0,18,18,18,1,2238560245-182099.jpg,2874314526-289684.jpg,2,,,,,,,,,,,,,,,,
,,,A3MC0GSXYQ2P7A,39,Male,8,2022-10-06_03h37.53.421,memory_pilot_most_recent,2022.2.4,Win32,9.120842036,,,,,,,,,,,,,,,,,,,,,,,,,1,0,19,19,19,1,2901941401-292798.jpg,2898618327-366317.jpg,1,,,,,,,,,,,,,,,,
,,,A3MC0GSXYQ2P7A,39,Male,8,2022-10-06_03h37.53.421,memory_pilot_most_recent,2022.2.4,Win32,9.120842036,,,,,,,,,,,,,,,,,,,,,,,,,1,0,20,20,20,1,2986451363-73598.jpg,2901942443-69925.jpg,3,,,,,,,,,,,,,,,,
,,,A3MC0GSXYQ2P7A,39,Male,8,2022-10-06_03h37.53.421,memory_pilot_most_recent,2022.2.4,Win32,9.120842036,,,,,,,,,,,,,,,,,,,,,,,,,1,0,21,21,21,1,2981231403-71642.jpg,2579432519-130698.jpg,1,,,,,,,,,,,,,,,,
,,,A3MC0GSXYQ2P7A,39,Male,8,2022-10-06_03h37.53.421,memory_pilot_most_recent,2022.2.4,Win32,9.120842036,,,,,,,,,,,,,,,,,,,,,,,,,1,0,22,22,22,1,2452381505-199546.jpg,2898632385-217138.jpg,2,,,,,,,,,,,,,,,,
,,,A3MC0GSXYQ2P7A,39,Male,8,2022-10-06_03h37.53.421,memory_pilot_most_recent,2022.2.4,Win32,9.120842036,,,,,,,,,,,,,,,,,,,,,,,,,1,0,23,23,23,1,2964218374-144967.jpg,2981231446-294732.jpg,3,,,,,,,,,,,,,,,,
,,,A3MC0GSXYQ2P7A,39,Male,8,2022-10-06_03h37.53.421,memory_pilot_most_recent,2022.2.4,Win32,9.120842036,,,,,,,,,,,,,,,,,,,,,,,,,1,0,24,24,24,1,2883256307-365057.jpg,2864904453-63933.jpg,3,,,,,,,,,,,,,,,,
,,,A3MC0GSXYQ2P7A,39,Male,8,2022-10-06_03h37.53.421,memory_pilot_most_recent,2022.2.4,Win32,9.120842036,,,,,,,,,,,,,,,,,,,,,,,,,1,0,25,25,25,1,2874299429-139695.jpg,2901942443-69923.jpg,2,,,,,,,,,,,,,,,,
,,,A3MC0GSXYQ2P7A,39,Male,8,2022-10-06_03h37.53.421,memory_pilot_most_recent,2022.2.4,Win32,9.120842036,,,,,,,,,,,,,,,,,,,,,,,,,1,0,26,26,26,1,2901939379-143479.jpg,2460547467-349423.jpg,1,,,,,,,,,,,,,,,,
,,,A3MC0GSXYQ2P7A,39,Male,8,2022-10-06_03h37.53.421,memory_pilot_most_recent,2022.2.4,Win32,9.120842036,,,,,,,,,,,,,,,,,,,,,,,,,1,0,27,27,27,1,2238580740-186218.jpg,2238550816-254000.jpg,1,,,,,,,,,,,,,,,,
,,,A3MC0GSXYQ2P7A,39,Male,8,2022-10-06_03h37.53.421,memory_pilot_most_recent,2022.2.4,Win32,9.120842036,,,,,,,,,,,,,,,,,,,,,,,,,1,0,28,28,28,1,2964223381-294447.jpg,2898628438-68785.jpg,3,,,,,,,,,,,,,,,,
,,,A3MC0GSXYQ2P7A,39,Male,8,2022-10-06_03h37.53.421,memory_pilot_most_recent,2022.2.4,Win32,9.120842036,,,,,,,,,,,,,,,,,,,,,,,,,1,0,29,29,29,1,2874299429-139694.jpg,2981244403-72215.jpg,2,,,,,,,,,,,,,,,,
,,,A3MC0GSXYQ2P7A,39,Male,8,2022-10-06_03h37.53.421,memory_pilot_most_recent,2022.2.4,Win32,9.120842036,,,,,,,,,,,,,,,,,,,,,,,,left,1,0,30,30,30,1,left.jpg,,,left,1.9186,,,,,,,,,,,,,,
,,,A3MC0GSXYQ2P7A,39,Male,8,2022-10-06_03h37.53.421,memory_pilot_most_recent,2022.2.4,Win32,9.120842036,,,,,,,,,,,,,,,,,,,,,,,,,1,0,31,31,31,1,2898618390-216538.jpg,2901939327-367670.jpg,2,,,,,,,,,,,,,,,,
,,,A3MC0GSXYQ2P7A,39,Male,8,2022-10-06_03h37.53.421,memory_pilot_most_recent,2022.2.4,Win32,9.120842036,,,,,,,,,,,,,,,,,,,,,,,,,1,0,32,32,32,1,2592379964-131054.jpg,2238479053-19457.jpg,2,,,,,,,,,,,,,,,,
,,,A3MC0GSXYQ2P7A,39,Male,8,2022-10-06_03h37.53.421,memory_pilot_most_recent,2022.2.4,Win32,9.120842036,,,,,,,,,,,,,,,,,,,,,,,,,1,0,33,33,33,1,2592380177-354629.jpg,2512875587-350044.jpg,3,,,,,,,,,,,,,,,,
,,,A3MC0GSXYQ2P7A,39,Male,8,2022-10-06_03h37.53.421,memory_pilot_most_recent,2022.2.4,Win32,9.120842036,,,,,,,,,,,,,,,,,,,,,,,,,1,0,34,34,34,1,2898618444-142233.jpg,2898618444-142232.jpg,3,,,,,,,,,,,,,,,,
,,,A3MC0GSXYQ2P7A,39,Male,8,2022-10-06_03h37.53.421,memory_pilot_most_recent,2022.2.4,Win32,9.120842036,,,,,,,,,,,,,,,,,,,,,,,,,1,0,35,35,35,1,2446759803-49249.jpg,2446760601-272099.jpg,1,,,,,,,,,,,,,,,,
,,,A3MC0GSXYQ2P7A,39,Male,8,2022-10-06_03h37.53.421,memory_pilot_most_recent,2022.2.4,Win32,9.120842036,,,,,,,,,,,,,,,,,,,,,,,,,1,0,36,36,36,1,2898624426-291546.jpg,2981236443-71859.jpg,2,,,,,,,,,,,,,,,,
,,,A3MC0GSXYQ2P7A,39,Male,8,2022-10-06_03h37.53.421,memory_pilot_most_recent,2022.2.4,Win32,9.120842036,,,,,,,,,,,,,,,,,,,,,,,,right,1,0,37,37,37,1,right.jpg,,,right,2.3109,,,,,,,,,,,,,,
,,,A3MC0GSXYQ2P7A,39,Male,8,2022-10-06_03h37.53.421,memory_pilot_most_recent,2022.2.4,Win32,9.120842036,,,,,,,,,,,,,,,,,,,,,,,,,1,0,38,38,38,1,2238481198-19822.jpg,2901946436-293242.jpg,2,,,,,,,,,,,,,,,,
,,,A3MC0GSXYQ2P7A,39,Male,8,2022-10-06_03h37.53.421,memory_pilot_most_recent,2022.2.4,Win32,9.120842036,,,,,,,,,,,,,,,,,,,,,,,,,1,0,39,39,39,1,2883273443-68193.jpg,2460547508-51572.jpg,2,,,,,,,,,,,,,,,,
,,,A3MC0GSXYQ2P7A,39,Male,8,2022-10-06_03h37.53.421,memory_pilot_most_recent,2022.2.4,Win32,9.120842036,,,,,,,,,,,,,,,,,,,,,,,,,1,0,40,40,40,1,2460547467-349421.jpg,2898631394-142727.jpg,1,,,,,,,,,,,,,,,,
,,,A3MC0GSXYQ2P7A,39,Male,8,2022-10-06_03h37.53.421,memory_pilot_most_recent,2022.2.4,Win32,9.120842036,,,,,,,,,,,,,,,,,,,,,,,,,1,0,41,41,41,1,2864910426-287204.jpg,2864902304-137862.jpg,1,,,,,,,,,,,,,,,,
,,,A3MC0GSXYQ2P7A,39,Male,8,2022-10-06_03h37.53.421,memory_pilot_most_recent,2022.2.4,Win32,9.120842036,,,,,,,,,,,,,,,,,,,,,,,,,1,0,42,42,42,1,2575120738-55529.jpg,2575120738-55528.jpg,2,,,,,,,,,,,,,,,,
,,,A3MC0GSXYQ2P7A,39,Male,8,2022-10-06_03h37.53.421,memory_pilot_most_recent,2022.2.4,Win32,9.120842036,,,,,,,,,,,,,,,,,,,,,,,,,1,0,43,43,43,1,2964216465-219242.jpg,2238544191-252422.jpg,1,,,,,,,,,,,,,,,,
,,,A3MC0GSXYQ2P7A,39,Male,8,2022-10-06_03h37.53.421,memory_pilot_most_recent,2022.2.4,Win32,9.120842036,,,,,,,,,,,,,,,,,,,,,,,,,1,0,44,44,44,1,2964213381-294060.jpg,2981244394-145974.jpg,1,,,,,,,,,,,,,,,,
,,,A3MC0GSXYQ2P7A,39,Male,8,2022-10-06_03h37.53.421,memory_pilot_most_recent,2022.2.4,Win32,9.120842036,,,,,,,,,,,,,,,,,,,,,,,,,1,0,45,45,45,1,2864907432-362042.jpg,2864901420-212147.jpg,1,,,,,,,,,,,,,,,,
,,,A3MC0GSXYQ2P7A,39,Male,8,2022-10-06_03h37.53.421,memory_pilot_most_recent,2022.2.4,Win32,9.120842036,,,,,,,,,,,,,,,,,,,,,,,,,1,0,46,46,46,1,2981241414-145842.jpg,2427873848-47312.jpg,3,,,,,,,,,,,,,,,,
,,,A3MC0GSXYQ2P7A,39,Male,8,2022-10-06_03h37.53.421,memory_pilot_most_recent,2022.2.4,Win32,9.120842036,,,,,,,,,,,,,,,,,,,,,,,,,1,0,47,47,47,1,2898617468-68274.jpg,2901943387-368037.jpg,2,,,,,,,,,,,,,,,,
,,,A3MC0GSXYQ2P7A,39,Male,8,2022-10-06_03h37.53.421,memory_pilot_most_recent,2022.2.4,Win32,9.120842036,,,,,,,,,,,,,,,,,,,,,,,,,1,0,48,48,48,1,2238480677-317399.jpg,2238480278-19661.jpg,3,,,,,,,,,,,,,,,,
,,,A3MC0GSXYQ2P7A,39,Male,8,2022-10-06_03h37.53.421,memory_pilot_most_recent,2022.2.4,Win32,9.120842036,,,,,,,,,,,,,,,,,,,,,,,,,1,0,49,49,49,1,2898633421-291973.jpg,2512876023-52283.jpg,1,,,,,,,,,,,,,,,,
,,,A3MC0GSXYQ2P7A,39,Male,8,2022-10-06_03h37.53.421,memory_pilot_most_recent,2022.2.4,Win32,9.120842036,,,,,,,,,,,,,,,,,,,,,,,,,1,0,50,50,50,1,2238481928-19949.jpg,2864900357-361688.jpg,2,,,,,,,,,,,,,,,,
,,,A3MC0GSXYQ2P7A,39,Male,8,2022-10-06_03h37.53.421,memory_pilot_most_recent,2022.2.4,Win32,9.120842036,,,,,,,,,,,,,,,,,,,,,,,,,0,0,51,51,51,1,right.jpg,,,right,,,,,,,,,,,,,,,
,,,A3MC0GSXYQ2P7A,39,Male,8,2022-10-06_03h37.53.421,memory_pilot_most_recent,2022.2.4,Win32,9.120842036,,,,,,,,,,,,,,,,,,,,,,,,,1,0,52,52,52,1,2964222378-71332.jpg,2981240427-370099.jpg,3,,,,,,,,,,,,,,,,
,,,A3MC0GSXYQ2P7A,39,Male,8,2022-10-06_03h37.53.421,memory_pilot_most_recent,2022.2.4,Win32,9.120842036,,,,,,,,,,,,,,,,,,,,,,,,,1,0,53,53,53,1,2898634397-367080.jpg,2964217461-294238.jpg,3,,,,,,,,,,,,,,,,
,,,A3MC0GSXYQ2P7A,39,Male,8,2022-10-06_03h37.53.421,memory_pilot_most_recent,2022.2.4,Win32,9.120842036,,,,,,,,,,,,,,,,,,,,,,,,,1,0,54,54,54,1,2874301407-363895.jpg,2901947323-70275.jpg,3,,,,,,,,,,,,,,,,
,,,A3MC0GSXYQ2P7A,39,Male,8,2022-10-06_03h37.53.421,memory_pilot_most_recent,2022.2.4,Win32,9.120842036,,,,,,,,,,,,,,,,,,,,,,,,,1,0,55,55,55,1,2898635427-367120.jpg,2868479517-363220.jpg,2,,,,,,,,,,,,,,,,
,,,A3MC0GSXYQ2P7A,39,Male,8,2022-10-06_03h37.53.421,memory_pilot_most_recent,2022.2.4,Win32,9.120842036,,,,,,,,,,,,,,,,,,,,,,,,,1,0,56,56,56,1,2452380832-348593.jpg,2237858942-299356.jpg,3,,,,,,,,,,,,,,,,
,,,A3MC0GSXYQ2P7A,39,Male,8,2022-10-06_03h37.53.421,memory_pilot_most_recent,2022.2.4,Win32,9.120842036,,,,,,,,,,,,,,,,,,,,,,,,,1,0,57,57,57,1,2592380177-354626.jpg,2238576792-334659.jpg,1,,,,,,,,,,,,,,,,
,,,A3MC0GSXYQ2P7A,39,Male,8,2022-10-06_03h37.53.421,memory_pilot_most_recent,2022.2.4,Win32,9.120842036,,,,,,,,,,,,,,,,,,,,,,,,,1,0,58,58,58,1,2901939379-143480.jpg,2898632385-217139.jpg,3,,,,,,,,,,,,,,,,
,,,A3MC0GSXYQ2P7A,39,Male,8,2022-10-06_03h37.53.421,memory_pilot_most_recent,2022.2.4,Win32,9.120842036,,,,,,,,,,,,,,,,,,,,,,,,,1,0,59,59,59,1,2874307433-66280.jpg,2984615358-72439.jpg,1,,,,,,,,,,,,,,,,
,,,A3MC0GSXYQ2P7A,39,Male,8,2022-10-06_03h37.53.421,memory_pilot_most_recent,2022.2.4,Win32,9.120842036,,,,,,,,,,,,,,,,,,,,,,,,,1,0,60,60,60,1,2874302418-65979.jpg,2237857458-1325.jpg,1,,,,,,,,,,,,,,,,
,,,A3MC0GSXYQ2P7A,39,Male,8,2022-10-06_03h37.53.421,memory_pilot_most_recent,2022.2.4,Win32,9.120842036,,,,,,,,,,,,,,,,,,,,,,,,,1,0,61,61,61,1,2449442529-124446.jpg,2460547536-274181.jpg,2,,,,,,,,,,,,,,,,
,,,A3MC0GSXYQ2P7A,39,Male,8,2022-10-06_03h37.53.421,memory_pilot_most_recent,2022.2.4,Win32,9.120842036,,,,,,,,,,,,,,,,,,,,,,,,,1,0,62,62,62,1,2446758985-197609.jpg,2898624426-291544.jpg,3,,,,,,,,,,,,,,,,
,,,A3MC0GSXYQ2P7A,39,Male,8,2022-10-06_03h37.53.421,memory_pilot_most_recent,2022.2.4,Win32,9.120842036,,,,,,,,,,,,,,,,,,,,,,,,,1,0,63,63,63,1,2901947423-70311.jpg,2238577590-185467.jpg,3,,,,,,,,,,,,,,,,
,,,A3MC0GSXYQ2P7A,39,Male,8,2022-10-06_03h37.53.421,memory_pilot_most_recent,2022.2.4,Win32,9.120842036,,,,,,,,,,,,,,,,,,,,,,,,,1,0,64,64,64,1,2238425482-313537.jpg,2238471391-240918.jpg,1,,,,,,,,,,,,,,,,
,,,A3MC0GSXYQ2P7A,39,Male,8,2022-10-06_03h37.53.421,memory_pilot_most_recent,2022.2.4,Win32,9.120842036,,,,,,,,,,,,,,,,,,,,,,,,,,,,,,,,,,,,space,2.2635,,,,,,,,,,,,
,,,A3MC0GSXYQ2P7A,39,Male,8,2022-10-06_03h37.53.421,memory_pilot_most_recent,2022.2.4,Win32,9.120842036,,,,,,,,,,,,,,,,,,,,,,,,,,,,,,,,,,,,,,,,,,,,,,,,,
,,,A3MC0GSXYQ2P7A,39,Male,8,2022-10-06_03h37.53.421,memory_pilot_most_recent,2022.2.4,Win32,9.120842036,,,,,,,,,,,,,,,,,,,,,,,,,,,,,,,,,2,left,,,,left,1,2.6385,0,0,0,0,1,2449442529-124445.jpg,2986408373-73286.jpg,,
,,,A3MC0GSXYQ2P7A,39,Male,8,2022-10-06_03h37.53.421,memory_pilot_most_recent,2022.2.4,Win32,9.120842036,,,,,,,,,,,,,,,,,,,,,,,,,,,,,,,,,2,left,,,,left,1,2.171,0,1,1,1,1,2898624426-291546.jpg,2981236443-71859.jpg,,
,,,A3MC0GSXYQ2P7A,39,Male,8,2022-10-06_03h37.53.421,memory_pilot_most_recent,2022.2.4,Win32,9.120842036,,,,,,,,,,,,,,,,,,,,,,,,,,,,,,,,,2,left,,,,left,1,2.0197,0,2,2,2,1,2898617468-68274.jpg,2901943387-368037.jpg,,
,,,A3MC0GSXYQ2P7A,39,Male,8,2022-10-06_03h37.53.421,memory_pilot_most_recent,2022.2.4,Win32,9.120842036,,,,,,,,,,,,,,,,,,,,,,,,,,,,,,,,,3,right,,,,right,1,1.9051,0,3,3,3,1,2981231446-294732.jpg,2964218374-144967.jpg,,
,,,A3MC0GSXYQ2P7A,39,Male,8,2022-10-06_03h37.53.421,memory_pilot_most_recent,2022.2.4,Win32,9.120842036,,,,,,,,,,,,,,,,,,,,,,,,,,,,,,,,,3,right,,,,right,1,1.7278,0,4,4,4,1,2901948383-70363.jpg,2868474407-362883.jpg,,
,,,A3MC0GSXYQ2P7A,39,Male,8,2022-10-06_03h37.53.421,memory_pilot_most_recent,2022.2.4,Win32,9.120842036,,,,,,,,,,,,,,,,,,,,,,,,,,,,,,,,,1,left,,,,left,1,2.5251,0,5,5,5,1,2901941401-292798.jpg,2898618327-366317.jpg,,
,,,A3MC0GSXYQ2P7A,39,Male,8,2022-10-06_03h37.53.421,memory_pilot_most_recent,2022.2.4,Win32,9.120842036,,,,,,,,,,,,,,,,,,,,,,,,,,,,,,,,,1,left,,,,left,1,1.6298,0,6,6,6,1,2964216465-219242.jpg,2238544191-252422.jpg,,
,,,A3MC0GSXYQ2P7A,39,Male,8,2022-10-06_03h37.53.421,memory_pilot_most_recent,2022.2.4,Win32,9.120842036,,,,,,,,,,,,,,,,,,,,,,,,,,,,,,,,,2,left,,,,left,1,1.4732,0,7,7,7,1,2592379964-131054.jpg,2238479053-19457.jpg,,
,,,A3MC0GSXYQ2P7A,39,Male,8,2022-10-06_03h37.53.421,memory_pilot_most_recent,2022.2.4,Win32,9.120842036,,,,,,,,,,,,,,,,,,,,,,,,,,,,,,,,,2,right,,,,right,1,1.6644,0,8,8,8,1,2868479517-363220.jpg,2898635427-367120.jpg,,
,,,A3MC0GSXYQ2P7A,39,Male,8,2022-10-06_03h37.53.421,memory_pilot_most_recent,2022.2.4,Win32,9.120842036,,,,,,,,,,,,,,,,,,,,,,,,,,,,,,,,,1,left,,,,left,1,3.7064,0,9,9,9,1,2981231403-71642.jpg,2579432519-130698.jpg,,
,,,A3MC0GSXYQ2P7A,39,Male,8,2022-10-06_03h37.53.421,memory_pilot_most_recent,2022.2.4,Win32,9.120842036,,,,,,,,,,,,,,,,,,,,,,,,,,,,,,,,,3,right,,,,right,1,2.3313,0,10,10,10,1,2898628438-68785.jpg,2964223381-294447.jpg,,
,,,A3MC0GSXYQ2P7A,39,Male,8,2022-10-06_03h37.53.421,memory_pilot_most_recent,2022.2.4,Win32,9.120842036,,,,,,,,,,,,,,,,,,,,,,,,,,,,,,,,,2,right,,,,right,1,2.1618,0,11,11,11,1,2868487415-213924.jpg,2460547467-349422.jpg,,
,,,A3MC0GSXYQ2P7A,39,Male,8,2022-10-06_03h37.53.421,memory_pilot_most_recent,2022.2.4,Win32,9.120842036,,,,,,,,,,,,,,,,,,,,,,,,,,,,,,,,,3,left,,,,right,0,2.2938,0,12,12,12,1,2238572663-35822.jpg,2864903351-286874.jpg,,
,,,A3MC0GSXYQ2P7A,39,Male,8,2022-10-06_03h37.53.421,memory_pilot_most_recent,2022.2.4,Win32,9.120842036,,,,,,,,,,,,,,,,,,,,,,,,,,,,,,,,,3,left,,,,right,0,2.4389,0,13,13,13,1,2901939379-143480.jpg,2898632385-217139.jpg,,
,,,A3MC0GSXYQ2P7A,39,Male,8,2022-10-06_03h37.53.421,memory_pilot_most_recent,2022.2.4,Win32,9.120842036,,,,,,,,,,,,,,,,,,,,,,,,,,,,,,,,,2,right,,,,right,1,2.3198,0,14,14,14,1,2575120738-55528.jpg,2575120738-55529.jpg,,
,,,A3MC0GSXYQ2P7A,39,Male,8,2022-10-06_03h37.53.421,memory_pilot_most_recent,2022.2.4,Win32,9.120842036,,,,,,,,,,,,,,,,,,,,,,,,,,,,,,,,,1,left,,,,left,1,1.8492,0,15,15,15,1,2238425482-313537.jpg,2238471391-240918.jpg,,
,,,A3MC0GSXYQ2P7A,39,Male,8,2022-10-06_03h37.53.421,memory_pilot_most_recent,2022.2.4,Win32,9.120842036,,,,,,,,,,,,,,,,,,,,,,,,,,,,,,,,,3,right,,,,left,0,4.0914,0,16,16,16,1,2981240427-370099.jpg,2964222378-71332.jpg,,
,,,A3MC0GSXYQ2P7A,39,Male,8,2022-10-06_03h37.53.421,memory_pilot_most_recent,2022.2.4,Win32,9.120842036,,,,,,,,,,,,,,,,,,,,,,,,,,,,,,,,,1,right,,,,right,1,2.498,0,17,17,17,1,2460547467-349423.jpg,2901939379-143479.jpg,,
,,,A3MC0GSXYQ2P7A,39,Male,8,2022-10-06_03h37.53.421,memory_pilot_most_recent,2022.2.4,Win32,9.120842036,,,,,,,,,,,,,,,,,,,,,,,,,,,,,,,,,3,left,,,,left,1,1.6352,0,18,18,18,1,2452380832-348593.jpg,2237858942-299356.jpg,,
,,,A3MC0GSXYQ2P7A,39,Male,8,2022-10-06_03h37.53.421,memory_pilot_most_recent,2022.2.4,Win32,9.120842036,,,,,,,,,,,,,,,,,,,,,,,,,,,,,,,,,2,right,,,,right,1,3.5412,0,19,19,19,1,2460547536-274181.jpg,2449442529-124446.jpg,,
,,,A3MC0GSXYQ2P7A,39,Male,8,2022-10-06_03h37.53.421,memory_pilot_most_recent,2022.2.4,Win32,9.120842036,,,,,,,,,,,,,,,,,,,,,,,,,,,,,,,,,3,left,,,,left,1,3.2477,0,20,20,20,1,2592380177-354629.jpg,2512875587-350044.jpg,,
,,,A3MC0GSXYQ2P7A,39,Male,8,2022-10-06_03h37.53.421,memory_pilot_most_recent,2022.2.4,Win32,9.120842036,,,,,,,,,,,,,,,,,,,,,,,,,,,,,,,,,3,left,,,,left,1,3.977,0,21,21,21,1,2446758985-197609.jpg,2898624426-291544.jpg,,
,,,A3MC0GSXYQ2P7A,39,Male,8,2022-10-06_03h37.53.421,memory_pilot_most_recent,2022.2.4,Win32,9.120842036,,,,,,,,,,,,,,,,,,,,,,,,,,,,,,,,,2,left,,,,left,1,1.7977,0,22,22,22,1,2883268471-290842.jpg,2883255450-215310.jpg,,
,,,A3MC0GSXYQ2P7A,39,Male,8,2022-10-06_03h37.53.421,memory_pilot_most_recent,2022.2.4,Win32,9.120842036,,,,,,,,,,,,,,,,,,,,,,,,,,,,,,,,,1,left,,,,right,0,1.7662,0,23,23,23,1,2874302418-65979.jpg,2237857458-1325.jpg,,
,,,A3MC0GSXYQ2P7A,39,Male,8,2022-10-06_03h37.53.421,memory_pilot_most_recent,2022.2.4,Win32,9.120842036,,,,,,,,,,,,,,,,,,,,,,,,,,,,,,,,,3,right,,,,left,0,9.6678,0,24,24,24,1,2898633321-291943.jpg,2874302418-65978.jpg,,
,,,A3MC0GSXYQ2P7A,39,Male,8,2022-10-06_03h37.53.421,memory_pilot_most_recent,2022.2.4,Win32,9.120842036,,,,,,,,,,,,,,,,,,,,,,,,,,,,,,,,,2,right,,,,right,1,3.5994,0,25,25,25,1,2901943411-292945.jpg,2898635428-69104.jpg,,
,,,A3MC0GSXYQ2P7A,39,Male,8,2022-10-06_03h37.53.421,memory_pilot_most_recent,2022.2.4,Win32,9.120842036,,,,,,,,,,,,,,,,,,,,,,,,,,,,,,,,,1,right,,,,right,1,4.1003,0,26,26,26,1,2898626385-216899.jpg,2986451363-73599.jpg,,
,,,A3MC0GSXYQ2P7A,39,Male,8,2022-10-06_03h37.53.421,memory_pilot_most_recent,2022.2.4,Win32,9.120842036,,,,,,,,,,,,,,,,,,,,,,,,,,,,,,,,,3,left,,,,right,0,1.9939,0,27,27,27,1,2986451363-73598.jpg,2901942443-69925.jpg,,
,,,A3MC0GSXYQ2P7A,39,Male,8,2022-10-06_03h37.53.421,memory_pilot_most_recent,2022.2.4,Win32,9.120842036,,,,,,,,,,,,,,,,,,,,,,,,,,,,,,,,,3,left,,,,left,1,1.1781,0,28,28,28,1,2981241414-145842.jpg,2427873848-47312.jpg,,
,,,A3MC0GSXYQ2P7A,39,Male,8,2022-10-06_03h37.53.421,memory_pilot_most_recent,2022.2.4,Win32,9.120842036,,,,,,,,,,,,,,,,,,,,,,,,,,,,,,,,,2,right,,,,right,1,2.2274,0,29,29,29,1,2874314526-289684.jpg,2238560245-182099.jpg,,
,,,A3MC0GSXYQ2P7A,39,Male,8,2022-10-06_03h37.53.421,memory_pilot_most_recent,2022.2.4,Win32,9.120842036,,,,,,,,,,,,,,,,,,,,,,,,,,,,,,,,,3,right,,,,right,1,1.2632,0,30,30,30,1,2238480278-19661.jpg,2238480677-317399.jpg,,
,,,A3MC0GSXYQ2P7A,39,Male,8,2022-10-06_03h37.53.421,memory_pilot_most_recent,2022.2.4,Win32,9.120842036,,,,,,,,,,,,,,,,,,,,,,,,,,,,,,,,,1,right,,,,left,0,1.4656,0,31,31,31,1,2981244394-145974.jpg,2964213381-294060.jpg,,
,,,A3MC0GSXYQ2P7A,39,Male,8,2022-10-06_03h37.53.421,memory_pilot_most_recent,2022.2.4,Win32,9.120842036,,,,,,,,,,,,,,,,,,,,,,,,,,,,,,,,,2,right,,,,right,1,2.8884,0,32,32,32,1,2981244403-72215.jpg,2874299429-139694.jpg,,
,,,A3MC0GSXYQ2P7A,39,Male,8,2022-10-06_03h37.53.421,memory_pilot_most_recent,2022.2.4,Win32,9.120842036,,,,,,,,,,,,,,,,,,,,,,,,,,,,,,,,,2,right,,,,right,1,1.8067,0,33,33,33,1,2460547508-51572.jpg,2883273443-68193.jpg,,
,,,A3MC0GSXYQ2P7A,39,Male,8,2022-10-06_03h37.53.421,memory_pilot_most_recent,2022.2.4,Win32,9.120842036,,,,,,,,,,,,,,,,,,,,,,,,,,,,,,,,,1,left,,,,right,0,1.1332,0,34,34,34,1,2460547508-51571.jpg,2452380166-273109.jpg,,
,,,A3MC0GSXYQ2P7A,39,Male,8,2022-10-06_03h37.53.421,memory_pilot_most_recent,2022.2.4,Win32,9.120842036,,,,,,,,,,,,,,,,,,,,,,,,,,,,,,,,,3,right,,,,left,0,4.063,0,35,35,35,1,2238577590-185467.jpg,2901947423-70311.jpg,,
,,,A3MC0GSXYQ2P7A,39,Male,8,2022-10-06_03h37.53.421,memory_pilot_most_recent,2022.2.4,Win32,9.120842036,,,,,,,,,,,,,,,,,,,,,,,,,,,,,,,,,1,right,,,,right,1,1.3676,0,36,36,36,1,2984615358-72439.jpg,2874307433-66280.jpg,,
,,,A3MC0GSXYQ2P7A,39,Male,8,2022-10-06_03h37.53.421,memory_pilot_most_recent,2022.2.4,Win32,9.120842036,,,,,,,,,,,,,,,,,,,,,,,,,,,,,,,,,2,left,,,,right,0,1.6983,0,37,37,37,1,2238481928-19949.jpg,2864900357-361688.jpg,,
,,,A3MC0GSXYQ2P7A,39,Male,8,2022-10-06_03h37.53.421,memory_pilot_most_recent,2022.2.4,Win32,9.120842036,,,,,,,,,,,,,,,,,,,,,,,,,,,,,,,,,3,right,,,,right,1,1.3687,0,38,38,38,1,2964217461-294238.jpg,2898634397-367080.jpg,,
,,,A3MC0GSXYQ2P7A,39,Male,8,2022-10-06_03h37.53.421,memory_pilot_most_recent,2022.2.4,Win32,9.120842036,,,,,,,,,,,,,,,,,,,,,,,,,,,,,,,,,1,left,,,,left,1,2.5023,0,39,39,39,1,2874303365-214262.jpg,2274829821-263682.jpg,,
,,,A3MC0GSXYQ2P7A,39,Male,8,2022-10-06_03h37.53.421,memory_pilot_most_recent,2022.2.4,Win32,9.120842036,,,,,,,,,,,,,,,,,,,,,,,,,,,,,,,,,2,right,,,,right,1,1.8438,0,40,40,40,1,2901942443-69923.jpg,2874299429-139695.jpg,,
,,,A3MC0GSXYQ2P7A,39,Male,8,2022-10-06_03h37.53.421,memory_pilot_most_recent,2022.2.4,Win32,9.120842036,,,,,,,,,,,,,,,,,,,,,,,,,,,,,,,,,3,left,,,,right,0,2.8067,0,41,41,41,1,2883256307-365057.jpg,2864904453-63933.jpg,,
,,,A3MC0GSXYQ2P7A,39,Male,8,2022-10-06_03h37.53.421,memory_pilot_most_recent,2022.2.4,Win32,9.120842036,,,,,,,,,,,,,,,,,,,,,,,,,,,,,,,,,2,left,,,,right,0,2.1012,0,42,42,42,1,2898618390-216538.jpg,2901939327-367670.jpg,,
,,,A3MC0GSXYQ2P7A,39,Male,8,2022-10-06_03h37.53.421,memory_pilot_most_recent,2022.2.4,Win32,9.120842036,,,,,,,,,,,,,,,,,,,,,,,,,,,,,,,,,1,left,,,,left,1,1.3712,0,43,43,43,1,2592380177-354626.jpg,2238576792-334659.jpg,,
,,,A3MC0GSXYQ2P7A,39,Male,8,2022-10-06_03h37.53.421,memory_pilot_most_recent,2022.2.4,Win32,9.120842036,,,,,,,,,,,,,,,,,,,,,,,,,,,,,,,,,3,left,,,,right,0,1.666,0,44,44,44,1,2898618444-142233.jpg,2898618444-142232.jpg,,
,,,A3MC0GSXYQ2P7A,39,Male,8,2022-10-06_03h37.53.421,memory_pilot_most_recent,2022.2.4,Win32,9.120842036,,,,,,,,,,,,,,,,,,,,,,,,,,,,,,,,,1,right,,,,right,1,1.5058,0,45,45,45,1,2446760601-272099.jpg,2446759803-49249.jpg,,
,,,A3MC0GSXYQ2P7A,39,Male,8,2022-10-06_03h37.53.421,memory_pilot_most_recent,2022.2.4,Win32,9.120842036,,,,,,,,,,,,,,,,,,,,,,,,,,,,,,,,,1,right,,,,right,1,3.2598,0,46,46,46,1,2864901420-212147.jpg,2864907432-362042.jpg,,
,,,A3MC0GSXYQ2P7A,39,Male,8,2022-10-06_03h37.53.421,memory_pilot_most_recent,2022.2.4,Win32,9.120842036,,,,,,,,,,,,,,,,,,,,,,,,,,,,,,,,,3,left,,,,left,1,2.1123,0,47,47,47,1,2238428357-313623.jpg,2986408339-146952.jpg,,
,,,A3MC0GSXYQ2P7A,39,Male,8,2022-10-06_03h37.53.421,memory_pilot_most_recent,2022.2.4,Win32,9.120842036,,,,,,,,,,,,,,,,,,,,,,,,,,,,,,,,,1,left,,,,left,1,1.6745,0,48,48,48,1,2460547467-349421.jpg,2898631394-142727.jpg,,
,,,A3MC0GSXYQ2P7A,39,Male,8,2022-10-06_03h37.53.421,memory_pilot_most_recent,2022.2.4,Win32,9.120842036,,,,,,,,,,,,,,,,,,,,,,,,,,,,,,,,,1,right,,,,left,0,2.1559,0,49,49,49,1,2864902304-137862.jpg,2864910426-287204.jpg,,
,,,A3MC0GSXYQ2P7A,39,Male,8,2022-10-06_03h37.53.421,memory_pilot_most_recent,2022.2.4,Win32,9.120842036,,,,,,,,,,,,,,,,,,,,,,,,,,,,,,,,,3,left,,,,left,1,0.9749,0,50,50,50,1,2868475410-213219.jpg,2868474407-362885.jpg,,
,,,A3MC0GSXYQ2P7A,39,Male,8,2022-10-06_03h37.53.421,memory_pilot_most_recent,2022.2.4,Win32,9.120842036,,,,,,,,,,,,,,,,,,,,,,,,,,,,,,,,,2,left,,,,right,0,1.0593,0,51,51,51,1,2238481198-19822.jpg,2901946436-293242.jpg,,
,,,A3MC0GSXYQ2P7A,39,Male,8,2022-10-06_03h37.53.421,memory_pilot_most_recent,2022.2.4,Win32,9.120842036,,,,,,,,,,,,,,,,,,,,,,,,,,,,,,,,,1,left,,,,left,1,5.423,0,52,52,52,1,2512875899-126682.jpg,2460547536-274179.jpg,,
,,,A3MC0GSXYQ2P7A,39,Male,8,2022-10-06_03h37.53.421,memory_pilot_most_recent,2022.2.4,Win32,9.120842036,,,,,,,,,,,,,,,,,,,,,,,,,,,,,,,,,1,right,,,,right,1,1.358,0,53,53,53,1,2238480434-93829.jpg,2458347385-199723.jpg,,
,,,A3MC0GSXYQ2P7A,39,Male,8,2022-10-06_03h37.53.421,memory_pilot_most_recent,2022.2.4,Win32,9.120842036,,,,,,,,,,,,,,,,,,,,,,,,,,,,,,,,,2,left,,,,right,0,1.3191,0,54,54,54,1,2901952513-70703.jpg,2868469411-287540.jpg,,
,,,A3MC0GSXYQ2P7A,39,Male,8,2022-10-06_03h37.53.421,memory_pilot_most_recent,2022.2.4,Win32,9.120842036,,,,,,,,,,,,,,,,,,,,,,,,,,,,,,,,,2,right,,,,left,0,1.8815,0,55,55,55,1,2898632385-217138.jpg,2452381505-199546.jpg,,
,,,A3MC0GSXYQ2P7A,39,Male,8,2022-10-06_03h37.53.421,memory_pilot_most_recent,2022.2.4,Win32,9.120842036,,,,,,,,,,,,,,,,,,,,,,,,,,,,,,,,,2,right,,,,right,1,0.7961,0,56,56,56,1,2984615361-295510.jpg,2883268412-365898.jpg,,
,,,A3MC0GSXYQ2P7A,39,Male,8,2022-10-06_03h37.53.421,memory_pilot_most_recent,2022.2.4,Win32,9.120842036,,,,,,,,,,,,,,,,,,,,,,,,,,,,,,,,,1,left,,,,right,0,1.3053,0,57,57,57,1,2898633421-291973.jpg,2512876023-52283.jpg,,
,,,A3MC0GSXYQ2P7A,39,Male,8,2022-10-06_03h37.53.421,memory_pilot_most_recent,2022.2.4,Win32,9.120842036,,,,,,,,,,,,,,,,,,,,,,,,,,,,,,,,,1,right,,,,left,0,2.3943,0,58,58,58,1,2238550816-254000.jpg,2238580740-186218.jpg,,
,,,A3MC0GSXYQ2P7A,39,Male,8,2022-10-06_03h37.53.421,memory_pilot_most_recent,2022.2.4,Win32,9.120842036,,,,,,,,,,,,,,,,,,,,,,,,,,,,,,,,,3,right,,,,left,0,2.1189,0,59,59,59,1,2901947323-70275.jpg,2874301407-363895.jpg,,
,,,A3MC0GSXYQ2P7A,39,Male,8,2022-10-06_03h37.53.421,memory_pilot_most_recent,2022.2.4,Win32,9.120842036,,,,,,,,,,,,,,,,,,,,,,,,,,,,,,,,,,,,,,,,,,,,,,,,space,22.1161
