button.numClicks,button.timesOn,button.timesOff,workID,Age,Gender,Hours slept (last night),date,expName,psychopyVersion,OS,frameRate,space_key_responce.keys,space_key_responce.rt,demo_encoding_response.keys,demo_encoding_response.corr,demo_encoding_loop.thisRepN,demo_encoding_loop.thisTrialN,demo_encoding_loop.thisN,demo_encoding_loop.thisIndex,demo_encoding_loop.ran,DemoImage,DemoCorrect,demo_test_response.keys,demo_test_response.corr,demo_test_response.rt,demo_test_loop.thisRepN,demo_test_loop.thisTrialN,demo_test_loop.thisN,demo_test_loop.thisIndex,demo_test_loop.ran,DemoImage1,DemoImage2,DemoCorrectTest,test_encoding_response.keys,test_encoding_response.corr,trials.thisRepN,trials.thisTrialN,trials.thisN,trials.thisIndex,trials.ran,target_image,pair,layer,correct,key_resp_end.keys,key_resp_end.rt,test_test_response.keys,test_test_response.corr,test_test_response.rt,trials_2.thisRepN,trials_2.thisTrialN,trials_2.thisN,trials_2.thisIndex,trials_2.ran,image1,image2,key_resp_end_2.keys,key_resp_end_2.rt
1,[10.73820000076293],[10.738400000572199],A1AT1U9SZ2T4NN,49,female,8,2022-09-21_10h01.27.159,memory_pilot_most_recent,2022.2.4,Win32,10.49042748,,,,,,,,,,,,,,,,,,,,,,,,,,,,,,,,,,,,,,,,,,,,,,,
,,,A1AT1U9SZ2T4NN,49,female,8,2022-09-21_10h01.27.159,memory_pilot_most_recent,2022.2.4,Win32,10.49042748,,,,,,,,,,,,,,,,,,,,,,,,,,,,,,,,,,,,,,,,,,,,,,,
,,,A1AT1U9SZ2T4NN,49,female,8,2022-09-21_10h01.27.159,memory_pilot_most_recent,2022.2.4,Win32,10.49042748,space,2.1602,,,,,,,,,,,,,,,,,,,,,,,,,,,,,,,,,,,,,,,,,,,,,
,,,A1AT1U9SZ2T4NN,49,female,8,2022-09-21_10h01.27.159,memory_pilot_most_recent,2022.2.4,Win32,10.49042748,,,,,,,,,,,,,,,,,,,,,,,,,,,,,,,,,,,,,,,,,,,,,,,
,,,A1AT1U9SZ2T4NN,49,female,8,2022-09-21_10h01.27.159,memory_pilot_most_recent,2022.2.4,Win32,10.49042748,,,,1,0,0,0,0,1,flower1.jpg,,,,,,,,,,,,,,,,,,,,,,,,,,,,,,,,,,,,,
,,,A1AT1U9SZ2T4NN,49,female,8,2022-09-21_10h01.27.159,memory_pilot_most_recent,2022.2.4,Win32,10.49042748,,,,1,0,1,1,1,1,flower2.jpg,,,,,,,,,,,,,,,,,,,,,,,,,,,,,,,,,,,,,
,,,A1AT1U9SZ2T4NN,49,female,8,2022-09-21_10h01.27.159,memory_pilot_most_recent,2022.2.4,Win32,10.49042748,,,,0,0,2,2,2,1,left.jpg,left,,,,,,,,,,,,,,,,,,,,,,,,,,,,,,,,,,,,
,,,A1AT1U9SZ2T4NN,49,female,8,2022-09-21_10h01.27.159,memory_pilot_most_recent,2022.2.4,Win32,10.49042748,,,,1,0,3,3,3,1,flower3.jpg,,,,,,,,,,,,,,,,,,,,,,,,,,,,,,,,,,,,,
,,,A1AT1U9SZ2T4NN,49,female,8,2022-09-21_10h01.27.159,memory_pilot_most_recent,2022.2.4,Win32,10.49042748,,,,1,0,4,4,4,1,flower4.jpg,,,,,,,,,,,,,,,,,,,,,,,,,,,,,,,,,,,,,
,,,A1AT1U9SZ2T4NN,49,female,8,2022-09-21_10h01.27.159,memory_pilot_most_recent,2022.2.4,Win32,10.49042748,,,,1,0,5,5,5,1,flower5.jpg,,,,,,,,,,,,,,,,,,,,,,,,,,,,,,,,,,,,,
,,,A1AT1U9SZ2T4NN,49,female,8,2022-09-21_10h01.27.159,memory_pilot_most_recent,2022.2.4,Win32,10.49042748,,,,1,0,6,6,6,1,flower6.jpg,,,,,,,,,,,,,,,,,,,,,,,,,,,,,,,,,,,,,
,,,A1AT1U9SZ2T4NN,49,female,8,2022-09-21_10h01.27.159,memory_pilot_most_recent,2022.2.4,Win32,10.49042748,,,,,,,,,,,,,,,,,,,,,,,,,,,,,,,,,,,,,,,,,,,,,,,
,,,A1AT1U9SZ2T4NN,49,female,8,2022-09-21_10h01.27.159,memory_pilot_most_recent,2022.2.4,Win32,10.49042748,,,,,,,,,,,,right,0,26.5926,0,0,0,0,1,flower1.jpg,flower1_pair.jpg,left,,,,,,,,,,,,,,,,,,,,,,,,,
,,,A1AT1U9SZ2T4NN,49,female,8,2022-09-21_10h01.27.159,memory_pilot_most_recent,2022.2.4,Win32,10.49042748,,,,,,,,,,,,right,1,0.0135,0,1,1,1,1,flower2_pair.jpg,flower2.jpg,right,,,,,,,,,,,,,,,,,,,,,,,,,
,,,A1AT1U9SZ2T4NN,49,female,8,2022-09-21_10h01.27.159,memory_pilot_most_recent,2022.2.4,Win32,10.49042748,,,,,,,,,,,,right,0,0.0173,0,2,2,2,1,flower3.jpg,flower3_pair.jpg,left,,,,,,,,,,,,,,,,,,,,,,,,,
,,,A1AT1U9SZ2T4NN,49,female,8,2022-09-21_10h01.27.159,memory_pilot_most_recent,2022.2.4,Win32,10.49042748,,,,,,,,,,,,right,0,0.1497,0,3,3,3,1,flower4.jpg,flower4_pair.jpg,left,,,,,,,,,,,,,,,,,,,,,,,,,
,,,A1AT1U9SZ2T4NN,49,female,8,2022-09-21_10h01.27.159,memory_pilot_most_recent,2022.2.4,Win32,10.49042748,,,,,,,,,,,,right,1,0.1285,0,4,4,4,1,flower5_pair.jpg,flower5.jpg,right,,,,,,,,,,,,,,,,,,,,,,,,,
,,,A1AT1U9SZ2T4NN,49,female,8,2022-09-21_10h01.27.159,memory_pilot_most_recent,2022.2.4,Win32,10.49042748,,,,,,,,,,,,right,0,0.010599999,0,5,5,5,1,flower6.jpg,flower6_pair.jpg,left,,,,,,,,,,,,,,,,,,,,,,,,,
,,,A1AT1U9SZ2T4NN,49,female,8,2022-09-21_10h01.27.159,memory_pilot_most_recent,2022.2.4,Win32,10.49042748,,,,,,,,,,,,,,,,,,,,,,,,,,,,,,,,,,,,,,,,,,,,,,,
,,,A1AT1U9SZ2T4NN,49,female,8,2022-09-21_10h01.27.159,memory_pilot_most_recent,2022.2.4,Win32,10.49042748,space,1.3966,,,,,,,,,,,,,,,,,,,,,,,,,,,,,,,,,,,,,,,,,,,,,
,,,A1AT1U9SZ2T4NN,49,female,8,2022-09-21_10h01.27.159,memory_pilot_most_recent,2022.2.4,Win32,10.49042748,,,,,,,,,,,,,,,,,,,,,,,,1,0,0,0,0,1,2874302418-65979.jpg,2238480648-19714.jpg,2,,,,,,,,,,,,,,,
,,,A1AT1U9SZ2T4NN,49,female,8,2022-09-21_10h01.27.159,memory_pilot_most_recent,2022.2.4,Win32,10.49042748,,,,,,,,,,,,,,,,,,,,,,,,1,0,1,1,1,1,2883268412-365898.jpg,2238436252-314037.jpg,3,,,,,,,,,,,,,,,
,,,A1AT1U9SZ2T4NN,49,female,8,2022-09-21_10h01.27.159,memory_pilot_most_recent,2022.2.4,Win32,10.49042748,,,,,,,,,,,,,,,,,,,,,,,,1,0,2,2,2,1,2898635428-69104.jpg,2446759803-49250.jpg,1,,,,,,,,,,,,,,,
,,,A1AT1U9SZ2T4NN,49,female,8,2022-09-21_10h01.27.159,memory_pilot_most_recent,2022.2.4,Win32,10.49042748,,,,,,,,,,,,,,,,,,,,,,,,1,0,3,3,3,1,2238481928-19949.jpg,2981241419-145844.jpg,3,,,,,,,,,,,,,,,
,,,A1AT1U9SZ2T4NN,49,female,8,2022-09-21_10h01.27.159,memory_pilot_most_recent,2022.2.4,Win32,10.49042748,,,,,,,,,,,,,,,,,,,,,,,,1,0,4,4,4,1,2238572663-35822.jpg,2238584894-113161.jpg,1,,,,,,,,,,,,,,,
,,,A1AT1U9SZ2T4NN,49,female,8,2022-09-21_10h01.27.159,memory_pilot_most_recent,2022.2.4,Win32,10.49042748,,,,,,,,,,,,,,,,,,,,,,,,1,0,5,5,5,1,2874303365-214262.jpg,2864911457-362260.jpg,3,,,,,,,,,,,,,,,
,,,A1AT1U9SZ2T4NN,49,female,8,2022-09-21_10h01.27.159,memory_pilot_most_recent,2022.2.4,Win32,10.49042748,,,,,,,,,,,,,,,,,,,,,,,,1,0,6,6,6,1,2964218374-144967.jpg,2964218374-144968.jpg,1,,,,,,,,,,,,,,,
,,,A1AT1U9SZ2T4NN,49,female,8,2022-09-21_10h01.27.159,memory_pilot_most_recent,2022.2.4,Win32,10.49042748,,,,,,,,,,,,,,,,,,,,,,,,0,0,7,7,7,1,left.jpg,,,left,,,,,,,,,,,,,,
,,,A1AT1U9SZ2T4NN,49,female,8,2022-09-21_10h01.27.159,memory_pilot_most_recent,2022.2.4,Win32,10.49042748,,,,,,,,,,,,,,,,,,,,,,,,1,0,8,8,8,1,2898618444-142233.jpg,2238555262-330312.jpg,2,,,,,,,,,,,,,,,
,,,A1AT1U9SZ2T4NN,49,female,8,2022-09-21_10h01.27.159,memory_pilot_most_recent,2022.2.4,Win32,10.49042748,,,,,,,,,,,,,,,,,,,,,,,,1,0,9,9,9,1,2898633421-291973.jpg,2512876023-52283.jpg,1,,,,,,,,,,,,,,,
,,,A1AT1U9SZ2T4NN,49,female,8,2022-09-21_10h01.27.159,memory_pilot_most_recent,2022.2.4,Win32,10.49042748,,,,,,,,,,,,,,,,,,,,,,,,1,0,10,10,10,1,2874302418-65978.jpg,2238481198-19823.jpg,2,,,,,,,,,,,,,,,
,,,A1AT1U9SZ2T4NN,49,female,8,2022-09-21_10h01.27.159,memory_pilot_most_recent,2022.2.4,Win32,10.49042748,,,,,,,,,,,,,,,,,,,,,,,,1,0,11,11,11,1,2452381505-199546.jpg,2994401319-148290.jpg,3,,,,,,,,,,,,,,,
,,,A1AT1U9SZ2T4NN,49,female,8,2022-09-21_10h01.27.159,memory_pilot_most_recent,2022.2.4,Win32,10.49042748,,,,,,,,,,,,,,,,,,,,,,,,1,0,12,12,12,1,2452380832-348593.jpg,2238481813-19930.jpg,2,,,,,,,,,,,,,,,
,,,A1AT1U9SZ2T4NN,49,female,8,2022-09-21_10h01.27.159,memory_pilot_most_recent,2022.2.4,Win32,10.49042748,,,,,,,,,,,,,,,,,,,,,,,,1,0,13,13,13,1,2981231403-71642.jpg,2579432519-130698.jpg,1,,,,,,,,,,,,,,,
,,,A1AT1U9SZ2T4NN,49,female,8,2022-09-21_10h01.27.159,memory_pilot_most_recent,2022.2.4,Win32,10.49042748,,,,,,,,,,,,,,,,,,,,,,,,1,0,14,14,14,1,2460547467-349421.jpg,2898631394-142727.jpg,1,,,,,,,,,,,,,,,
,,,A1AT1U9SZ2T4NN,49,female,8,2022-09-21_10h01.27.159,memory_pilot_most_recent,2022.2.4,Win32,10.49042748,,,,,,,,,,,,,,,,,,,,,,,,1,0,15,15,15,1,2874299429-139695.jpg,2883266388-67750.jpg,1,,,,,,,,,,,,,,,
,,,A1AT1U9SZ2T4NN,49,female,8,2022-09-21_10h01.27.159,memory_pilot_most_recent,2022.2.4,Win32,10.49042748,,,,,,,,,,,,,,,,,,,,,,,,1,0,16,16,16,1,2901939379-143480.jpg,2898632385-217139.jpg,3,,,,,,,,,,,,,,,
,,,A1AT1U9SZ2T4NN,49,female,8,2022-09-21_10h01.27.159,memory_pilot_most_recent,2022.2.4,Win32,10.49042748,,,,,,,,,,,,,,,,,,,,,,,,0,0,17,17,17,1,right.jpg,,,right,,,,,,,,,,,,,,
,,,A1AT1U9SZ2T4NN,49,female,8,2022-09-21_10h01.27.159,memory_pilot_most_recent,2022.2.4,Win32,10.49042748,,,,,,,,,,,,,,,,,,,,,,,,1,0,18,18,18,1,2460547467-349422.jpg,2898618440-216545.jpg,1,,,,,,,,,,,,,,,
,,,A1AT1U9SZ2T4NN,49,female,8,2022-09-21_10h01.27.159,memory_pilot_most_recent,2022.2.4,Win32,10.49042748,,,,,,,,,,,,,,,,,,,,,,,,1,0,19,19,19,1,2986451363-73598.jpg,2237857458-1324.jpg,1,,,,,,,,,,,,,,,
,,,A1AT1U9SZ2T4NN,49,female,8,2022-09-21_10h01.27.159,memory_pilot_most_recent,2022.2.4,Win32,10.49042748,,,,,,,,,,,,,,,,,,,,,,,,1,0,20,20,20,1,2981241414-145842.jpg,2238516618-25604.jpg,1,,,,,,,,,,,,,,,
,,,A1AT1U9SZ2T4NN,49,female,8,2022-09-21_10h01.27.159,memory_pilot_most_recent,2022.2.4,Win32,10.49042748,,,,,,,,,,,,,,,,,,,,,,,,1,0,21,21,21,1,2512875899-126682.jpg,2460547536-274179.jpg,1,,,,,,,,,,,,,,,
,,,A1AT1U9SZ2T4NN,49,female,8,2022-09-21_10h01.27.159,memory_pilot_most_recent,2022.2.4,Win32,10.49042748,,,,,,,,,,,,,,,,,,,,,,,,1,0,22,22,22,1,2868474407-362883.jpg,2981246400-220363.jpg,2,,,,,,,,,,,,,,,
,,,A1AT1U9SZ2T4NN,49,female,8,2022-09-21_10h01.27.159,memory_pilot_most_recent,2022.2.4,Win32,10.49042748,,,,,,,,,,,,,,,,,,,,,,,,1,0,23,23,23,1,2458347385-199723.jpg,2427874554-121863.jpg,2,,,,,,,,,,,,,,,
,,,A1AT1U9SZ2T4NN,49,female,8,2022-09-21_10h01.27.159,memory_pilot_most_recent,2022.2.4,Win32,10.49042748,,,,,,,,,,,,,,,,,,,,,,,,1,0,24,24,24,1,2864910426-287204.jpg,2883268412-365899.jpg,2,,,,,,,,,,,,,,,
,,,A1AT1U9SZ2T4NN,49,female,8,2022-09-21_10h01.27.159,memory_pilot_most_recent,2022.2.4,Win32,10.49042748,,,,,,,,,,,,,,,,,,,,,,,,1,0,25,25,25,1,2901952513-70703.jpg,2238481198-19821.jpg,3,,,,,,,,,,,,,,,
,,,A1AT1U9SZ2T4NN,49,female,8,2022-09-21_10h01.27.159,memory_pilot_most_recent,2022.2.4,Win32,10.49042748,,,,,,,,,,,,,,,,,,,,,,,,0,0,26,26,26,1,right.jpg,,,right,,,,,,,,,,,,,,
,,,A1AT1U9SZ2T4NN,49,female,8,2022-09-21_10h01.27.159,memory_pilot_most_recent,2022.2.4,Win32,10.49042748,,,,,,,,,,,,,,,,,,,,,,,,1,0,27,27,27,1,2883256307-365057.jpg,2864904453-63933.jpg,3,,,,,,,,,,,,,,,
,,,A1AT1U9SZ2T4NN,49,female,8,2022-09-21_10h01.27.159,memory_pilot_most_recent,2022.2.4,Win32,10.49042748,,,,,,,,,,,,,,,,,,,,,,,,1,0,28,28,28,1,2898634397-367080.jpg,2237944827-301472.jpg,1,,,,,,,,,,,,,,,
,,,A1AT1U9SZ2T4NN,49,female,8,2022-09-21_10h01.27.159,memory_pilot_most_recent,2022.2.4,Win32,10.49042748,,,,,,,,,,,,,,,,,,,,,,,,1,0,29,29,29,1,2883268471-290842.jpg,2883255450-215310.jpg,2,,,,,,,,,,,,,,,
,,,A1AT1U9SZ2T4NN,49,female,8,2022-09-21_10h01.27.159,memory_pilot_most_recent,2022.2.4,Win32,10.49042748,,,,,,,,,,,,,,,,,,,,,,,,1,0,30,30,30,1,2446759803-49249.jpg,2901951392-368654.jpg,3,,,,,,,,,,,,,,,
,,,A1AT1U9SZ2T4NN,49,female,8,2022-09-21_10h01.27.159,memory_pilot_most_recent,2022.2.4,Win32,10.49042748,,,,,,,,,,,,,,,,,,,,,,,,1,0,31,31,31,1,2964223381-294447.jpg,2901941438-69836.jpg,2,,,,,,,,,,,,,,,
,,,A1AT1U9SZ2T4NN,49,female,8,2022-09-21_10h01.27.159,memory_pilot_most_recent,2022.2.4,Win32,10.49042748,,,,,,,,,,,,,,,,,,,,,,,,1,0,32,32,32,1,2238425482-313537.jpg,2898633480-217190.jpg,3,,,,,,,,,,,,,,,
,,,A1AT1U9SZ2T4NN,49,female,8,2022-09-21_10h01.27.159,memory_pilot_most_recent,2022.2.4,Win32,10.49042748,,,,,,,,,,,,,,,,,,,,,,,,1,0,33,33,33,1,2460547508-51571.jpg,2901941438-69835.jpg,3,,,,,,,,,,,,,,,
,,,A1AT1U9SZ2T4NN,49,female,8,2022-09-21_10h01.27.159,memory_pilot_most_recent,2022.2.4,Win32,10.49042748,,,,,,,,,,,,,,,,,,,,,,,,1,0,34,34,34,1,2449442529-124445.jpg,2452380171-273112.jpg,1,,,,,,,,,,,,,,,
,,,A1AT1U9SZ2T4NN,49,female,8,2022-09-21_10h01.27.159,memory_pilot_most_recent,2022.2.4,Win32,10.49042748,,,,,,,,,,,,,,,,,,,,,,,,1,0,35,35,35,1,2883273443-68193.jpg,2460547508-51572.jpg,2,,,,,,,,,,,,,,,
,,,A1AT1U9SZ2T4NN,49,female,8,2022-09-21_10h01.27.159,memory_pilot_most_recent,2022.2.4,Win32,10.49042748,,,,,,,,,,,,,,,,,,,,,,,,1,0,36,36,36,1,2238481198-19822.jpg,2862691449-137104.jpg,1,,,,,,,,,,,,,,,
,,,A1AT1U9SZ2T4NN,49,female,8,2022-09-21_10h01.27.159,memory_pilot_most_recent,2022.2.4,Win32,10.49042748,,,,,,,,,,,,,,,,,,,,,,,,1,0,37,37,37,1,2238560245-182099.jpg,2874314526-289684.jpg,2,,,,,,,,,,,,,,,
,,,A1AT1U9SZ2T4NN,49,female,8,2022-09-21_10h01.27.159,memory_pilot_most_recent,2022.2.4,Win32,10.49042748,,,,,,,,,,,,,,,,,,,,,,,,1,0,38,38,38,1,2238480677-317399.jpg,2238481630-168218.jpg,1,,,,,,,,,,,,,,,
,,,A1AT1U9SZ2T4NN,49,female,8,2022-09-21_10h01.27.159,memory_pilot_most_recent,2022.2.4,Win32,10.49042748,,,,,,,,,,,,,,,,,,,,,,,,1,0,39,39,39,1,2964222378-71332.jpg,2981240424-145794.jpg,1,,,,,,,,,,,,,,,
,,,A1AT1U9SZ2T4NN,49,female,8,2022-09-21_10h01.27.159,memory_pilot_most_recent,2022.2.4,Win32,10.49042748,,,,,,,,,,,,,,,,,,,,,,,,1,0,40,40,40,1,2986451363-73599.jpg,2860302315-210704.jpg,2,,,,,,,,,,,,,,,
,,,A1AT1U9SZ2T4NN,49,female,8,2022-09-21_10h01.27.159,memory_pilot_most_recent,2022.2.4,Win32,10.49042748,,,,,,,,,,,,,,,,,,,,,,,,1,0,41,41,41,1,2874301407-363895.jpg,2901947323-70275.jpg,3,,,,,,,,,,,,,,,
,,,A1AT1U9SZ2T4NN,49,female,8,2022-09-21_10h01.27.159,memory_pilot_most_recent,2022.2.4,Win32,10.49042748,,,,,,,,,,,,,,,,,,,,,,,,1,0,42,42,42,1,2575120738-55529.jpg,2238531493-28260.jpg,3,,,,,,,,,,,,,,,
,,,A1AT1U9SZ2T4NN,49,female,8,2022-09-21_10h01.27.159,memory_pilot_most_recent,2022.2.4,Win32,10.49042748,,,,,,,,,,,,,,,,,,,,,,,,0,0,43,43,43,1,right.jpg,,,right,,,,,,,,,,,,,,
,,,A1AT1U9SZ2T4NN,49,female,8,2022-09-21_10h01.27.159,memory_pilot_most_recent,2022.2.4,Win32,10.49042748,,,,,,,,,,,,,,,,,,,,,,,,1,0,44,44,44,1,2898624426-291546.jpg,2981236443-71859.jpg,2,,,,,,,,,,,,,,,
,,,A1AT1U9SZ2T4NN,49,female,8,2022-09-21_10h01.27.159,memory_pilot_most_recent,2022.2.4,Win32,10.49042748,,,,,,,,,,,,,,,,,,,,,,,,1,0,45,45,45,1,2592380177-354626.jpg,2864901386-286797.jpg,2,,,,,,,,,,,,,,,
,,,A1AT1U9SZ2T4NN,49,female,8,2022-09-21_10h01.27.159,memory_pilot_most_recent,2022.2.4,Win32,10.49042748,,,,,,,,,,,,,,,,,,,,,,,,1,0,46,46,46,1,2901947423-70311.jpg,2238573447-333826.jpg,2,,,,,,,,,,,,,,,
,,,A1AT1U9SZ2T4NN,49,female,8,2022-09-21_10h01.27.159,memory_pilot_most_recent,2022.2.4,Win32,10.49042748,,,,,,,,,,,,,,,,,,,,,,,,0,0,47,47,47,1,right.jpg,,,right,,,,,,,,,,,,,,
,,,A1AT1U9SZ2T4NN,49,female,8,2022-09-21_10h01.27.159,memory_pilot_most_recent,2022.2.4,Win32,10.49042748,,,,,,,,,,,,,,,,,,,,,,,,1,0,48,48,48,1,2901939379-143479.jpg,2446758985-197610.jpg,2,,,,,,,,,,,,,,,
,,,A1AT1U9SZ2T4NN,49,female,8,2022-09-21_10h01.27.159,memory_pilot_most_recent,2022.2.4,Win32,10.49042748,,,,,,,,,,,,,,,,,,,,,,,,1,0,49,49,49,1,2964213381-294060.jpg,2964213381-294061.jpg,3,,,,,,,,,,,,,,,
,,,A1AT1U9SZ2T4NN,49,female,8,2022-09-21_10h01.27.159,memory_pilot_most_recent,2022.2.4,Win32,10.49042748,,,,,,,,,,,,,,,,,,,,,,,,1,0,50,50,50,1,2592379964-131054.jpg,2592380272-354673.jpg,3,,,,,,,,,,,,,,,
,,,A1AT1U9SZ2T4NN,49,female,8,2022-09-21_10h01.27.159,memory_pilot_most_recent,2022.2.4,Win32,10.49042748,,,,,,,,,,,,,,,,,,,,,,,,1,0,51,51,51,1,2592380177-354629.jpg,2512875587-350044.jpg,3,,,,,,,,,,,,,,,
,,,A1AT1U9SZ2T4NN,49,female,8,2022-09-21_10h01.27.159,memory_pilot_most_recent,2022.2.4,Win32,10.49042748,,,,,,,,,,,,,,,,,,,,,,,,1,0,52,52,52,1,2874299429-139694.jpg,2986447306-296584.jpg,1,,,,,,,,,,,,,,,
,,,A1AT1U9SZ2T4NN,49,female,8,2022-09-21_10h01.27.159,memory_pilot_most_recent,2022.2.4,Win32,10.49042748,,,,,,,,,,,,,,,,,,,,,,,,1,0,53,53,53,1,2898618390-216538.jpg,2237856148-989.jpg,1,,,,,,,,,,,,,,,
,,,A1AT1U9SZ2T4NN,49,female,8,2022-09-21_10h01.27.159,memory_pilot_most_recent,2022.2.4,Win32,10.49042748,,,,,,,,,,,,,,,,,,,,,,,,1,0,54,54,54,1,2868475410-213219.jpg,2238480803-19739.jpg,2,,,,,,,,,,,,,,,
,,,A1AT1U9SZ2T4NN,49,female,8,2022-09-21_10h01.27.159,memory_pilot_most_recent,2022.2.4,Win32,10.49042748,,,,,,,,,,,,,,,,,,,,,,,,1,0,55,55,55,1,2864907432-362042.jpg,2864901420-212147.jpg,1,,,,,,,,,,,,,,,
,,,A1AT1U9SZ2T4NN,49,female,8,2022-09-21_10h01.27.159,memory_pilot_most_recent,2022.2.4,Win32,10.49042748,,,,,,,,,,,,,,,,,,,,,,,,1,0,56,56,56,1,2449442529-124446.jpg,2460547536-274178.jpg,3,,,,,,,,,,,,,,,
,,,A1AT1U9SZ2T4NN,49,female,8,2022-09-21_10h01.27.159,memory_pilot_most_recent,2022.2.4,Win32,10.49042748,,,,,,,,,,,,,,,,,,,,,,,,1,0,57,57,57,1,2238580740-186218.jpg,2964220333-71258.jpg,3,,,,,,,,,,,,,,,
,,,A1AT1U9SZ2T4NN,49,female,8,2022-09-21_10h01.27.159,memory_pilot_most_recent,2022.2.4,Win32,10.49042748,,,,,,,,,,,,,,,,,,,,,,,,1,0,58,58,58,1,2898635427-367120.jpg,2898621427-366486.jpg,3,,,,,,,,,,,,,,,
,,,A1AT1U9SZ2T4NN,49,female,8,2022-09-21_10h01.27.159,memory_pilot_most_recent,2022.2.4,Win32,10.49042748,,,,,,,,,,,,,,,,,,,,,,,,1,0,59,59,59,1,2874307433-66280.jpg,2981246400-220365.jpg,2,,,,,,,,,,,,,,,
,,,A1AT1U9SZ2T4NN,49,female,8,2022-09-21_10h01.27.159,memory_pilot_most_recent,2022.2.4,Win32,10.49042748,,,,,,,,,,,,,,,,,,,,,,,,1,0,60,60,60,1,2898617468-68274.jpg,2901943387-368037.jpg,2,,,,,,,,,,,,,,,
,,,A1AT1U9SZ2T4NN,49,female,8,2022-09-21_10h01.27.159,memory_pilot_most_recent,2022.2.4,Win32,10.49042748,,,,,,,,,,,,,,,,,,,,,,,,1,0,61,61,61,1,2446758985-197609.jpg,2898624426-291544.jpg,3,,,,,,,,,,,,,,,
,,,A1AT1U9SZ2T4NN,49,female,8,2022-09-21_10h01.27.159,memory_pilot_most_recent,2022.2.4,Win32,10.49042748,,,,,,,,,,,,,,,,,,,,,,,,1,0,62,62,62,1,2901941401-292798.jpg,2898631468-68931.jpg,3,,,,,,,,,,,,,,,
,,,A1AT1U9SZ2T4NN,49,female,8,2022-09-21_10h01.27.159,memory_pilot_most_recent,2022.2.4,Win32,10.49042748,,,,,,,,,,,,,,,,,,,,,,,,1,0,63,63,63,1,2964216465-219242.jpg,2864900319-137787.jpg,2,,,,,,,,,,,,,,,
,,,A1AT1U9SZ2T4NN,49,female,8,2022-09-21_10h01.27.159,memory_pilot_most_recent,2022.2.4,Win32,10.49042748,,,,,,,,,,,,,,,,,,,,,,,,1,0,64,64,64,1,2238428357-313623.jpg,2238499057-320266.jpg,1,,,,,,,,,,,,,,,
,,,A1AT1U9SZ2T4NN,49,female,8,2022-09-21_10h01.27.159,memory_pilot_most_recent,2022.2.4,Win32,10.49042748,,,,,,,,,,,,,,,,,,,,,,,,,,,,,,,,,,space,2.278,,,,,,,,,,,,
,,,A1AT1U9SZ2T4NN,49,female,8,2022-09-21_10h01.27.159,memory_pilot_most_recent,2022.2.4,Win32,10.49042748,,,,,,,,,,,,,,,,,,,,,,,,,,,,,,,,,,,,,,,,,,,,,,,
,,,A1AT1U9SZ2T4NN,49,female,8,2022-09-21_10h01.27.159,memory_pilot_most_recent,2022.2.4,Win32,10.49042748,,,,,,,,,,,,,,,,,,,,,,,,,,,,,,,,2,right,,,right,1,2.4192,0,0,0,0,1,2446758985-197610.jpg,2901939379-143479.jpg,,
,,,A1AT1U9SZ2T4NN,49,female,8,2022-09-21_10h01.27.159,memory_pilot_most_recent,2022.2.4,Win32,10.49042748,,,,,,,,,,,,,,,,,,,,,,,,,,,,,,,,3,left,,,right,0,0.1691,0,1,1,1,1,2901941401-292798.jpg,2898631468-68931.jpg,,
,,,A1AT1U9SZ2T4NN,49,female,8,2022-09-21_10h01.27.159,memory_pilot_most_recent,2022.2.4,Win32,10.49042748,,,,,,,,,,,,,,,,,,,,,,,,,,,,,,,,3,right,,,right,1,0.6105,0,2,2,2,1,2238481198-19821.jpg,2901952513-70703.jpg,,
,,,A1AT1U9SZ2T4NN,49,female,8,2022-09-21_10h01.27.159,memory_pilot_most_recent,2022.2.4,Win32,10.49042748,,,,,,,,,,,,,,,,,,,,,,,,,,,,,,,,3,left,,,right,0,0.0091,0,3,3,3,1,2592380177-354629.jpg,2512875587-350044.jpg,,
,,,A1AT1U9SZ2T4NN,49,female,8,2022-09-21_10h01.27.159,memory_pilot_most_recent,2022.2.4,Win32,10.49042748,,,,,,,,,,,,,,,,,,,,,,,,,,,,,,,,3,left,,,right,0,0.2326,0,4,4,4,1,2449442529-124446.jpg,2460547536-274178.jpg,,
,,,A1AT1U9SZ2T4NN,49,female,8,2022-09-21_10h01.27.159,memory_pilot_most_recent,2022.2.4,Win32,10.49042748,,,,,,,,,,,,,,,,,,,,,,,,,,,,,,,,2,left,,,right,0,0.2602,0,5,5,5,1,2883268471-290842.jpg,2883255450-215310.jpg,,
,,,A1AT1U9SZ2T4NN,49,female,8,2022-09-21_10h01.27.159,memory_pilot_most_recent,2022.2.4,Win32,10.49042748,,,,,,,,,,,,,,,,,,,,,,,,,,,,,,,,3,right,,,right,1,1.4953,0,6,6,6,1,2898633480-217190.jpg,2238425482-313537.jpg,,
,,,A1AT1U9SZ2T4NN,49,female,8,2022-09-21_10h01.27.159,memory_pilot_most_recent,2022.2.4,Win32,10.49042748,,,,,,,,,,,,,,,,,,,,,,,,,,,,,,,,1,left,,,right,0,0.2554,0,7,7,7,1,2512875899-126682.jpg,2460547536-274179.jpg,,
,,,A1AT1U9SZ2T4NN,49,female,8,2022-09-21_10h01.27.159,memory_pilot_most_recent,2022.2.4,Win32,10.49042748,,,,,,,,,,,,,,,,,,,,,,,,,,,,,,,,1,left,,,right,0,0.118099999,0,8,8,8,1,2964222378-71332.jpg,2981240424-145794.jpg,,
,,,A1AT1U9SZ2T4NN,49,female,8,2022-09-21_10h01.27.159,memory_pilot_most_recent,2022.2.4,Win32,10.49042748,,,,,,,,,,,,,,,,,,,,,,,,,,,,,,,,3,left,,,right,0,1.2976,0,9,9,9,1,2460547508-51571.jpg,2901941438-69835.jpg,,
,,,A1AT1U9SZ2T4NN,49,female,8,2022-09-21_10h01.27.159,memory_pilot_most_recent,2022.2.4,Win32,10.49042748,,,,,,,,,,,,,,,,,,,,,,,,,,,,,,,,1,left,,,right,0,6.1831,0,10,10,10,1,2898633421-291973.jpg,2512876023-52283.jpg,,
,,,A1AT1U9SZ2T4NN,49,female,8,2022-09-21_10h01.27.159,memory_pilot_most_recent,2022.2.4,Win32,10.49042748,,,,,,,,,,,,,,,,,,,,,,,,,,,,,,,,1,right,,,right,1,1.1128,0,11,11,11,1,2883266388-67750.jpg,2874299429-139695.jpg,,
,,,A1AT1U9SZ2T4NN,49,female,8,2022-09-21_10h01.27.159,memory_pilot_most_recent,2022.2.4,Win32,10.49042748,,,,,,,,,,,,,,,,,,,,,,,,,,,,,,,,1,left,,,right,0,2.5899,0,12,12,12,1,2964218374-144967.jpg,2964218374-144968.jpg,,
,,,A1AT1U9SZ2T4NN,49,female,8,2022-09-21_10h01.27.159,memory_pilot_most_recent,2022.2.4,Win32,10.49042748,,,,,,,,,,,,,,,,,,,,,,,,,,,,,,,,1,left,,,right,0,1.2055,0,13,13,13,1,2238480677-317399.jpg,2238481630-168218.jpg,,
,,,A1AT1U9SZ2T4NN,49,female,8,2022-09-21_10h01.27.159,memory_pilot_most_recent,2022.2.4,Win32,10.49042748,,,,,,,,,,,,,,,,,,,,,,,,,,,,,,,,2,right,,,right,1,2.160700001,0,14,14,14,1,2864901386-286797.jpg,2592380177-354626.jpg,,
,,,A1AT1U9SZ2T4NN,49,female,8,2022-09-21_10h01.27.159,memory_pilot_most_recent,2022.2.4,Win32,10.49042748,,,,,,,,,,,,,,,,,,,,,,,,,,,,,,,,3,right,,,right,1,3.434900001,0,15,15,15,1,2901951392-368654.jpg,2446759803-49249.jpg,,
,,,A1AT1U9SZ2T4NN,49,female,8,2022-09-21_10h01.27.159,memory_pilot_most_recent,2022.2.4,Win32,10.49042748,,,,,,,,,,,,,,,,,,,,,,,,,,,,,,,,1,right,,,right,1,1.9442,0,16,16,16,1,2237856148-989.jpg,2898618390-216538.jpg,,
,,,A1AT1U9SZ2T4NN,49,female,8,2022-09-21_10h01.27.159,memory_pilot_most_recent,2022.2.4,Win32,10.49042748,,,,,,,,,,,,,,,,,,,,,,,,,,,,,,,,3,right,,,left,0,1.3827,0,17,17,17,1,2864911457-362260.jpg,2874303365-214262.jpg,,
,,,A1AT1U9SZ2T4NN,49,female,8,2022-09-21_10h01.27.159,memory_pilot_most_recent,2022.2.4,Win32,10.49042748,,,,,,,,,,,,,,,,,,,,,,,,,,,,,,,,3,left,,,left,1,0.7038,0,18,18,18,1,2446758985-197609.jpg,2898624426-291544.jpg,,
,,,A1AT1U9SZ2T4NN,49,female,8,2022-09-21_10h01.27.159,memory_pilot_most_recent,2022.2.4,Win32,10.49042748,,,,,,,,,,,,,,,,,,,,,,,,,,,,,,,,3,right,,,left,0,0.5855,0,19,19,19,1,2238531493-28260.jpg,2575120738-55529.jpg,,
,,,A1AT1U9SZ2T4NN,49,female,8,2022-09-21_10h01.27.159,memory_pilot_most_recent,2022.2.4,Win32,10.49042748,,,,,,,,,,,,,,,,,,,,,,,,,,,,,,,,2,right,,,left,0,0.6341,0,20,20,20,1,2238480803-19739.jpg,2868475410-213219.jpg,,
,,,A1AT1U9SZ2T4NN,49,female,8,2022-09-21_10h01.27.159,memory_pilot_most_recent,2022.2.4,Win32,10.49042748,,,,,,,,,,,,,,,,,,,,,,,,,,,,,,,,3,right,,,left,0,0.7493,0,21,21,21,1,2901947323-70275.jpg,2874301407-363895.jpg,,
,,,A1AT1U9SZ2T4NN,49,female,8,2022-09-21_10h01.27.159,memory_pilot_most_recent,2022.2.4,Win32,10.49042748,,,,,,,,,,,,,,,,,,,,,,,,,,,,,,,,3,right,,,left,0,0.8629,0,22,22,22,1,2964220333-71258.jpg,2238580740-186218.jpg,,
,,,A1AT1U9SZ2T4NN,49,female,8,2022-09-21_10h01.27.159,memory_pilot_most_recent,2022.2.4,Win32,10.49042748,,,,,,,,,,,,,,,,,,,,,,,,,,,,,,,,1,right,,,left,0,1.0955,0,23,23,23,1,2898631394-142727.jpg,2460547467-349421.jpg,,
,,,A1AT1U9SZ2T4NN,49,female,8,2022-09-21_10h01.27.159,memory_pilot_most_recent,2022.2.4,Win32,10.49042748,,,,,,,,,,,,,,,,,,,,,,,,,,,,,,,,1,right,,,left,0,0.9583,0,24,24,24,1,2237944827-301472.jpg,2898634397-367080.jpg,,
,,,A1AT1U9SZ2T4NN,49,female,8,2022-09-21_10h01.27.159,memory_pilot_most_recent,2022.2.4,Win32,10.49042748,,,,,,,,,,,,,,,,,,,,,,,,,,,,,,,,1,right,,,left,0,1.0515,0,25,25,25,1,2986447306-296584.jpg,2874299429-139694.jpg,,
,,,A1AT1U9SZ2T4NN,49,female,8,2022-09-21_10h01.27.159,memory_pilot_most_recent,2022.2.4,Win32,10.49042748,,,,,,,,,,,,,,,,,,,,,,,,,,,,,,,,1,right,,,right,1,1.530599999,0,26,26,26,1,2238584894-113161.jpg,2238572663-35822.jpg,,
,,,A1AT1U9SZ2T4NN,49,female,8,2022-09-21_10h01.27.159,memory_pilot_most_recent,2022.2.4,Win32,10.49042748,,,,,,,,,,,,,,,,,,,,,,,,,,,,,,,,1,left,,,right,0,0.7244,0,27,27,27,1,2238428357-313623.jpg,2238499057-320266.jpg,,
,,,A1AT1U9SZ2T4NN,49,female,8,2022-09-21_10h01.27.159,memory_pilot_most_recent,2022.2.4,Win32,10.49042748,,,,,,,,,,,,,,,,,,,,,,,,,,,,,,,,2,right,,,right,1,0.7458,0,28,28,28,1,2238481813-19930.jpg,2452380832-348593.jpg,,
,,,A1AT1U9SZ2T4NN,49,female,8,2022-09-21_10h01.27.159,memory_pilot_most_recent,2022.2.4,Win32,10.49042748,,,,,,,,,,,,,,,,,,,,,,,,,,,,,,,,2,left,,,right,0,0.847599999,0,29,29,29,1,2986451363-73599.jpg,2860302315-210704.jpg,,
,,,A1AT1U9SZ2T4NN,49,female,8,2022-09-21_10h01.27.159,memory_pilot_most_recent,2022.2.4,Win32,10.49042748,,,,,,,,,,,,,,,,,,,,,,,,,,,,,,,,2,left,,,right,0,0.246599999,0,30,30,30,1,2964216465-219242.jpg,2864900319-137787.jpg,,
,,,A1AT1U9SZ2T4NN,49,female,8,2022-09-21_10h01.27.159,memory_pilot_most_recent,2022.2.4,Win32,10.49042748,,,,,,,,,,,,,,,,,,,,,,,,,,,,,,,,3,left,,,right,0,0.5168,0,31,31,31,1,2964213381-294060.jpg,2964213381-294061.jpg,,
,,,A1AT1U9SZ2T4NN,49,female,8,2022-09-21_10h01.27.159,memory_pilot_most_recent,2022.2.4,Win32,10.49042748,,,,,,,,,,,,,,,,,,,,,,,,,,,,,,,,3,right,,,right,1,0.8529,0,32,32,32,1,2994401319-148290.jpg,2452381505-199546.jpg,,
,,,A1AT1U9SZ2T4NN,49,female,8,2022-09-21_10h01.27.159,memory_pilot_most_recent,2022.2.4,Win32,10.49042748,,,,,,,,,,,,,,,,,,,,,,,,,,,,,,,,2,right,,,right,1,3.495400001,0,33,33,33,1,2883268412-365899.jpg,2864910426-287204.jpg,,
,,,A1AT1U9SZ2T4NN,49,female,8,2022-09-21_10h01.27.159,memory_pilot_most_recent,2022.2.4,Win32,10.49042748,,,,,,,,,,,,,,,,,,,,,,,,,,,,,,,,1,right,,,right,1,2.626599999,0,34,34,34,1,2237857458-1324.jpg,2986451363-73598.jpg,,
,,,A1AT1U9SZ2T4NN,49,female,8,2022-09-21_10h01.27.159,memory_pilot_most_recent,2022.2.4,Win32,10.49042748,,,,,,,,,,,,,,,,,,,,,,,,,,,,,,,,2,left,,,right,0,1.13,0,35,35,35,1,2883273443-68193.jpg,2460547508-51572.jpg,,
,,,A1AT1U9SZ2T4NN,49,female,8,2022-09-21_10h01.27.159,memory_pilot_most_recent,2022.2.4,Win32,10.49042748,,,,,,,,,,,,,,,,,,,,,,,,,,,,,,,,1,left,,,left,1,1.326299999,0,36,36,36,1,2864907432-362042.jpg,2864901420-212147.jpg,,
,,,A1AT1U9SZ2T4NN,49,female,8,2022-09-21_10h01.27.159,memory_pilot_most_recent,2022.2.4,Win32,10.49042748,,,,,,,,,,,,,,,,,,,,,,,,,,,,,,,,1,left,,,left,1,0.6327,0,37,37,37,1,2460547467-349422.jpg,2898618440-216545.jpg,,
,,,A1AT1U9SZ2T4NN,49,female,8,2022-09-21_10h01.27.159,memory_pilot_most_recent,2022.2.4,Win32,10.49042748,,,,,,,,,,,,,,,,,,,,,,,,,,,,,,,,2,left,,,left,1,0.476299999,0,38,38,38,1,2898618444-142233.jpg,2238555262-330312.jpg,,
,,,A1AT1U9SZ2T4NN,49,female,8,2022-09-21_10h01.27.159,memory_pilot_most_recent,2022.2.4,Win32,10.49042748,,,,,,,,,,,,,,,,,,,,,,,,,,,,,,,,2,right,,,right,1,13.6852,0,39,39,39,1,2981236443-71859.jpg,2898624426-291546.jpg,,
,,,A1AT1U9SZ2T4NN,49,female,8,2022-09-21_10h01.27.159,memory_pilot_most_recent,2022.2.4,Win32,10.49042748,,,,,,,,,,,,,,,,,,,,,,,,,,,,,,,,2,left,,,right,0,0.806099999,0,40,40,40,1,2238560245-182099.jpg,2874314526-289684.jpg,,
,,,A1AT1U9SZ2T4NN,49,female,8,2022-09-21_10h01.27.159,memory_pilot_most_recent,2022.2.4,Win32,10.49042748,,,,,,,,,,,,,,,,,,,,,,,,,,,,,,,,3,right,,,right,1,2.894400001,0,41,41,41,1,2864904453-63933.jpg,2883256307-365057.jpg,,
,,,A1AT1U9SZ2T4NN,49,female,8,2022-09-21_10h01.27.159,memory_pilot_most_recent,2022.2.4,Win32,10.49042748,,,,,,,,,,,,,,,,,,,,,,,,,,,,,,,,1,left,,,right,0,4.0784,0,42,42,42,1,2981241414-145842.jpg,2238516618-25604.jpg,,
,,,A1AT1U9SZ2T4NN,49,female,8,2022-09-21_10h01.27.159,memory_pilot_most_recent,2022.2.4,Win32,10.49042748,,,,,,,,,,,,,,,,,,,,,,,,,,,,,,,,3,left,,,right,0,9.4722,0,43,43,43,1,2898635427-367120.jpg,2898621427-366486.jpg,,
,,,A1AT1U9SZ2T4NN,49,female,8,2022-09-21_10h01.27.159,memory_pilot_most_recent,2022.2.4,Win32,10.49042748,,,,,,,,,,,,,,,,,,,,,,,,,,,,,,,,2,left,,,right,0,21.1001,0,44,44,44,1,2901947423-70311.jpg,2238573447-333826.jpg,,
,,,A1AT1U9SZ2T4NN,49,female,8,2022-09-21_10h01.27.159,memory_pilot_most_recent,2022.2.4,Win32,10.49042748,,,,,,,,,,,,,,,,,,,,,,,,,,,,,,,,1,right,,,right,1,1.3685,0,45,45,45,1,2452380171-273112.jpg,2449442529-124445.jpg,,
,,,A1AT1U9SZ2T4NN,49,female,8,2022-09-21_10h01.27.159,memory_pilot_most_recent,2022.2.4,Win32,10.49042748,,,,,,,,,,,,,,,,,,,,,,,,,,,,,,,,1,right,,,right,1,0.1351,0,46,46,46,1,2579432519-130698.jpg,2981231403-71642.jpg,,
,,,A1AT1U9SZ2T4NN,49,female,8,2022-09-21_10h01.27.159,memory_pilot_most_recent,2022.2.4,Win32,10.49042748,,,,,,,,,,,,,,,,,,,,,,,,,,,,,,,,3,left,,,right,0,0.131299999,0,47,47,47,1,2883268412-365898.jpg,2238436252-314037.jpg,,
,,,A1AT1U9SZ2T4NN,49,female,8,2022-09-21_10h01.27.159,memory_pilot_most_recent,2022.2.4,Win32,10.49042748,,,,,,,,,,,,,,,,,,,,,,,,,,,,,,,,2,left,,,right,0,0.1305,0,48,48,48,1,2868474407-362883.jpg,2981246400-220363.jpg,,
,,,A1AT1U9SZ2T4NN,49,female,8,2022-09-21_10h01.27.159,memory_pilot_most_recent,2022.2.4,Win32,10.49042748,,,,,,,,,,,,,,,,,,,,,,,,,,,,,,,,3,right,,,right,1,0.3577,0,49,49,49,1,2981241419-145844.jpg,2238481928-19949.jpg,,
,,,A1AT1U9SZ2T4NN,49,female,8,2022-09-21_10h01.27.159,memory_pilot_most_recent,2022.2.4,Win32,10.49042748,,,,,,,,,,,,,,,,,,,,,,,,,,,,,,,,2,left,,,right,0,0.4875,0,50,50,50,1,2898617468-68274.jpg,2901943387-368037.jpg,,
,,,A1AT1U9SZ2T4NN,49,female,8,2022-09-21_10h01.27.159,memory_pilot_most_recent,2022.2.4,Win32,10.49042748,,,,,,,,,,,,,,,,,,,,,,,,,,,,,,,,1,right,,,right,1,0.7256,0,51,51,51,1,2446759803-49250.jpg,2898635428-69104.jpg,,
,,,A1AT1U9SZ2T4NN,49,female,8,2022-09-21_10h01.27.159,memory_pilot_most_recent,2022.2.4,Win32,10.49042748,,,,,,,,,,,,,,,,,,,,,,,,,,,,,,,,2,left,,,right,0,0.3297,0,52,52,52,1,2874307433-66280.jpg,2981246400-220365.jpg,,
,,,A1AT1U9SZ2T4NN,49,female,8,2022-09-21_10h01.27.159,memory_pilot_most_recent,2022.2.4,Win32,10.49042748,,,,,,,,,,,,,,,,,,,,,,,,,,,,,,,,2,left,,,right,0,0.6873,0,53,53,53,1,2874302418-65978.jpg,2238481198-19823.jpg,,
,,,A1AT1U9SZ2T4NN,49,female,8,2022-09-21_10h01.27.159,memory_pilot_most_recent,2022.2.4,Win32,10.49042748,,,,,,,,,,,,,,,,,,,,,,,,,,,,,,,,3,right,,,right,1,0.4903,0,54,54,54,1,2592380272-354673.jpg,2592379964-131054.jpg,,
,,,A1AT1U9SZ2T4NN,49,female,8,2022-09-21_10h01.27.159,memory_pilot_most_recent,2022.2.4,Win32,10.49042748,,,,,,,,,,,,,,,,,,,,,,,,,,,,,,,,3,left,,,right,0,0.2661,0,55,55,55,1,2901939379-143480.jpg,2898632385-217139.jpg,,
,,,A1AT1U9SZ2T4NN,49,female,8,2022-09-21_10h01.27.159,memory_pilot_most_recent,2022.2.4,Win32,10.49042748,,,,,,,,,,,,,,,,,,,,,,,,,,,,,,,,2,right,,,right,1,0.3486,0,56,56,56,1,2901941438-69836.jpg,2964223381-294447.jpg,,
,,,A1AT1U9SZ2T4NN,49,female,8,2022-09-21_10h01.27.159,memory_pilot_most_recent,2022.2.4,Win32,10.49042748,,,,,,,,,,,,,,,,,,,,,,,,,,,,,,,,1,right,,,right,1,0.1237,0,57,57,57,1,2862691449-137104.jpg,2238481198-19822.jpg,,
,,,A1AT1U9SZ2T4NN,49,female,8,2022-09-21_10h01.27.159,memory_pilot_most_recent,2022.2.4,Win32,10.49042748,,,,,,,,,,,,,,,,,,,,,,,,,,,,,,,,2,left,,,right,0,0.114599999,0,58,58,58,1,2874302418-65979.jpg,2238480648-19714.jpg,,
,,,A1AT1U9SZ2T4NN,49,female,8,2022-09-21_10h01.27.159,memory_pilot_most_recent,2022.2.4,Win32,10.49042748,,,,,,,,,,,,,,,,,,,,,,,,,,,,,,,,2,left,,,right,0,0.274,0,59,59,59,1,2458347385-199723.jpg,2427874554-121863.jpg,,
,,,A1AT1U9SZ2T4NN,49,female,8,2022-09-21_10h01.27.159,memory_pilot_most_recent,2022.2.4,Win32,10.49042748,,,,,,,,,,,,,,,,,,,,,,,,,,,,,,,,,,,,,,,,,,,,,,space,56.7874
