button.numClicks,button.timesOn,button.timesOff,workID,Age,Gender,Hours slept (last night),date,expName,psychopyVersion,OS,frameRate,space_key_responce.keys,space_key_responce.rt,demo_encoding_response.keys,demo_encoding_response.corr,demo_encoding_loop.thisRepN,demo_encoding_loop.thisTrialN,demo_encoding_loop.thisN,demo_encoding_loop.thisIndex,demo_encoding_loop.ran,DemoImage,DemoCorrect,demo_encoding_response.rt,demo_test_response.keys,demo_test_response.corr,demo_test_response.rt,demo_test_loop.thisRepN,demo_test_loop.thisTrialN,demo_test_loop.thisN,demo_test_loop.thisIndex,demo_test_loop.ran,DemoImage1,DemoImage2,DemoCorrectTest,test_encoding_response.keys,test_encoding_response.corr,trials.thisRepN,trials.thisTrialN,trials.thisN,trials.thisIndex,trials.ran,target_image,pair,layer,correct,test_encoding_response.rt,key_resp_end.keys,key_resp_end.rt,test_test_response.keys,test_test_response.corr,test_test_response.rt,trials_2.thisRepN,trials_2.thisTrialN,trials_2.thisN,trials_2.thisIndex,trials_2.ran,image1,image2,key_resp_end_2.keys,key_resp_end_2.rt
1,[62.642000000000024],[62.642000000000024],A137V1J5GNNZTH,25,Female,8,2022-11-24_14h32.35.842,memory_pilot_most_recent,2022.2.4,Win32,10.66666667,,,,,,,,,,,,,,,,,,,,,,,,,,,,,,,,,,,,,,,,,,,,,,,,,
,,,A137V1J5GNNZTH,25,Female,8,2022-11-24_14h32.35.842,memory_pilot_most_recent,2022.2.4,Win32,10.66666667,,,,,,,,,,,,,,,,,,,,,,,,,,,,,,,,,,,,,,,,,,,,,,,,,
,,,A137V1J5GNNZTH,25,Female,8,2022-11-24_14h32.35.842,memory_pilot_most_recent,2022.2.4,Win32,10.66666667,space,15.593,,,,,,,,,,,,,,,,,,,,,,,,,,,,,,,,,,,,,,,,,,,,,,,
,,,A137V1J5GNNZTH,25,Female,8,2022-11-24_14h32.35.842,memory_pilot_most_recent,2022.2.4,Win32,10.66666667,,,,,,,,,,,,,,,,,,,,,,,,,,,,,,,,,,,,,,,,,,,,,,,,,
,,,A137V1J5GNNZTH,25,Female,8,2022-11-24_14h32.35.842,memory_pilot_most_recent,2022.2.4,Win32,10.66666667,,,,1,0,0,0,0,1,flower1.jpg,,,,,,,,,,,,,,,,,,,,,,,,,,,,,,,,,,,,,,,
,,,A137V1J5GNNZTH,25,Female,8,2022-11-24_14h32.35.842,memory_pilot_most_recent,2022.2.4,Win32,10.66666667,,,,1,0,1,1,1,1,flower2.jpg,,,,,,,,,,,,,,,,,,,,,,,,,,,,,,,,,,,,,,,
,,,A137V1J5GNNZTH,25,Female,8,2022-11-24_14h32.35.842,memory_pilot_most_recent,2022.2.4,Win32,10.66666667,,,left,1,0,2,2,2,1,left.jpg,left,1.017,,,,,,,,,,,,,,,,,,,,,,,,,,,,,,,,,,,,,
,,,A137V1J5GNNZTH,25,Female,8,2022-11-24_14h32.35.842,memory_pilot_most_recent,2022.2.4,Win32,10.66666667,,,,1,0,3,3,3,1,flower3.jpg,,,,,,,,,,,,,,,,,,,,,,,,,,,,,,,,,,,,,,,
,,,A137V1J5GNNZTH,25,Female,8,2022-11-24_14h32.35.842,memory_pilot_most_recent,2022.2.4,Win32,10.66666667,,,,1,0,4,4,4,1,flower4.jpg,,,,,,,,,,,,,,,,,,,,,,,,,,,,,,,,,,,,,,,
,,,A137V1J5GNNZTH,25,Female,8,2022-11-24_14h32.35.842,memory_pilot_most_recent,2022.2.4,Win32,10.66666667,,,,1,0,5,5,5,1,flower5.jpg,,,,,,,,,,,,,,,,,,,,,,,,,,,,,,,,,,,,,,,
,,,A137V1J5GNNZTH,25,Female,8,2022-11-24_14h32.35.842,memory_pilot_most_recent,2022.2.4,Win32,10.66666667,,,,1,0,6,6,6,1,flower6.jpg,,,,,,,,,,,,,,,,,,,,,,,,,,,,,,,,,,,,,,,
,,,A137V1J5GNNZTH,25,Female,8,2022-11-24_14h32.35.842,memory_pilot_most_recent,2022.2.4,Win32,10.66666667,,,,,,,,,,,,,,,,,,,,,,,,,,,,,,,,,,,,,,,,,,,,,,,,,
,,,A137V1J5GNNZTH,25,Female,8,2022-11-24_14h32.35.842,memory_pilot_most_recent,2022.2.4,Win32,10.66666667,,,,,,,,,,,,,left,1,6.24,0,0,0,0,1,flower1.jpg,flower1_pair.jpg,left,,,,,,,,,,,,,,,,,,,,,,,,,,
,,,A137V1J5GNNZTH,25,Female,8,2022-11-24_14h32.35.842,memory_pilot_most_recent,2022.2.4,Win32,10.66666667,,,,,,,,,,,,,right,1,6.53,0,1,1,1,1,flower2_pair.jpg,flower2.jpg,right,,,,,,,,,,,,,,,,,,,,,,,,,,
,,,A137V1J5GNNZTH,25,Female,8,2022-11-24_14h32.35.842,memory_pilot_most_recent,2022.2.4,Win32,10.66666667,,,,,,,,,,,,,left,1,3.547,0,2,2,2,1,flower3.jpg,flower3_pair.jpg,left,,,,,,,,,,,,,,,,,,,,,,,,,,
,,,A137V1J5GNNZTH,25,Female,8,2022-11-24_14h32.35.842,memory_pilot_most_recent,2022.2.4,Win32,10.66666667,,,,,,,,,,,,,left,1,3.674,0,3,3,3,1,flower4.jpg,flower4_pair.jpg,left,,,,,,,,,,,,,,,,,,,,,,,,,,
,,,A137V1J5GNNZTH,25,Female,8,2022-11-24_14h32.35.842,memory_pilot_most_recent,2022.2.4,Win32,10.66666667,,,,,,,,,,,,,right,1,3.294,0,4,4,4,1,flower5_pair.jpg,flower5.jpg,right,,,,,,,,,,,,,,,,,,,,,,,,,,
,,,A137V1J5GNNZTH,25,Female,8,2022-11-24_14h32.35.842,memory_pilot_most_recent,2022.2.4,Win32,10.66666667,,,,,,,,,,,,,left,1,3.004,0,5,5,5,1,flower6.jpg,flower6_pair.jpg,left,,,,,,,,,,,,,,,,,,,,,,,,,,
,,,A137V1J5GNNZTH,25,Female,8,2022-11-24_14h32.35.842,memory_pilot_most_recent,2022.2.4,Win32,10.66666667,,,,,,,,,,,,,,,,,,,,,,,,,,,,,,,,,,,,,,,,,,,,,,,,,
,,,A137V1J5GNNZTH,25,Female,8,2022-11-24_14h32.35.842,memory_pilot_most_recent,2022.2.4,Win32,10.66666667,space,3.819,,,,,,,,,,,,,,,,,,,,,,,,,,,,,,,,,,,,,,,,,,,,,,,
,,,A137V1J5GNNZTH,25,Female,8,2022-11-24_14h32.35.842,memory_pilot_most_recent,2022.2.4,Win32,10.66666667,,,,,,,,,,,,,,,,,,,,,,,,,1,0,0,0,0,1,2238572663-35822.jpg,2575118671-277663.jpg,1,,,,,,,,,,,,,,,,
,,,A137V1J5GNNZTH,25,Female,8,2022-11-24_14h32.35.842,memory_pilot_most_recent,2022.2.4,Win32,10.66666667,,,,,,,,,,,,,,,,,,,,,,,,,1,0,1,1,1,1,2883256307-365057.jpg,2864901420-212148.jpg,2,,,,,,,,,,,,,,,,
,,,A137V1J5GNNZTH,25,Female,8,2022-11-24_14h32.35.842,memory_pilot_most_recent,2022.2.4,Win32,10.66666667,,,,,,,,,,,,,,,,,,,,,,,,,1,0,2,2,2,1,2868474407-362883.jpg,2898634332-367068.jpg,3,,,,,,,,,,,,,,,,
,,,A137V1J5GNNZTH,25,Female,8,2022-11-24_14h32.35.842,memory_pilot_most_recent,2022.2.4,Win32,10.66666667,,,,,,,,,,,,,,,,,,,,,,,,,1,0,3,3,3,1,2901941401-292798.jpg,2883273443-68192.jpg,3,,,,,,,,,,,,,,,,
,,,A137V1J5GNNZTH,25,Female,8,2022-11-24_14h32.35.842,memory_pilot_most_recent,2022.2.4,Win32,10.66666667,,,,,,,,,,,,,,,,,,,,,,,,,1,0,4,4,4,1,2898633421-291973.jpg,2989730319-147821.jpg,3,,,,,,,,,,,,,,,,
,,,A137V1J5GNNZTH,25,Female,8,2022-11-24_14h32.35.842,memory_pilot_most_recent,2022.2.4,Win32,10.66666667,,,,,,,,,,,,,,,,,,,,,,,,,1,0,5,5,5,1,2898634397-367080.jpg,2898636423-69152.jpg,2,,,,,,,,,,,,,,,,
,,,A137V1J5GNNZTH,25,Female,8,2022-11-24_14h32.35.842,memory_pilot_most_recent,2022.2.4,Win32,10.66666667,,,,,,,,,,,,,,,,,,,,,,,,,1,0,6,6,6,1,2575120738-55529.jpg,2898632385-217137.jpg,1,,,,,,,,,,,,,,,,
,,,A137V1J5GNNZTH,25,Female,8,2022-11-24_14h32.35.842,memory_pilot_most_recent,2022.2.4,Win32,10.66666667,,,,,,,,,,,,,,,,,,,,,,,,,1,0,7,7,7,1,2460547467-349421.jpg,2981235446-294901.jpg,2,,,,,,,,,,,,,,,,
,,,A137V1J5GNNZTH,25,Female,8,2022-11-24_14h32.35.842,memory_pilot_most_recent,2022.2.4,Win32,10.66666667,,,,,,,,,,,,,,,,,,,,,,,,right,1,0,8,8,8,1,right.jpg,,,right,1.638,,,,,,,,,,,,,,
,,,A137V1J5GNNZTH,25,Female,8,2022-11-24_14h32.35.842,memory_pilot_most_recent,2022.2.4,Win32,10.66666667,,,,,,,,,,,,,,,,,,,,,,,,,1,0,9,9,9,1,2898635428-69104.jpg,2446759803-49250.jpg,1,,,,,,,,,,,,,,,,
,,,A137V1J5GNNZTH,25,Female,8,2022-11-24_14h32.35.842,memory_pilot_most_recent,2022.2.4,Win32,10.66666667,,,,,,,,,,,,,,,,,,,,,,,,,1,0,10,10,10,1,2592380177-354629.jpg,2847210303-60991.jpg,3,,,,,,,,,,,,,,,,
,,,A137V1J5GNNZTH,25,Female,8,2022-11-24_14h32.35.842,memory_pilot_most_recent,2022.2.4,Win32,10.66666667,,,,,,,,,,,,,,,,,,,,,,,,,1,0,11,11,11,1,2864907432-362042.jpg,2864901420-212147.jpg,1,,,,,,,,,,,,,,,,
,,,A137V1J5GNNZTH,25,Female,8,2022-11-24_14h32.35.842,memory_pilot_most_recent,2022.2.4,Win32,10.66666667,,,,,,,,,,,,,,,,,,,,,,,,,1,0,12,12,12,1,2874302418-65978.jpg,2238567130-183315.jpg,3,,,,,,,,,,,,,,,,
,,,A137V1J5GNNZTH,25,Female,8,2022-11-24_14h32.35.842,memory_pilot_most_recent,2022.2.4,Win32,10.66666667,,,,,,,,,,,,,,,,,,,,,,,,,1,0,13,13,13,1,2238480677-317399.jpg,2238573546-258454.jpg,3,,,,,,,,,,,,,,,,
,,,A137V1J5GNNZTH,25,Female,8,2022-11-24_14h32.35.842,memory_pilot_most_recent,2022.2.4,Win32,10.66666667,,,,,,,,,,,,,,,,,,,,,,,,,1,0,14,14,14,1,2898624426-291546.jpg,2964207374-144577.jpg,1,,,,,,,,,,,,,,,,
,,,A137V1J5GNNZTH,25,Female,8,2022-11-24_14h32.35.842,memory_pilot_most_recent,2022.2.4,Win32,10.66666667,,,,,,,,,,,,,,,,,,,,,,,,,1,0,15,15,15,1,2238481928-19949.jpg,2883264367-365620.jpg,1,,,,,,,,,,,,,,,,
,,,A137V1J5GNNZTH,25,Female,8,2022-11-24_14h32.35.842,memory_pilot_most_recent,2022.2.4,Win32,10.66666667,,,,,,,,,,,,,,,,,,,,,,,,,1,0,16,16,16,1,2238560245-182099.jpg,2238467949-92250.jpg,2,,,,,,,,,,,,,,,,
,,,A137V1J5GNNZTH,25,Female,8,2022-11-24_14h32.35.842,memory_pilot_most_recent,2022.2.4,Win32,10.66666667,,,,,,,,,,,,,,,,,,,,,,,,,1,0,17,17,17,1,2446758985-197609.jpg,2238087237-303447.jpg,3,,,,,,,,,,,,,,,,
,,,A137V1J5GNNZTH,25,Female,8,2022-11-24_14h32.35.842,memory_pilot_most_recent,2022.2.4,Win32,10.66666667,,,,,,,,,,,,,,,,,,,,,,,,,1,0,18,18,18,1,2898618444-142233.jpg,2862691449-137104.jpg,2,,,,,,,,,,,,,,,,
,,,A137V1J5GNNZTH,25,Female,8,2022-11-24_14h32.35.842,memory_pilot_most_recent,2022.2.4,Win32,10.66666667,,,,,,,,,,,,,,,,,,,,,,,,,1,0,19,19,19,1,2901939379-143480.jpg,2981229442-369621.jpg,1,,,,,,,,,,,,,,,,
,,,A137V1J5GNNZTH,25,Female,8,2022-11-24_14h32.35.842,memory_pilot_most_recent,2022.2.4,Win32,10.66666667,,,,,,,,,,,,,,,,,,,,,,,,,1,0,20,20,20,1,2874307433-66280.jpg,2446759396-271761.jpg,3,,,,,,,,,,,,,,,,
,,,A137V1J5GNNZTH,25,Female,8,2022-11-24_14h32.35.842,memory_pilot_most_recent,2022.2.4,Win32,10.66666667,,,,,,,,,,,,,,,,,,,,,,,,,1,0,21,21,21,1,2446759347-347016.jpg,2864904415-212294.jpg,2,,,,,,,,,,,,,,,,
,,,A137V1J5GNNZTH,25,Female,8,2022-11-24_14h32.35.842,memory_pilot_most_recent,2022.2.4,Win32,10.66666667,,,,,,,,,,,,,,,,,,,,,,,,right,1,0,22,22,22,1,right.jpg,,,right,1.117,,,,,,,,,,,,,,
,,,A137V1J5GNNZTH,25,Female,8,2022-11-24_14h32.35.842,memory_pilot_most_recent,2022.2.4,Win32,10.66666667,,,,,,,,,,,,,,,,,,,,,,,,,1,0,23,23,23,1,2874303365-214262.jpg,2424124794-120289.jpg,3,,,,,,,,,,,,,,,,
,,,A137V1J5GNNZTH,25,Female,8,2022-11-24_14h32.35.842,memory_pilot_most_recent,2022.2.4,Win32,10.66666667,,,,,,,,,,,,,,,,,,,,,,,,,1,0,24,24,24,1,2446759803-49249.jpg,2446760601-272099.jpg,1,,,,,,,,,,,,,,,,
,,,A137V1J5GNNZTH,25,Female,8,2022-11-24_14h32.35.842,memory_pilot_most_recent,2022.2.4,Win32,10.66666667,,,,,,,,,,,,,,,,,,,,,,,,,1,0,25,25,25,1,2238580740-186218.jpg,2238550816-254000.jpg,1,,,,,,,,,,,,,,,,
,,,A137V1J5GNNZTH,25,Female,8,2022-11-24_14h32.35.842,memory_pilot_most_recent,2022.2.4,Win32,10.66666667,,,,,,,,,,,,,,,,,,,,,,,,,1,0,26,26,26,1,2592380177-354626.jpg,2579432708-56392.jpg,3,,,,,,,,,,,,,,,,
,,,A137V1J5GNNZTH,25,Female,8,2022-11-24_14h32.35.842,memory_pilot_most_recent,2022.2.4,Win32,10.66666667,,,,,,,,,,,,,,,,,,,,,,,,,1,0,27,27,27,1,2901952513-70703.jpg,2864907361-287062.jpg,1,,,,,,,,,,,,,,,,
,,,A137V1J5GNNZTH,25,Female,8,2022-11-24_14h32.35.842,memory_pilot_most_recent,2022.2.4,Win32,10.66666667,,,,,,,,,,,,,,,,,,,,,,,,,1,0,28,28,28,1,2868475410-213219.jpg,2901946465-218350.jpg,1,,,,,,,,,,,,,,,,
,,,A137V1J5GNNZTH,25,Female,8,2022-11-24_14h32.35.842,memory_pilot_most_recent,2022.2.4,Win32,10.66666667,,,,,,,,,,,,,,,,,,,,,,,,right,1,0,29,29,29,1,right.jpg,,,right,1.114,,,,,,,,,,,,,,
,,,A137V1J5GNNZTH,25,Female,8,2022-11-24_14h32.35.842,memory_pilot_most_recent,2022.2.4,Win32,10.66666667,,,,,,,,,,,,,,,,,,,,,,,,,1,0,30,30,30,1,2901939379-143479.jpg,2446759803-49251.jpg,1,,,,,,,,,,,,,,,,
,,,A137V1J5GNNZTH,25,Female,8,2022-11-24_14h32.35.842,memory_pilot_most_recent,2022.2.4,Win32,10.66666667,,,,,,,,,,,,,,,,,,,,,,,,,1,0,31,31,31,1,2592379964-131054.jpg,2427875694-122097.jpg,2,,,,,,,,,,,,,,,,
,,,A137V1J5GNNZTH,25,Female,8,2022-11-24_14h32.35.842,memory_pilot_most_recent,2022.2.4,Win32,10.66666667,,,,,,,,,,,,,,,,,,,,,,,,,1,0,32,32,32,1,2449442529-124445.jpg,2901946439-144040.jpg,3,,,,,,,,,,,,,,,,
,,,A137V1J5GNNZTH,25,Female,8,2022-11-24_14h32.35.842,memory_pilot_most_recent,2022.2.4,Win32,10.66666667,,,,,,,,,,,,,,,,,,,,,,,,,1,0,33,33,33,1,2238428357-313623.jpg,2856919327-359675.jpg,3,,,,,,,,,,,,,,,,
,,,A137V1J5GNNZTH,25,Female,8,2022-11-24_14h32.35.842,memory_pilot_most_recent,2022.2.4,Win32,10.66666667,,,,,,,,,,,,,,,,,,,,,,,,,1,0,34,34,34,1,2883268412-365898.jpg,2984626312-370849.jpg,1,,,,,,,,,,,,,,,,
,,,A137V1J5GNNZTH,25,Female,8,2022-11-24_14h32.35.842,memory_pilot_most_recent,2022.2.4,Win32,10.66666667,,,,,,,,,,,,,,,,,,,,,,,,,1,0,35,35,35,1,2460547467-349422.jpg,2989721311-296963.jpg,2,,,,,,,,,,,,,,,,
,,,A137V1J5GNNZTH,25,Female,8,2022-11-24_14h32.35.842,memory_pilot_most_recent,2022.2.4,Win32,10.66666667,,,,,,,,,,,,,,,,,,,,,,,,,1,0,36,36,36,1,2981231403-71642.jpg,2238574878-36413.jpg,3,,,,,,,,,,,,,,,,
,,,A137V1J5GNNZTH,25,Female,8,2022-11-24_14h32.35.842,memory_pilot_most_recent,2022.2.4,Win32,10.66666667,,,,,,,,,,,,,,,,,,,,,,,,,1,0,37,37,37,1,2512875899-126682.jpg,2512875899-126681.jpg,3,,,,,,,,,,,,,,,,
,,,A137V1J5GNNZTH,25,Female,8,2022-11-24_14h32.35.842,memory_pilot_most_recent,2022.2.4,Win32,10.66666667,,,,,,,,,,,,,,,,,,,,,,,,,1,0,38,38,38,1,2986451363-73599.jpg,2238571930-184142.jpg,2,,,,,,,,,,,,,,,,
,,,A137V1J5GNNZTH,25,Female,8,2022-11-24_14h32.35.842,memory_pilot_most_recent,2022.2.4,Win32,10.66666667,,,,,,,,,,,,,,,,,,,,,,,,left,1,0,39,39,39,1,left.jpg,,,left,1.087,,,,,,,,,,,,,,
,,,A137V1J5GNNZTH,25,Female,8,2022-11-24_14h32.35.842,memory_pilot_most_recent,2022.2.4,Win32,10.66666667,,,,,,,,,,,,,,,,,,,,,,,,,1,0,40,40,40,1,2238481198-19822.jpg,2901941438-69835.jpg,3,,,,,,,,,,,,,,,,
,,,A137V1J5GNNZTH,25,Female,8,2022-11-24_14h32.35.842,memory_pilot_most_recent,2022.2.4,Win32,10.66666667,,,,,,,,,,,,,,,,,,,,,,,,,1,0,41,41,41,1,2898618390-216538.jpg,2864910427-362199.jpg,2,,,,,,,,,,,,,,,,
,,,A137V1J5GNNZTH,25,Female,8,2022-11-24_14h32.35.842,memory_pilot_most_recent,2022.2.4,Win32,10.66666667,,,,,,,,,,,,,,,,,,,,,,,,,1,0,42,42,42,1,2238425482-313537.jpg,2238471391-240918.jpg,1,,,,,,,,,,,,,,,,
,,,A137V1J5GNNZTH,25,Female,8,2022-11-24_14h32.35.842,memory_pilot_most_recent,2022.2.4,Win32,10.66666667,,,,,,,,,,,,,,,,,,,,,,,,,1,0,43,43,43,1,2964223381-294447.jpg,2964217461-294238.jpg,2,,,,,,,,,,,,,,,,
,,,A137V1J5GNNZTH,25,Female,8,2022-11-24_14h32.35.842,memory_pilot_most_recent,2022.2.4,Win32,10.66666667,,,,,,,,,,,,,,,,,,,,,,,,,1,0,44,44,44,1,2452381505-199546.jpg,2901938432-367627.jpg,1,,,,,,,,,,,,,,,,
,,,A137V1J5GNNZTH,25,Female,8,2022-11-24_14h32.35.842,memory_pilot_most_recent,2022.2.4,Win32,10.66666667,,,,,,,,,,,,,,,,,,,,,,,,,1,0,45,45,45,1,2874301407-363895.jpg,2901949316-293452.jpg,2,,,,,,,,,,,,,,,,
,,,A137V1J5GNNZTH,25,Female,8,2022-11-24_14h32.35.842,memory_pilot_most_recent,2022.2.4,Win32,10.66666667,,,,,,,,,,,,,,,,,,,,,,,,,1,0,46,46,46,1,2901948350-218459.jpg,2868487415-213922.jpg,1,,,,,,,,,,,,,,,,
,,,A137V1J5GNNZTH,25,Female,8,2022-11-24_14h32.35.842,memory_pilot_most_recent,2022.2.4,Win32,10.66666667,,,,,,,,,,,,,,,,,,,,,,,,,1,0,47,47,47,1,2864910426-287204.jpg,2898632427-367006.jpg,3,,,,,,,,,,,,,,,,
,,,A137V1J5GNNZTH,25,Female,8,2022-11-24_14h32.35.842,memory_pilot_most_recent,2022.2.4,Win32,10.66666667,,,,,,,,,,,,,,,,,,,,,,,,,1,0,48,48,48,1,2898617468-68274.jpg,2238433340-164524.jpg,2,,,,,,,,,,,,,,,,
,,,A137V1J5GNNZTH,25,Female,8,2022-11-24_14h32.35.842,memory_pilot_most_recent,2022.2.4,Win32,10.66666667,,,,,,,,,,,,,,,,,,,,,,,,,1,0,49,49,49,1,2898635427-367120.jpg,2898624426-291545.jpg,3,,,,,,,,,,,,,,,,
,,,A137V1J5GNNZTH,25,Female,8,2022-11-24_14h32.35.842,memory_pilot_most_recent,2022.2.4,Win32,10.66666667,,,,,,,,,,,,,,,,,,,,,,,,,1,0,50,50,50,1,2449442529-124446.jpg,2964216376-294181.jpg,2,,,,,,,,,,,,,,,,
,,,A137V1J5GNNZTH,25,Female,8,2022-11-24_14h32.35.842,memory_pilot_most_recent,2022.2.4,Win32,10.66666667,,,,,,,,,,,,,,,,,,,,,,,,,1,0,51,51,51,1,2874299429-139695.jpg,2238571930-184143.jpg,2,,,,,,,,,,,,,,,,
,,,A137V1J5GNNZTH,25,Female,8,2022-11-24_14h32.35.842,memory_pilot_most_recent,2022.2.4,Win32,10.66666667,,,,,,,,,,,,,,,,,,,,,,,,,1,0,52,52,52,1,2883268471-290842.jpg,2883266367-365742.jpg,3,,,,,,,,,,,,,,,,
,,,A137V1J5GNNZTH,25,Female,8,2022-11-24_14h32.35.842,memory_pilot_most_recent,2022.2.4,Win32,10.66666667,,,,,,,,,,,,,,,,,,,,,,,,,1,0,53,53,53,1,2460547508-51571.jpg,2898633480-217189.jpg,2,,,,,,,,,,,,,,,,
,,,A137V1J5GNNZTH,25,Female,8,2022-11-24_14h32.35.842,memory_pilot_most_recent,2022.2.4,Win32,10.66666667,,,,,,,,,,,,,,,,,,,,,,,,right,1,0,54,54,54,1,right.jpg,,,right,1.064,,,,,,,,,,,,,,
,,,A137V1J5GNNZTH,25,Female,8,2022-11-24_14h32.35.842,memory_pilot_most_recent,2022.2.4,Win32,10.66666667,,,,,,,,,,,,,,,,,,,,,,,,,1,0,55,55,55,1,2964213381-294060.jpg,2598726160-205998.jpg,2,,,,,,,,,,,,,,,,
,,,A137V1J5GNNZTH,25,Female,8,2022-11-24_14h32.35.842,memory_pilot_most_recent,2022.2.4,Win32,10.66666667,,,,,,,,,,,,,,,,,,,,,,,,,1,0,56,56,56,1,2901947423-70311.jpg,2874301385-214137.jpg,3,,,,,,,,,,,,,,,,
,,,A137V1J5GNNZTH,25,Female,8,2022-11-24_14h32.35.842,memory_pilot_most_recent,2022.2.4,Win32,10.66666667,,,,,,,,,,,,,,,,,,,,,,,,,1,0,57,57,57,1,2452380832-348593.jpg,2238515978-25479.jpg,2,,,,,,,,,,,,,,,,
,,,A137V1J5GNNZTH,25,Female,8,2022-11-24_14h32.35.842,memory_pilot_most_recent,2022.2.4,Win32,10.66666667,,,,,,,,,,,,,,,,,,,,,,,,,1,0,58,58,58,1,2458347385-199723.jpg,2512875824-126658.jpg,2,,,,,,,,,,,,,,,,
,,,A137V1J5GNNZTH,25,Female,8,2022-11-24_14h32.35.842,memory_pilot_most_recent,2022.2.4,Win32,10.66666667,,,,,,,,,,,,,,,,,,,,,,,,,1,0,59,59,59,1,2964218374-144967.jpg,2964218374-144968.jpg,1,,,,,,,,,,,,,,,,
,,,A137V1J5GNNZTH,25,Female,8,2022-11-24_14h32.35.842,memory_pilot_most_recent,2022.2.4,Win32,10.66666667,,,,,,,,,,,,,,,,,,,,,,,,,1,0,60,60,60,1,2449441881-272368.jpg,2898617374-142166.jpg,2,,,,,,,,,,,,,,,,
,,,A137V1J5GNNZTH,25,Female,8,2022-11-24_14h32.35.842,memory_pilot_most_recent,2022.2.4,Win32,10.66666667,,,,,,,,,,,,,,,,,,,,,,,,,1,0,61,61,61,1,2964216465-219242.jpg,2238544191-252422.jpg,1,,,,,,,,,,,,,,,,
,,,A137V1J5GNNZTH,25,Female,8,2022-11-24_14h32.35.842,memory_pilot_most_recent,2022.2.4,Win32,10.66666667,,,,,,,,,,,,,,,,,,,,,,,,,1,0,62,62,62,1,2883254439-140941.jpg,2883255450-215311.jpg,1,,,,,,,,,,,,,,,,
,,,A137V1J5GNNZTH,25,Female,8,2022-11-24_14h32.35.842,memory_pilot_most_recent,2022.2.4,Win32,10.66666667,,,,,,,,,,,,,,,,,,,,,,,,,1,0,63,63,63,1,2981241414-145842.jpg,2238427023-15948.jpg,3,,,,,,,,,,,,,,,,
,,,A137V1J5GNNZTH,25,Female,8,2022-11-24_14h32.35.842,memory_pilot_most_recent,2022.2.4,Win32,10.66666667,,,,,,,,,,,,,,,,,,,,,,,,,1,0,64,64,64,1,2874302418-65979.jpg,2413147898-43548.jpg,1,,,,,,,,,,,,,,,,
,,,A137V1J5GNNZTH,25,Female,8,2022-11-24_14h32.35.842,memory_pilot_most_recent,2022.2.4,Win32,10.66666667,,,,,,,,,,,,,,,,,,,,,,,,,,,,,,,,,,,,space,66.342,,,,,,,,,,,,
,,,A137V1J5GNNZTH,25,Female,8,2022-11-24_14h32.35.842,memory_pilot_most_recent,2022.2.4,Win32,10.66666667,,,,,,,,,,,,,,,,,,,,,,,,,,,,,,,,,,,,,,,,,,,,,,,,,
,,,A137V1J5GNNZTH,25,Female,8,2022-11-24_14h32.35.842,memory_pilot_most_recent,2022.2.4,Win32,10.66666667,,,,,,,,,,,,,,,,,,,,,,,,,,,,,,,,,1,left,,,,left,1,5.378,0,0,0,0,1,2898635428-69104.jpg,2446759803-49250.jpg,,
,,,A137V1J5GNNZTH,25,Female,8,2022-11-24_14h32.35.842,memory_pilot_most_recent,2022.2.4,Win32,10.66666667,,,,,,,,,,,,,,,,,,,,,,,,,,,,,,,,,3,right,,,,right,1,5.405,0,1,1,1,1,2238573546-258454.jpg,2238480677-317399.jpg,,
,,,A137V1J5GNNZTH,25,Female,8,2022-11-24_14h32.35.842,memory_pilot_most_recent,2022.2.4,Win32,10.66666667,,,,,,,,,,,,,,,,,,,,,,,,,,,,,,,,,2,left,,,,left,1,15.895,0,2,2,2,1,2898617468-68274.jpg,2238433340-164524.jpg,,
,,,A137V1J5GNNZTH,25,Female,8,2022-11-24_14h32.35.842,memory_pilot_most_recent,2022.2.4,Win32,10.66666667,,,,,,,,,,,,,,,,,,,,,,,,,,,,,,,,,3,right,,,,right,1,6.221,0,3,3,3,1,2579432708-56392.jpg,2592380177-354626.jpg,,
,,,A137V1J5GNNZTH,25,Female,8,2022-11-24_14h32.35.842,memory_pilot_most_recent,2022.2.4,Win32,10.66666667,,,,,,,,,,,,,,,,,,,,,,,,,,,,,,,,,2,left,,,,left,1,5.368,0,4,4,4,1,2460547467-349422.jpg,2989721311-296963.jpg,,
,,,A137V1J5GNNZTH,25,Female,8,2022-11-24_14h32.35.842,memory_pilot_most_recent,2022.2.4,Win32,10.66666667,,,,,,,,,,,,,,,,,,,,,,,,,,,,,,,,,1,right,,,,right,1,4.777,0,5,5,5,1,2901946465-218350.jpg,2868475410-213219.jpg,,
,,,A137V1J5GNNZTH,25,Female,8,2022-11-24_14h32.35.842,memory_pilot_most_recent,2022.2.4,Win32,10.66666667,,,,,,,,,,,,,,,,,,,,,,,,,,,,,,,,,3,left,,,,left,1,6.7,0,6,6,6,1,2874307433-66280.jpg,2446759396-271761.jpg,,
,,,A137V1J5GNNZTH,25,Female,8,2022-11-24_14h32.35.842,memory_pilot_most_recent,2022.2.4,Win32,10.66666667,,,,,,,,,,,,,,,,,,,,,,,,,,,,,,,,,1,right,,,,right,1,5.251,0,7,7,7,1,2575118671-277663.jpg,2238572663-35822.jpg,,
,,,A137V1J5GNNZTH,25,Female,8,2022-11-24_14h32.35.842,memory_pilot_most_recent,2022.2.4,Win32,10.66666667,,,,,,,,,,,,,,,,,,,,,,,,,,,,,,,,,1,right,,,,right,1,6.424,0,8,8,8,1,2883264367-365620.jpg,2238481928-19949.jpg,,
,,,A137V1J5GNNZTH,25,Female,8,2022-11-24_14h32.35.842,memory_pilot_most_recent,2022.2.4,Win32,10.66666667,,,,,,,,,,,,,,,,,,,,,,,,,,,,,,,,,2,left,,,,right,0,4.388,0,9,9,9,1,2460547508-51571.jpg,2898633480-217189.jpg,,
,,,A137V1J5GNNZTH,25,Female,8,2022-11-24_14h32.35.842,memory_pilot_most_recent,2022.2.4,Win32,10.66666667,,,,,,,,,,,,,,,,,,,,,,,,,,,,,,,,,2,right,,,,right,1,5.013,0,10,10,10,1,2238515978-25479.jpg,2452380832-348593.jpg,,
,,,A137V1J5GNNZTH,25,Female,8,2022-11-24_14h32.35.842,memory_pilot_most_recent,2022.2.4,Win32,10.66666667,,,,,,,,,,,,,,,,,,,,,,,,,,,,,,,,,1,right,,,,left,0,3.467,0,11,11,11,1,2901938432-367627.jpg,2452381505-199546.jpg,,
,,,A137V1J5GNNZTH,25,Female,8,2022-11-24_14h32.35.842,memory_pilot_most_recent,2022.2.4,Win32,10.66666667,,,,,,,,,,,,,,,,,,,,,,,,,,,,,,,,,3,right,,,,right,1,5.933,0,12,12,12,1,2424124794-120289.jpg,2874303365-214262.jpg,,
,,,A137V1J5GNNZTH,25,Female,8,2022-11-24_14h32.35.842,memory_pilot_most_recent,2022.2.4,Win32,10.66666667,,,,,,,,,,,,,,,,,,,,,,,,,,,,,,,,,1,left,,,,left,1,5.246,0,13,13,13,1,2883254439-140941.jpg,2883255450-215311.jpg,,
,,,A137V1J5GNNZTH,25,Female,8,2022-11-24_14h32.35.842,memory_pilot_most_recent,2022.2.4,Win32,10.66666667,,,,,,,,,,,,,,,,,,,,,,,,,,,,,,,,,1,left,,,,left,1,6.489,0,14,14,14,1,2864907432-362042.jpg,2864901420-212147.jpg,,
,,,A137V1J5GNNZTH,25,Female,8,2022-11-24_14h32.35.842,memory_pilot_most_recent,2022.2.4,Win32,10.66666667,,,,,,,,,,,,,,,,,,,,,,,,,,,,,,,,,2,left,,,,left,1,5.42,0,15,15,15,1,2898618444-142233.jpg,2862691449-137104.jpg,,
,,,A137V1J5GNNZTH,25,Female,8,2022-11-24_14h32.35.842,memory_pilot_most_recent,2022.2.4,Win32,10.66666667,,,,,,,,,,,,,,,,,,,,,,,,,,,,,,,,,2,right,,,,right,1,12.477,0,16,16,16,1,2898617374-142166.jpg,2449441881-272368.jpg,,
,,,A137V1J5GNNZTH,25,Female,8,2022-11-24_14h32.35.842,memory_pilot_most_recent,2022.2.4,Win32,10.66666667,,,,,,,,,,,,,,,,,,,,,,,,,,,,,,,,,3,left,,,,left,1,11.728,0,17,17,17,1,2238428357-313623.jpg,2856919327-359675.jpg,,
,,,A137V1J5GNNZTH,25,Female,8,2022-11-24_14h32.35.842,memory_pilot_most_recent,2022.2.4,Win32,10.66666667,,,,,,,,,,,,,,,,,,,,,,,,,,,,,,,,,1,right,,,,left,0,8.417,0,18,18,18,1,2238550816-254000.jpg,2238580740-186218.jpg,,
,,,A137V1J5GNNZTH,25,Female,8,2022-11-24_14h32.35.842,memory_pilot_most_recent,2022.2.4,Win32,10.66666667,,,,,,,,,,,,,,,,,,,,,,,,,,,,,,,,,3,left,,,,left,1,7.418,0,19,19,19,1,2512875899-126682.jpg,2512875899-126681.jpg,,
,,,A137V1J5GNNZTH,25,Female,8,2022-11-24_14h32.35.842,memory_pilot_most_recent,2022.2.4,Win32,10.66666667,,,,,,,,,,,,,,,,,,,,,,,,,,,,,,,,,3,right,,,,right,1,7.122,0,20,20,20,1,2898634332-367068.jpg,2868474407-362883.jpg,,
,,,A137V1J5GNNZTH,25,Female,8,2022-11-24_14h32.35.842,memory_pilot_most_recent,2022.2.4,Win32,10.66666667,,,,,,,,,,,,,,,,,,,,,,,,,,,,,,,,,1,left,,,,left,1,8.565,0,21,21,21,1,2898624426-291546.jpg,2964207374-144577.jpg,,
,,,A137V1J5GNNZTH,25,Female,8,2022-11-24_14h32.35.842,memory_pilot_most_recent,2022.2.4,Win32,10.66666667,,,,,,,,,,,,,,,,,,,,,,,,,,,,,,,,,1,right,,,,right,1,8.577,0,22,22,22,1,2446759803-49251.jpg,2901939379-143479.jpg,,
,,,A137V1J5GNNZTH,25,Female,8,2022-11-24_14h32.35.842,memory_pilot_most_recent,2022.2.4,Win32,10.66666667,,,,,,,,,,,,,,,,,,,,,,,,,,,,,,,,,2,left,,,,left,1,7.283,0,23,23,23,1,2986451363-73599.jpg,2238571930-184142.jpg,,
,,,A137V1J5GNNZTH,25,Female,8,2022-11-24_14h32.35.842,memory_pilot_most_recent,2022.2.4,Win32,10.66666667,,,,,,,,,,,,,,,,,,,,,,,,,,,,,,,,,3,left,,,,left,1,4.88,0,24,24,24,1,2898633421-291973.jpg,2989730319-147821.jpg,,
,,,A137V1J5GNNZTH,25,Female,8,2022-11-24_14h32.35.842,memory_pilot_most_recent,2022.2.4,Win32,10.66666667,,,,,,,,,,,,,,,,,,,,,,,,,,,,,,,,,3,right,,,,right,1,7.921,0,25,25,25,1,2883266367-365742.jpg,2883268471-290842.jpg,,
,,,A137V1J5GNNZTH,25,Female,8,2022-11-24_14h32.35.842,memory_pilot_most_recent,2022.2.4,Win32,10.66666667,,,,,,,,,,,,,,,,,,,,,,,,,,,,,,,,,3,left,,,,left,1,7.053,0,26,26,26,1,2901947423-70311.jpg,2874301385-214137.jpg,,
,,,A137V1J5GNNZTH,25,Female,8,2022-11-24_14h32.35.842,memory_pilot_most_recent,2022.2.4,Win32,10.66666667,,,,,,,,,,,,,,,,,,,,,,,,,,,,,,,,,1,left,,,,left,1,6.01,0,27,27,27,1,2964216465-219242.jpg,2238544191-252422.jpg,,
,,,A137V1J5GNNZTH,25,Female,8,2022-11-24_14h32.35.842,memory_pilot_most_recent,2022.2.4,Win32,10.66666667,,,,,,,,,,,,,,,,,,,,,,,,,,,,,,,,,2,left,,,,left,1,10.416,0,28,28,28,1,2874299429-139695.jpg,2238571930-184143.jpg,,
,,,A137V1J5GNNZTH,25,Female,8,2022-11-24_14h32.35.842,memory_pilot_most_recent,2022.2.4,Win32,10.66666667,,,,,,,,,,,,,,,,,,,,,,,,,,,,,,,,,3,right,,,,right,1,4.117,0,29,29,29,1,2898624426-291545.jpg,2898635427-367120.jpg,,
,,,A137V1J5GNNZTH,25,Female,8,2022-11-24_14h32.35.842,memory_pilot_most_recent,2022.2.4,Win32,10.66666667,,,,,,,,,,,,,,,,,,,,,,,,,,,,,,,,,2,left,,,,left,1,10.882,0,30,30,30,1,2874301407-363895.jpg,2901949316-293452.jpg,,
,,,A137V1J5GNNZTH,25,Female,8,2022-11-24_14h32.35.842,memory_pilot_most_recent,2022.2.4,Win32,10.66666667,,,,,,,,,,,,,,,,,,,,,,,,,,,,,,,,,1,right,,,,right,1,9.91,0,31,31,31,1,2238471391-240918.jpg,2238425482-313537.jpg,,
,,,A137V1J5GNNZTH,25,Female,8,2022-11-24_14h32.35.842,memory_pilot_most_recent,2022.2.4,Win32,10.66666667,,,,,,,,,,,,,,,,,,,,,,,,,,,,,,,,,1,right,,,,right,1,5.599,0,32,32,32,1,2984626312-370849.jpg,2883268412-365898.jpg,,
,,,A137V1J5GNNZTH,25,Female,8,2022-11-24_14h32.35.842,memory_pilot_most_recent,2022.2.4,Win32,10.66666667,,,,,,,,,,,,,,,,,,,,,,,,,,,,,,,,,1,right,,,,right,1,3.932,0,33,33,33,1,2413147898-43548.jpg,2874302418-65979.jpg,,
,,,A137V1J5GNNZTH,25,Female,8,2022-11-24_14h32.35.842,memory_pilot_most_recent,2022.2.4,Win32,10.66666667,,,,,,,,,,,,,,,,,,,,,,,,,,,,,,,,,1,left,,,,left,1,3.895,0,34,34,34,1,2901948350-218459.jpg,2868487415-213922.jpg,,
,,,A137V1J5GNNZTH,25,Female,8,2022-11-24_14h32.35.842,memory_pilot_most_recent,2022.2.4,Win32,10.66666667,,,,,,,,,,,,,,,,,,,,,,,,,,,,,,,,,2,left,,,,right,0,8.684,0,35,35,35,1,2898618390-216538.jpg,2864910427-362199.jpg,,
,,,A137V1J5GNNZTH,25,Female,8,2022-11-24_14h32.35.842,memory_pilot_most_recent,2022.2.4,Win32,10.66666667,,,,,,,,,,,,,,,,,,,,,,,,,,,,,,,,,3,left,,,,left,1,4.232,0,36,36,36,1,2592380177-354629.jpg,2847210303-60991.jpg,,
,,,A137V1J5GNNZTH,25,Female,8,2022-11-24_14h32.35.842,memory_pilot_most_recent,2022.2.4,Win32,10.66666667,,,,,,,,,,,,,,,,,,,,,,,,,,,,,,,,,2,left,,,,left,1,3.39,0,37,37,37,1,2460547467-349421.jpg,2981235446-294901.jpg,,
,,,A137V1J5GNNZTH,25,Female,8,2022-11-24_14h32.35.842,memory_pilot_most_recent,2022.2.4,Win32,10.66666667,,,,,,,,,,,,,,,,,,,,,,,,,,,,,,,,,2,right,,,,right,1,3.115,0,38,38,38,1,2898636423-69152.jpg,2898634397-367080.jpg,,
,,,A137V1J5GNNZTH,25,Female,8,2022-11-24_14h32.35.842,memory_pilot_most_recent,2022.2.4,Win32,10.66666667,,,,,,,,,,,,,,,,,,,,,,,,,,,,,,,,,3,left,,,,left,1,3.379,0,39,39,39,1,2981231403-71642.jpg,2238574878-36413.jpg,,
,,,A137V1J5GNNZTH,25,Female,8,2022-11-24_14h32.35.842,memory_pilot_most_recent,2022.2.4,Win32,10.66666667,,,,,,,,,,,,,,,,,,,,,,,,,,,,,,,,,1,left,,,,left,1,3.512,0,40,40,40,1,2446759803-49249.jpg,2446760601-272099.jpg,,
,,,A137V1J5GNNZTH,25,Female,8,2022-11-24_14h32.35.842,memory_pilot_most_recent,2022.2.4,Win32,10.66666667,,,,,,,,,,,,,,,,,,,,,,,,,,,,,,,,,2,left,,,,left,1,6.23,0,41,41,41,1,2883256307-365057.jpg,2864901420-212148.jpg,,
,,,A137V1J5GNNZTH,25,Female,8,2022-11-24_14h32.35.842,memory_pilot_most_recent,2022.2.4,Win32,10.66666667,,,,,,,,,,,,,,,,,,,,,,,,,,,,,,,,,1,right,,,,right,1,10.728,0,42,42,42,1,2864907361-287062.jpg,2901952513-70703.jpg,,
,,,A137V1J5GNNZTH,25,Female,8,2022-11-24_14h32.35.842,memory_pilot_most_recent,2022.2.4,Win32,10.66666667,,,,,,,,,,,,,,,,,,,,,,,,,,,,,,,,,3,right,,,,right,1,20.141,0,43,43,43,1,2238567130-183315.jpg,2874302418-65978.jpg,,
,,,A137V1J5GNNZTH,25,Female,8,2022-11-24_14h32.35.842,memory_pilot_most_recent,2022.2.4,Win32,10.66666667,,,,,,,,,,,,,,,,,,,,,,,,,,,,,,,,,1,left,,,,left,1,7.442,0,44,44,44,1,2964218374-144967.jpg,2964218374-144968.jpg,,
,,,A137V1J5GNNZTH,25,Female,8,2022-11-24_14h32.35.842,memory_pilot_most_recent,2022.2.4,Win32,10.66666667,,,,,,,,,,,,,,,,,,,,,,,,,,,,,,,,,2,left,,,,left,1,11.734,0,45,45,45,1,2446759347-347016.jpg,2864904415-212294.jpg,,
,,,A137V1J5GNNZTH,25,Female,8,2022-11-24_14h32.35.842,memory_pilot_most_recent,2022.2.4,Win32,10.66666667,,,,,,,,,,,,,,,,,,,,,,,,,,,,,,,,,3,right,,,,right,1,6.781,0,46,46,46,1,2901946439-144040.jpg,2449442529-124445.jpg,,
,,,A137V1J5GNNZTH,25,Female,8,2022-11-24_14h32.35.842,memory_pilot_most_recent,2022.2.4,Win32,10.66666667,,,,,,,,,,,,,,,,,,,,,,,,,,,,,,,,,3,right,,,,right,1,11.403,0,47,47,47,1,2883273443-68192.jpg,2901941401-292798.jpg,,
,,,A137V1J5GNNZTH,25,Female,8,2022-11-24_14h32.35.842,memory_pilot_most_recent,2022.2.4,Win32,10.66666667,,,,,,,,,,,,,,,,,,,,,,,,,,,,,,,,,1,left,,,,left,1,6.402,0,48,48,48,1,2575120738-55529.jpg,2898632385-217137.jpg,,
,,,A137V1J5GNNZTH,25,Female,8,2022-11-24_14h32.35.842,memory_pilot_most_recent,2022.2.4,Win32,10.66666667,,,,,,,,,,,,,,,,,,,,,,,,,,,,,,,,,3,left,,,,right,0,5.641,0,49,49,49,1,2446758985-197609.jpg,2238087237-303447.jpg,,
,,,A137V1J5GNNZTH,25,Female,8,2022-11-24_14h32.35.842,memory_pilot_most_recent,2022.2.4,Win32,10.66666667,,,,,,,,,,,,,,,,,,,,,,,,,,,,,,,,,1,left,,,,left,1,8.41,0,50,50,50,1,2901939379-143480.jpg,2981229442-369621.jpg,,
,,,A137V1J5GNNZTH,25,Female,8,2022-11-24_14h32.35.842,memory_pilot_most_recent,2022.2.4,Win32,10.66666667,,,,,,,,,,,,,,,,,,,,,,,,,,,,,,,,,3,right,,,,right,1,15.382,0,51,51,51,1,2238427023-15948.jpg,2981241414-145842.jpg,,
,,,A137V1J5GNNZTH,25,Female,8,2022-11-24_14h32.35.842,memory_pilot_most_recent,2022.2.4,Win32,10.66666667,,,,,,,,,,,,,,,,,,,,,,,,,,,,,,,,,3,right,,,,right,1,7.09,0,52,52,52,1,2901941438-69835.jpg,2238481198-19822.jpg,,
,,,A137V1J5GNNZTH,25,Female,8,2022-11-24_14h32.35.842,memory_pilot_most_recent,2022.2.4,Win32,10.66666667,,,,,,,,,,,,,,,,,,,,,,,,,,,,,,,,,2,right,,,,right,1,11.153,0,53,53,53,1,2238467949-92250.jpg,2238560245-182099.jpg,,
,,,A137V1J5GNNZTH,25,Female,8,2022-11-24_14h32.35.842,memory_pilot_most_recent,2022.2.4,Win32,10.66666667,,,,,,,,,,,,,,,,,,,,,,,,,,,,,,,,,2,left,,,,left,1,3.886,0,54,54,54,1,2592379964-131054.jpg,2427875694-122097.jpg,,
,,,A137V1J5GNNZTH,25,Female,8,2022-11-24_14h32.35.842,memory_pilot_most_recent,2022.2.4,Win32,10.66666667,,,,,,,,,,,,,,,,,,,,,,,,,,,,,,,,,2,right,,,,left,0,3.837,0,55,55,55,1,2964217461-294238.jpg,2964223381-294447.jpg,,
,,,A137V1J5GNNZTH,25,Female,8,2022-11-24_14h32.35.842,memory_pilot_most_recent,2022.2.4,Win32,10.66666667,,,,,,,,,,,,,,,,,,,,,,,,,,,,,,,,,2,left,,,,left,1,3.989,0,56,56,56,1,2964213381-294060.jpg,2598726160-205998.jpg,,
,,,A137V1J5GNNZTH,25,Female,8,2022-11-24_14h32.35.842,memory_pilot_most_recent,2022.2.4,Win32,10.66666667,,,,,,,,,,,,,,,,,,,,,,,,,,,,,,,,,3,right,,,,right,1,10.733,0,57,57,57,1,2898632427-367006.jpg,2864910426-287204.jpg,,
,,,A137V1J5GNNZTH,25,Female,8,2022-11-24_14h32.35.842,memory_pilot_most_recent,2022.2.4,Win32,10.66666667,,,,,,,,,,,,,,,,,,,,,,,,,,,,,,,,,2,right,,,,right,1,5.935,0,58,58,58,1,2512875824-126658.jpg,2458347385-199723.jpg,,
,,,A137V1J5GNNZTH,25,Female,8,2022-11-24_14h32.35.842,memory_pilot_most_recent,2022.2.4,Win32,10.66666667,,,,,,,,,,,,,,,,,,,,,,,,,,,,,,,,,2,left,,,,left,1,6.436,0,59,59,59,1,2449442529-124446.jpg,2964216376-294181.jpg,,
,,,A137V1J5GNNZTH,25,Female,8,2022-11-24_14h32.35.842,memory_pilot_most_recent,2022.2.4,Win32,10.66666667,,,,,,,,,,,,,,,,,,,,,,,,,,,,,,,,,,,,,,,,,,,,,,,,space,50.529
