button.numClicks,button.timesOn,button.timesOff,workID,Age,Gender,Hours slept (last night),date,expName,psychopyVersion,OS,frameRate,space_key_responce.keys,space_key_responce.rt,demo_encoding_response.keys,demo_encoding_response.corr,demo_encoding_loop.thisRepN,demo_encoding_loop.thisTrialN,demo_encoding_loop.thisN,demo_encoding_loop.thisIndex,demo_encoding_loop.ran,DemoImage,DemoCorrect,demo_encoding_response.rt,demo_test_response.keys,demo_test_response.corr,demo_test_response.rt,demo_test_loop.thisRepN,demo_test_loop.thisTrialN,demo_test_loop.thisN,demo_test_loop.thisIndex,demo_test_loop.ran,DemoImage1,DemoImage2,DemoCorrectTest,test_encoding_response.keys,test_encoding_response.corr,trials.thisRepN,trials.thisTrialN,trials.thisN,trials.thisIndex,trials.ran,target_image,pair,layer,correct,test_encoding_response.rt,key_resp_end.keys,key_resp_end.rt,test_test_response.keys,test_test_response.corr,test_test_response.rt,trials_2.thisRepN,trials_2.thisTrialN,trials_2.thisN,trials_2.thisIndex,trials_2.ran,image1,image2,key_resp_end_2.keys,key_resp_end_2.rt
1,[7.6749999999999545],[7.6749999999999545],A1VSEDABJFNUVQ,35,male,8,2022-11-24_10h31.40.849,memory_pilot_most_recent,2022.2.4,Win32,9.321228165,,,,,,,,,,,,,,,,,,,,,,,,,,,,,,,,,,,,,,,,,,,,,,,,,
,,,A1VSEDABJFNUVQ,35,male,8,2022-11-24_10h31.40.849,memory_pilot_most_recent,2022.2.4,Win32,9.321228165,,,,,,,,,,,,,,,,,,,,,,,,,,,,,,,,,,,,,,,,,,,,,,,,,
,,,A1VSEDABJFNUVQ,35,male,8,2022-11-24_10h31.40.849,memory_pilot_most_recent,2022.2.4,Win32,9.321228165,space,4.5454,,,,,,,,,,,,,,,,,,,,,,,,,,,,,,,,,,,,,,,,,,,,,,,
,,,A1VSEDABJFNUVQ,35,male,8,2022-11-24_10h31.40.849,memory_pilot_most_recent,2022.2.4,Win32,9.321228165,,,,,,,,,,,,,,,,,,,,,,,,,,,,,,,,,,,,,,,,,,,,,,,,,
,,,A1VSEDABJFNUVQ,35,male,8,2022-11-24_10h31.40.849,memory_pilot_most_recent,2022.2.4,Win32,9.321228165,,,,1,0,0,0,0,1,flower1.jpg,,,,,,,,,,,,,,,,,,,,,,,,,,,,,,,,,,,,,,,
,,,A1VSEDABJFNUVQ,35,male,8,2022-11-24_10h31.40.849,memory_pilot_most_recent,2022.2.4,Win32,9.321228165,,,,1,0,1,1,1,1,flower2.jpg,,,,,,,,,,,,,,,,,,,,,,,,,,,,,,,,,,,,,,,
,,,A1VSEDABJFNUVQ,35,male,8,2022-11-24_10h31.40.849,memory_pilot_most_recent,2022.2.4,Win32,9.321228165,,,left,1,0,2,2,2,1,left.jpg,left,1.421,,,,,,,,,,,,,,,,,,,,,,,,,,,,,,,,,,,,,
,,,A1VSEDABJFNUVQ,35,male,8,2022-11-24_10h31.40.849,memory_pilot_most_recent,2022.2.4,Win32,9.321228165,,,,1,0,3,3,3,1,flower3.jpg,,,,,,,,,,,,,,,,,,,,,,,,,,,,,,,,,,,,,,,
,,,A1VSEDABJFNUVQ,35,male,8,2022-11-24_10h31.40.849,memory_pilot_most_recent,2022.2.4,Win32,9.321228165,,,,1,0,4,4,4,1,flower4.jpg,,,,,,,,,,,,,,,,,,,,,,,,,,,,,,,,,,,,,,,
,,,A1VSEDABJFNUVQ,35,male,8,2022-11-24_10h31.40.849,memory_pilot_most_recent,2022.2.4,Win32,9.321228165,,,,1,0,5,5,5,1,flower5.jpg,,,,,,,,,,,,,,,,,,,,,,,,,,,,,,,,,,,,,,,
,,,A1VSEDABJFNUVQ,35,male,8,2022-11-24_10h31.40.849,memory_pilot_most_recent,2022.2.4,Win32,9.321228165,,,,1,0,6,6,6,1,flower6.jpg,,,,,,,,,,,,,,,,,,,,,,,,,,,,,,,,,,,,,,,
,,,A1VSEDABJFNUVQ,35,male,8,2022-11-24_10h31.40.849,memory_pilot_most_recent,2022.2.4,Win32,9.321228165,,,,,,,,,,,,,,,,,,,,,,,,,,,,,,,,,,,,,,,,,,,,,,,,,
,,,A1VSEDABJFNUVQ,35,male,8,2022-11-24_10h31.40.849,memory_pilot_most_recent,2022.2.4,Win32,9.321228165,,,,,,,,,,,,,left,1,1.4835,0,0,0,0,1,flower1.jpg,flower1_pair.jpg,left,,,,,,,,,,,,,,,,,,,,,,,,,,
,,,A1VSEDABJFNUVQ,35,male,8,2022-11-24_10h31.40.849,memory_pilot_most_recent,2022.2.4,Win32,9.321228165,,,,,,,,,,,,,right,1,1.6537,0,1,1,1,1,flower2_pair.jpg,flower2.jpg,right,,,,,,,,,,,,,,,,,,,,,,,,,,
,,,A1VSEDABJFNUVQ,35,male,8,2022-11-24_10h31.40.849,memory_pilot_most_recent,2022.2.4,Win32,9.321228165,,,,,,,,,,,,,right,0,0.9741,0,2,2,2,1,flower3.jpg,flower3_pair.jpg,left,,,,,,,,,,,,,,,,,,,,,,,,,,
,,,A1VSEDABJFNUVQ,35,male,8,2022-11-24_10h31.40.849,memory_pilot_most_recent,2022.2.4,Win32,9.321228165,,,,,,,,,,,,,left,1,0.5607,0,3,3,3,1,flower4.jpg,flower4_pair.jpg,left,,,,,,,,,,,,,,,,,,,,,,,,,,
,,,A1VSEDABJFNUVQ,35,male,8,2022-11-24_10h31.40.849,memory_pilot_most_recent,2022.2.4,Win32,9.321228165,,,,,,,,,,,,,left,0,0.8393,0,4,4,4,1,flower5_pair.jpg,flower5.jpg,right,,,,,,,,,,,,,,,,,,,,,,,,,,
,,,A1VSEDABJFNUVQ,35,male,8,2022-11-24_10h31.40.849,memory_pilot_most_recent,2022.2.4,Win32,9.321228165,,,,,,,,,,,,,right,0,0.8173,0,5,5,5,1,flower6.jpg,flower6_pair.jpg,left,,,,,,,,,,,,,,,,,,,,,,,,,,
,,,A1VSEDABJFNUVQ,35,male,8,2022-11-24_10h31.40.849,memory_pilot_most_recent,2022.2.4,Win32,9.321228165,,,,,,,,,,,,,,,,,,,,,,,,,,,,,,,,,,,,,,,,,,,,,,,,,
,,,A1VSEDABJFNUVQ,35,male,8,2022-11-24_10h31.40.849,memory_pilot_most_recent,2022.2.4,Win32,9.321228165,space,2.059,,,,,,,,,,,,,,,,,,,,,,,,,,,,,,,,,,,,,,,,,,,,,,,
,,,A1VSEDABJFNUVQ,35,male,8,2022-11-24_10h31.40.849,memory_pilot_most_recent,2022.2.4,Win32,9.321228165,,,,,,,,,,,,,,,,,,,,,,,,,1,0,0,0,0,1,2449441881-272368.jpg,2898617374-142166.jpg,2,,,,,,,,,,,,,,,,
,,,A1VSEDABJFNUVQ,35,male,8,2022-11-24_10h31.40.849,memory_pilot_most_recent,2022.2.4,Win32,9.321228165,,,,,,,,,,,,,,,,,,,,,,,,,1,0,1,1,1,1,2446759803-49249.jpg,2446760844-124088.jpg,3,,,,,,,,,,,,,,,,
,,,A1VSEDABJFNUVQ,35,male,8,2022-11-24_10h31.40.849,memory_pilot_most_recent,2022.2.4,Win32,9.321228165,,,,,,,,,,,,,,,,,,,,,,,,,1,0,2,2,2,1,2898624426-291546.jpg,2964207374-144577.jpg,1,,,,,,,,,,,,,,,,
,,,A1VSEDABJFNUVQ,35,male,8,2022-11-24_10h31.40.849,memory_pilot_most_recent,2022.2.4,Win32,9.321228165,,,,,,,,,,,,,,,,,,,,,,,,,1,0,3,3,3,1,2874307433-66280.jpg,2864900357-361688.jpg,2,,,,,,,,,,,,,,,,
,,,A1VSEDABJFNUVQ,35,male,8,2022-11-24_10h31.40.849,memory_pilot_most_recent,2022.2.4,Win32,9.321228165,,,,,,,,,,,,,,,,,,,,,,,,,1,0,4,4,4,1,2898617468-68274.jpg,2981243399-145923.jpg,3,,,,,,,,,,,,,,,,
,,,A1VSEDABJFNUVQ,35,male,8,2022-11-24_10h31.40.849,memory_pilot_most_recent,2022.2.4,Win32,9.321228165,,,,,,,,,,,,,,,,,,,,,,,,,1,0,5,5,5,1,2446759347-347016.jpg,2964224310-219528.jpg,1,,,,,,,,,,,,,,,,
,,,A1VSEDABJFNUVQ,35,male,8,2022-11-24_10h31.40.849,memory_pilot_most_recent,2022.2.4,Win32,9.321228165,,,,,,,,,,,,,,,,,,,,,,,,,1,0,6,6,6,1,2874302418-65978.jpg,2238577555-185462.jpg,2,,,,,,,,,,,,,,,,
,,,A1VSEDABJFNUVQ,35,male,8,2022-11-24_10h31.40.849,memory_pilot_most_recent,2022.2.4,Win32,9.321228165,,,,,,,,,,,,,,,,,,,,,,,,,1,0,7,7,7,1,2964223381-294447.jpg,2901938432-367628.jpg,3,,,,,,,,,,,,,,,,
,,,A1VSEDABJFNUVQ,35,male,8,2022-11-24_10h31.40.849,memory_pilot_most_recent,2022.2.4,Win32,9.321228165,,,,,,,,,,,,,,,,,,,,,,,,,1,0,8,8,8,1,2238580740-186218.jpg,2575121108-55628.jpg,2,,,,,,,,,,,,,,,,
,,,A1VSEDABJFNUVQ,35,male,8,2022-11-24_10h31.40.849,memory_pilot_most_recent,2022.2.4,Win32,9.321228165,,,,,,,,,,,,,,,,,,,,,,,,,1,0,9,9,9,1,2864910426-287204.jpg,2898632427-367006.jpg,3,,,,,,,,,,,,,,,,
,,,A1VSEDABJFNUVQ,35,male,8,2022-11-24_10h31.40.849,memory_pilot_most_recent,2022.2.4,Win32,9.321228165,,,,,,,,,,,,,,,,,,,,,,,,,1,0,10,10,10,1,2460547508-51571.jpg,2901941438-69836.jpg,3,,,,,,,,,,,,,,,,
,,,A1VSEDABJFNUVQ,35,male,8,2022-11-24_10h31.40.849,memory_pilot_most_recent,2022.2.4,Win32,9.321228165,,,,,,,,,,,,,,,,,,,,,,,,,1,0,11,11,11,1,2898635428-69104.jpg,2864904390-212289.jpg,2,,,,,,,,,,,,,,,,
,,,A1VSEDABJFNUVQ,35,male,8,2022-11-24_10h31.40.849,memory_pilot_most_recent,2022.2.4,Win32,9.321228165,,,,,,,,,,,,,,,,,,,,,,,,left,1,0,12,12,12,1,left.jpg,,,left,1.1506,,,,,,,,,,,,,,
,,,A1VSEDABJFNUVQ,35,male,8,2022-11-24_10h31.40.849,memory_pilot_most_recent,2022.2.4,Win32,9.321228165,,,,,,,,,,,,,,,,,,,,,,,,,1,0,13,13,13,1,2964216465-219242.jpg,2238482539-94244.jpg,2,,,,,,,,,,,,,,,,
,,,A1VSEDABJFNUVQ,35,male,8,2022-11-24_10h31.40.849,memory_pilot_most_recent,2022.2.4,Win32,9.321228165,,,,,,,,,,,,,,,,,,,,,,,,,1,0,14,14,14,1,2874302418-65979.jpg,2413147898-43548.jpg,1,,,,,,,,,,,,,,,,
,,,A1VSEDABJFNUVQ,35,male,8,2022-11-24_10h31.40.849,memory_pilot_most_recent,2022.2.4,Win32,9.321228165,,,,,,,,,,,,,,,,,,,,,,,,,1,0,15,15,15,1,2868475410-213219.jpg,2862700345-211776.jpg,2,,,,,,,,,,,,,,,,
,,,A1VSEDABJFNUVQ,35,male,8,2022-11-24_10h31.40.849,memory_pilot_most_recent,2022.2.4,Win32,9.321228165,,,,,,,,,,,,,,,,,,,,,,,,,1,0,16,16,16,1,2592380177-354629.jpg,2898633421-291974.jpg,1,,,,,,,,,,,,,,,,
,,,A1VSEDABJFNUVQ,35,male,8,2022-11-24_10h31.40.849,memory_pilot_most_recent,2022.2.4,Win32,9.321228165,,,,,,,,,,,,,,,,,,,,,,,,,1,0,17,17,17,1,2986451363-73599.jpg,2238571930-184142.jpg,2,,,,,,,,,,,,,,,,
,,,A1VSEDABJFNUVQ,35,male,8,2022-11-24_10h31.40.849,memory_pilot_most_recent,2022.2.4,Win32,9.321228165,,,,,,,,,,,,,,,,,,,,,,,,,1,0,18,18,18,1,2452381505-199546.jpg,2901938432-367627.jpg,1,,,,,,,,,,,,,,,,
,,,A1VSEDABJFNUVQ,35,male,8,2022-11-24_10h31.40.849,memory_pilot_most_recent,2022.2.4,Win32,9.321228165,,,,,,,,,,,,,,,,,,,,,,,,,1,0,19,19,19,1,2238428357-313623.jpg,2238499057-320266.jpg,1,,,,,,,,,,,,,,,,
,,,A1VSEDABJFNUVQ,35,male,8,2022-11-24_10h31.40.849,memory_pilot_most_recent,2022.2.4,Win32,9.321228165,,,,,,,,,,,,,,,,,,,,,,,,,1,0,20,20,20,1,2868474407-362883.jpg,2898634332-367068.jpg,3,,,,,,,,,,,,,,,,
,,,A1VSEDABJFNUVQ,35,male,8,2022-11-24_10h31.40.849,memory_pilot_most_recent,2022.2.4,Win32,9.321228165,,,,,,,,,,,,,,,,,,,,,,,,left,1,0,21,21,21,1,left.jpg,,,left,1.6986,,,,,,,,,,,,,,
,,,A1VSEDABJFNUVQ,35,male,8,2022-11-24_10h31.40.849,memory_pilot_most_recent,2022.2.4,Win32,9.321228165,,,,,,,,,,,,,,,,,,,,,,,,,1,0,22,22,22,1,2964213381-294060.jpg,2981244394-145974.jpg,1,,,,,,,,,,,,,,,,
,,,A1VSEDABJFNUVQ,35,male,8,2022-11-24_10h31.40.849,memory_pilot_most_recent,2022.2.4,Win32,9.321228165,,,,,,,,,,,,,,,,,,,,,,,,,1,0,23,23,23,1,2238480677-317399.jpg,2238481630-168218.jpg,1,,,,,,,,,,,,,,,,
,,,A1VSEDABJFNUVQ,35,male,8,2022-11-24_10h31.40.849,memory_pilot_most_recent,2022.2.4,Win32,9.321228165,,,,,,,,,,,,,,,,,,,,,,,,,1,0,24,24,24,1,2446758985-197609.jpg,2452380166-273110.jpg,2,,,,,,,,,,,,,,,,
,,,A1VSEDABJFNUVQ,35,male,8,2022-11-24_10h31.40.849,memory_pilot_most_recent,2022.2.4,Win32,9.321228165,,,,,,,,,,,,,,,,,,,,,,,,,1,0,25,25,25,1,2864907432-362042.jpg,2898626395-216900.jpg,3,,,,,,,,,,,,,,,,
,,,A1VSEDABJFNUVQ,35,male,8,2022-11-24_10h31.40.849,memory_pilot_most_recent,2022.2.4,Win32,9.321228165,,,,,,,,,,,,,,,,,,,,,,,,,1,0,26,26,26,1,2874301407-363895.jpg,2989715317-371697.jpg,3,,,,,,,,,,,,,,,,
,,,A1VSEDABJFNUVQ,35,male,8,2022-11-24_10h31.40.849,memory_pilot_most_recent,2022.2.4,Win32,9.321228165,,,,,,,,,,,,,,,,,,,,,,,,,1,0,27,27,27,1,2981231403-71642.jpg,2274829821-263682.jpg,1,,,,,,,,,,,,,,,,
,,,A1VSEDABJFNUVQ,35,male,8,2022-11-24_10h31.40.849,memory_pilot_most_recent,2022.2.4,Win32,9.321228165,,,,,,,,,,,,,,,,,,,,,,,,,0,0,28,28,28,1,right.jpg,,,right,,,,,,,,,,,,,,,
,,,A1VSEDABJFNUVQ,35,male,8,2022-11-24_10h31.40.849,memory_pilot_most_recent,2022.2.4,Win32,9.321228165,,,,,,,,,,,,,,,,,,,,,,,,,1,0,29,29,29,1,2449442529-124445.jpg,2901946439-144040.jpg,3,,,,,,,,,,,,,,,,
,,,A1VSEDABJFNUVQ,35,male,8,2022-11-24_10h31.40.849,memory_pilot_most_recent,2022.2.4,Win32,9.321228165,,,,,,,,,,,,,,,,,,,,,,,,,1,0,30,30,30,1,2238560245-182099.jpg,2238467949-92250.jpg,2,,,,,,,,,,,,,,,,
,,,A1VSEDABJFNUVQ,35,male,8,2022-11-24_10h31.40.849,memory_pilot_most_recent,2022.2.4,Win32,9.321228165,,,,,,,,,,,,,,,,,,,,,,,,,1,0,31,31,31,1,2449442529-124446.jpg,2964216376-294181.jpg,2,,,,,,,,,,,,,,,,
,,,A1VSEDABJFNUVQ,35,male,8,2022-11-24_10h31.40.849,memory_pilot_most_recent,2022.2.4,Win32,9.321228165,,,,,,,,,,,,,,,,,,,,,,,,,1,0,32,32,32,1,2883256307-365057.jpg,2611628310-206388.jpg,1,,,,,,,,,,,,,,,,
,,,A1VSEDABJFNUVQ,35,male,8,2022-11-24_10h31.40.849,memory_pilot_most_recent,2022.2.4,Win32,9.321228165,,,,,,,,,,,,,,,,,,,,,,,,,1,0,33,33,33,1,2898633421-291973.jpg,2512876023-52283.jpg,1,,,,,,,,,,,,,,,,
,,,A1VSEDABJFNUVQ,35,male,8,2022-11-24_10h31.40.849,memory_pilot_most_recent,2022.2.4,Win32,9.321228165,,,,,,,,,,,,,,,,,,,,,,,,,1,0,34,34,34,1,2901952513-70703.jpg,2901949316-293454.jpg,2,,,,,,,,,,,,,,,,
,,,A1VSEDABJFNUVQ,35,male,8,2022-11-24_10h31.40.849,memory_pilot_most_recent,2022.2.4,Win32,9.321228165,,,,,,,,,,,,,,,,,,,,,,,,,1,0,35,35,35,1,2238425482-313537.jpg,2238471391-240918.jpg,1,,,,,,,,,,,,,,,,
,,,A1VSEDABJFNUVQ,35,male,8,2022-11-24_10h31.40.849,memory_pilot_most_recent,2022.2.4,Win32,9.321228165,,,,,,,,,,,,,,,,,,,,,,,,,1,0,36,36,36,1,2874303365-214262.jpg,2424124794-120289.jpg,3,,,,,,,,,,,,,,,,
,,,A1VSEDABJFNUVQ,35,male,8,2022-11-24_10h31.40.849,memory_pilot_most_recent,2022.2.4,Win32,9.321228165,,,,,,,,,,,,,,,,,,,,,,,,,1,0,37,37,37,1,2238481198-19822.jpg,2864908448-64141.jpg,1,,,,,,,,,,,,,,,,
,,,A1VSEDABJFNUVQ,35,male,8,2022-11-24_10h31.40.849,memory_pilot_most_recent,2022.2.4,Win32,9.321228165,,,,,,,,,,,,,,,,,,,,,,,,,0,0,38,38,38,1,left.jpg,,,left,,,,,,,,,,,,,,,
,,,A1VSEDABJFNUVQ,35,male,8,2022-11-24_10h31.40.849,memory_pilot_most_recent,2022.2.4,Win32,9.321228165,,,,,,,,,,,,,,,,,,,,,,,,,1,0,39,39,39,1,2874299429-139695.jpg,2238571930-184143.jpg,2,,,,,,,,,,,,,,,,
,,,A1VSEDABJFNUVQ,35,male,8,2022-11-24_10h31.40.849,memory_pilot_most_recent,2022.2.4,Win32,9.321228165,,,,,,,,,,,,,,,,,,,,,,,,,1,0,40,40,40,1,2458347385-199723.jpg,2512875824-126658.jpg,2,,,,,,,,,,,,,,,,
,,,A1VSEDABJFNUVQ,35,male,8,2022-11-24_10h31.40.849,memory_pilot_most_recent,2022.2.4,Win32,9.321228165,,,,,,,,,,,,,,,,,,,,,,,,,1,0,41,41,41,1,2901941401-292798.jpg,2883273443-68192.jpg,3,,,,,,,,,,,,,,,,
,,,A1VSEDABJFNUVQ,35,male,8,2022-11-24_10h31.40.849,memory_pilot_most_recent,2022.2.4,Win32,9.321228165,,,,,,,,,,,,,,,,,,,,,,,,,1,0,42,42,42,1,2898618390-216538.jpg,2238574968-36441.jpg,3,,,,,,,,,,,,,,,,
,,,A1VSEDABJFNUVQ,35,male,8,2022-11-24_10h31.40.849,memory_pilot_most_recent,2022.2.4,Win32,9.321228165,,,,,,,,,,,,,,,,,,,,,,,,,1,0,43,43,43,1,2452380832-348593.jpg,2237856283-1014.jpg,3,,,,,,,,,,,,,,,,
,,,A1VSEDABJFNUVQ,35,male,8,2022-11-24_10h31.40.849,memory_pilot_most_recent,2022.2.4,Win32,9.321228165,,,,,,,,,,,,,,,,,,,,,,,,,1,0,44,44,44,1,2883254439-140941.jpg,2460548070-200336.jpg,2,,,,,,,,,,,,,,,,
,,,A1VSEDABJFNUVQ,35,male,8,2022-11-24_10h31.40.849,memory_pilot_most_recent,2022.2.4,Win32,9.321228165,,,,,,,,,,,,,,,,,,,,,,,,,1,0,45,45,45,1,2898618444-142233.jpg,2804906319-133082.jpg,3,,,,,,,,,,,,,,,,
,,,A1VSEDABJFNUVQ,35,male,8,2022-11-24_10h31.40.849,memory_pilot_most_recent,2022.2.4,Win32,9.321228165,,,,,,,,,,,,,,,,,,,,,,,,,1,0,46,46,46,1,2901947423-70311.jpg,2860312398-62572.jpg,1,,,,,,,,,,,,,,,,
,,,A1VSEDABJFNUVQ,35,male,8,2022-11-24_10h31.40.849,memory_pilot_most_recent,2022.2.4,Win32,9.321228165,,,,,,,,,,,,,,,,,,,,,,,,,1,0,47,47,47,1,2981241414-145842.jpg,2238427023-15948.jpg,3,,,,,,,,,,,,,,,,
,,,A1VSEDABJFNUVQ,35,male,8,2022-11-24_10h31.40.849,memory_pilot_most_recent,2022.2.4,Win32,9.321228165,,,,,,,,,,,,,,,,,,,,,,,,,1,0,48,48,48,1,2592380177-354626.jpg,2579432708-56392.jpg,3,,,,,,,,,,,,,,,,
,,,A1VSEDABJFNUVQ,35,male,8,2022-11-24_10h31.40.849,memory_pilot_most_recent,2022.2.4,Win32,9.321228165,,,,,,,,,,,,,,,,,,,,,,,,,1,0,49,49,49,1,2883268471-290842.jpg,2883268471-290843.jpg,1,,,,,,,,,,,,,,,,
,,,A1VSEDABJFNUVQ,35,male,8,2022-11-24_10h31.40.849,memory_pilot_most_recent,2022.2.4,Win32,9.321228165,,,,,,,,,,,,,,,,,,,,,,,,,1,0,50,50,50,1,2964218374-144967.jpg,2898633476-291993.jpg,3,,,,,,,,,,,,,,,,
,,,A1VSEDABJFNUVQ,35,male,8,2022-11-24_10h31.40.849,memory_pilot_most_recent,2022.2.4,Win32,9.321228165,,,,,,,,,,,,,,,,,,,,,,,,,1,0,51,51,51,1,2883268412-365898.jpg,2984615358-72439.jpg,2,,,,,,,,,,,,,,,,
,,,A1VSEDABJFNUVQ,35,male,8,2022-11-24_10h31.40.849,memory_pilot_most_recent,2022.2.4,Win32,9.321228165,,,,,,,,,,,,,,,,,,,,,,,,,0,0,52,52,52,1,left.jpg,,,left,,,,,,,,,,,,,,,
,,,A1VSEDABJFNUVQ,35,male,8,2022-11-24_10h31.40.849,memory_pilot_most_recent,2022.2.4,Win32,9.321228165,,,,,,,,,,,,,,,,,,,,,,,,,1,0,53,53,53,1,2901948350-218459.jpg,2868487415-213922.jpg,1,,,,,,,,,,,,,,,,
,,,A1VSEDABJFNUVQ,35,male,8,2022-11-24_10h31.40.849,memory_pilot_most_recent,2022.2.4,Win32,9.321228165,,,,,,,,,,,,,,,,,,,,,,,,,1,0,54,54,54,1,2460547467-349421.jpg,2898619327-366362.jpg,3,,,,,,,,,,,,,,,,
,,,A1VSEDABJFNUVQ,35,male,8,2022-11-24_10h31.40.849,memory_pilot_most_recent,2022.2.4,Win32,9.321228165,,,,,,,,,,,,,,,,,,,,,,,,,1,0,55,55,55,1,2575120738-55529.jpg,2460547859-126142.jpg,3,,,,,,,,,,,,,,,,
,,,A1VSEDABJFNUVQ,35,male,8,2022-11-24_10h31.40.849,memory_pilot_most_recent,2022.2.4,Win32,9.321228165,,,,,,,,,,,,,,,,,,,,,,,,,1,0,56,56,56,1,2512875899-126682.jpg,2898618440-216545.jpg,1,,,,,,,,,,,,,,,,
,,,A1VSEDABJFNUVQ,35,male,8,2022-11-24_10h31.40.849,memory_pilot_most_recent,2022.2.4,Win32,9.321228165,,,,,,,,,,,,,,,,,,,,,,,,,1,0,57,57,57,1,2898634397-367080.jpg,2446759306-271735.jpg,3,,,,,,,,,,,,,,,,
,,,A1VSEDABJFNUVQ,35,male,8,2022-11-24_10h31.40.849,memory_pilot_most_recent,2022.2.4,Win32,9.321228165,,,,,,,,,,,,,,,,,,,,,,,,,1,0,58,58,58,1,2901939379-143480.jpg,2981229442-369621.jpg,1,,,,,,,,,,,,,,,,
,,,A1VSEDABJFNUVQ,35,male,8,2022-11-24_10h31.40.849,memory_pilot_most_recent,2022.2.4,Win32,9.321228165,,,,,,,,,,,,,,,,,,,,,,,,,1,0,59,59,59,1,2238481928-19949.jpg,2989726338-74002.jpg,2,,,,,,,,,,,,,,,,
,,,A1VSEDABJFNUVQ,35,male,8,2022-11-24_10h31.40.849,memory_pilot_most_recent,2022.2.4,Win32,9.321228165,,,,,,,,,,,,,,,,,,,,,,,,,1,0,60,60,60,1,2460547467-349422.jpg,2898631394-142727.jpg,1,,,,,,,,,,,,,,,,
,,,A1VSEDABJFNUVQ,35,male,8,2022-11-24_10h31.40.849,memory_pilot_most_recent,2022.2.4,Win32,9.321228165,,,,,,,,,,,,,,,,,,,,,,,,,1,0,61,61,61,1,2898635427-367120.jpg,2449442621-272561.jpg,2,,,,,,,,,,,,,,,,
,,,A1VSEDABJFNUVQ,35,male,8,2022-11-24_10h31.40.849,memory_pilot_most_recent,2022.2.4,Win32,9.321228165,,,,,,,,,,,,,,,,,,,,,,,,,1,0,62,62,62,1,2592379964-131054.jpg,2427875694-122097.jpg,2,,,,,,,,,,,,,,,,
,,,A1VSEDABJFNUVQ,35,male,8,2022-11-24_10h31.40.849,memory_pilot_most_recent,2022.2.4,Win32,9.321228165,,,,,,,,,,,,,,,,,,,,,,,,,1,0,63,63,63,1,2901939379-143479.jpg,2446759803-49251.jpg,1,,,,,,,,,,,,,,,,
,,,A1VSEDABJFNUVQ,35,male,8,2022-11-24_10h31.40.849,memory_pilot_most_recent,2022.2.4,Win32,9.321228165,,,,,,,,,,,,,,,,,,,,,,,,,1,0,64,64,64,1,2238572663-35822.jpg,2984615361-295510.jpg,2,,,,,,,,,,,,,,,,
,,,A1VSEDABJFNUVQ,35,male,8,2022-11-24_10h31.40.849,memory_pilot_most_recent,2022.2.4,Win32,9.321228165,,,,,,,,,,,,,,,,,,,,,,,,,,,,,,,,,,,,space,3.1957,,,,,,,,,,,,
,,,A1VSEDABJFNUVQ,35,male,8,2022-11-24_10h31.40.849,memory_pilot_most_recent,2022.2.4,Win32,9.321228165,,,,,,,,,,,,,,,,,,,,,,,,,,,,,,,,,,,,,,,,,,,,,,,,,
,,,A1VSEDABJFNUVQ,35,male,8,2022-11-24_10h31.40.849,memory_pilot_most_recent,2022.2.4,Win32,9.321228165,,,,,,,,,,,,,,,,,,,,,,,,,,,,,,,,,2,left,,,,right,0,4.9381,0,0,0,0,1,2901952513-70703.jpg,2901949316-293454.jpg,,
,,,A1VSEDABJFNUVQ,35,male,8,2022-11-24_10h31.40.849,memory_pilot_most_recent,2022.2.4,Win32,9.321228165,,,,,,,,,,,,,,,,,,,,,,,,,,,,,,,,,3,left,,,,left,1,0.0097,0,1,1,1,1,2868474407-362883.jpg,2898634332-367068.jpg,,
,,,A1VSEDABJFNUVQ,35,male,8,2022-11-24_10h31.40.849,memory_pilot_most_recent,2022.2.4,Win32,9.321228165,,,,,,,,,,,,,,,,,,,,,,,,,,,,,,,,,2,right,,,,right,1,0.6791,0,2,2,2,1,2898617374-142166.jpg,2449441881-272368.jpg,,
,,,A1VSEDABJFNUVQ,35,male,8,2022-11-24_10h31.40.849,memory_pilot_most_recent,2022.2.4,Win32,9.321228165,,,,,,,,,,,,,,,,,,,,,,,,,,,,,,,,,3,right,,,,left,0,0.6649,0,3,3,3,1,2804906319-133082.jpg,2898618444-142233.jpg,,
,,,A1VSEDABJFNUVQ,35,male,8,2022-11-24_10h31.40.849,memory_pilot_most_recent,2022.2.4,Win32,9.321228165,,,,,,,,,,,,,,,,,,,,,,,,,,,,,,,,,3,right,,,,left,0,2.9713,0,4,4,4,1,2898632427-367006.jpg,2864910426-287204.jpg,,
,,,A1VSEDABJFNUVQ,35,male,8,2022-11-24_10h31.40.849,memory_pilot_most_recent,2022.2.4,Win32,9.321228165,,,,,,,,,,,,,,,,,,,,,,,,,,,,,,,,,3,left,,,,right,0,2.6118,0,5,5,5,1,2901941401-292798.jpg,2883273443-68192.jpg,,
,,,A1VSEDABJFNUVQ,35,male,8,2022-11-24_10h31.40.849,memory_pilot_most_recent,2022.2.4,Win32,9.321228165,,,,,,,,,,,,,,,,,,,,,,,,,,,,,,,,,1,left,,,,left,1,0.894,0,6,6,6,1,2874302418-65979.jpg,2413147898-43548.jpg,,
,,,A1VSEDABJFNUVQ,35,male,8,2022-11-24_10h31.40.849,memory_pilot_most_recent,2022.2.4,Win32,9.321228165,,,,,,,,,,,,,,,,,,,,,,,,,,,,,,,,,1,left,,,,right,0,1.8732,0,7,7,7,1,2964213381-294060.jpg,2981244394-145974.jpg,,
,,,A1VSEDABJFNUVQ,35,male,8,2022-11-24_10h31.40.849,memory_pilot_most_recent,2022.2.4,Win32,9.321228165,,,,,,,,,,,,,,,,,,,,,,,,,,,,,,,,,1,left,,,,right,0,0.8173,0,8,8,8,1,2592380177-354629.jpg,2898633421-291974.jpg,,
,,,A1VSEDABJFNUVQ,35,male,8,2022-11-24_10h31.40.849,memory_pilot_most_recent,2022.2.4,Win32,9.321228165,,,,,,,,,,,,,,,,,,,,,,,,,,,,,,,,,3,left,,,,left,1,1.0389,0,9,9,9,1,2964218374-144967.jpg,2898633476-291993.jpg,,
,,,A1VSEDABJFNUVQ,35,male,8,2022-11-24_10h31.40.849,memory_pilot_most_recent,2022.2.4,Win32,9.321228165,,,,,,,,,,,,,,,,,,,,,,,,,,,,,,,,,3,left,,,,left,1,0.8092,0,10,10,10,1,2874301407-363895.jpg,2989715317-371697.jpg,,
,,,A1VSEDABJFNUVQ,35,male,8,2022-11-24_10h31.40.849,memory_pilot_most_recent,2022.2.4,Win32,9.321228165,,,,,,,,,,,,,,,,,,,,,,,,,,,,,,,,,3,right,,,,right,1,1.0961,0,11,11,11,1,2901941438-69836.jpg,2460547508-51571.jpg,,
,,,A1VSEDABJFNUVQ,35,male,8,2022-11-24_10h31.40.849,memory_pilot_most_recent,2022.2.4,Win32,9.321228165,,,,,,,,,,,,,,,,,,,,,,,,,,,,,,,,,3,right,,,,left,0,0.1325,0,12,12,12,1,2460547859-126142.jpg,2575120738-55529.jpg,,
,,,A1VSEDABJFNUVQ,35,male,8,2022-11-24_10h31.40.849,memory_pilot_most_recent,2022.2.4,Win32,9.321228165,,,,,,,,,,,,,,,,,,,,,,,,,,,,,,,,,1,left,,,,left,1,0.7998,0,13,13,13,1,2238480677-317399.jpg,2238481630-168218.jpg,,
,,,A1VSEDABJFNUVQ,35,male,8,2022-11-24_10h31.40.849,memory_pilot_most_recent,2022.2.4,Win32,9.321228165,,,,,,,,,,,,,,,,,,,,,,,,,,,,,,,,,3,left,,,,right,0,0.6657,0,14,14,14,1,2449442529-124445.jpg,2901946439-144040.jpg,,
,,,A1VSEDABJFNUVQ,35,male,8,2022-11-24_10h31.40.849,memory_pilot_most_recent,2022.2.4,Win32,9.321228165,,,,,,,,,,,,,,,,,,,,,,,,,,,,,,,,,3,left,,,,left,1,0.8326,0,15,15,15,1,2864907432-362042.jpg,2898626395-216900.jpg,,
,,,A1VSEDABJFNUVQ,35,male,8,2022-11-24_10h31.40.849,memory_pilot_most_recent,2022.2.4,Win32,9.321228165,,,,,,,,,,,,,,,,,,,,,,,,,,,,,,,,,2,right,,,,left,0,0.5245,0,16,16,16,1,2238571930-184142.jpg,2986451363-73599.jpg,,
,,,A1VSEDABJFNUVQ,35,male,8,2022-11-24_10h31.40.849,memory_pilot_most_recent,2022.2.4,Win32,9.321228165,,,,,,,,,,,,,,,,,,,,,,,,,,,,,,,,,1,right,,,,left,0,0.1365,0,17,17,17,1,2238471391-240918.jpg,2238425482-313537.jpg,,
,,,A1VSEDABJFNUVQ,35,male,8,2022-11-24_10h31.40.849,memory_pilot_most_recent,2022.2.4,Win32,9.321228165,,,,,,,,,,,,,,,,,,,,,,,,,,,,,,,,,1,left,,,,left,1,0.1532,0,18,18,18,1,2452381505-199546.jpg,2901938432-367627.jpg,,
,,,A1VSEDABJFNUVQ,35,male,8,2022-11-24_10h31.40.849,memory_pilot_most_recent,2022.2.4,Win32,9.321228165,,,,,,,,,,,,,,,,,,,,,,,,,,,,,,,,,1,left,,,,right,0,0.5238,0,19,19,19,1,2238428357-313623.jpg,2238499057-320266.jpg,,
,,,A1VSEDABJFNUVQ,35,male,8,2022-11-24_10h31.40.849,memory_pilot_most_recent,2022.2.4,Win32,9.321228165,,,,,,,,,,,,,,,,,,,,,,,,,,,,,,,,,2,left,,,,right,0,0.1346,0,20,20,20,1,2898635428-69104.jpg,2864904390-212289.jpg,,
,,,A1VSEDABJFNUVQ,35,male,8,2022-11-24_10h31.40.849,memory_pilot_most_recent,2022.2.4,Win32,9.321228165,,,,,,,,,,,,,,,,,,,,,,,,,,,,,,,,,1,right,,,,right,1,0.1378,0,21,21,21,1,2868487415-213922.jpg,2901948350-218459.jpg,,
,,,A1VSEDABJFNUVQ,35,male,8,2022-11-24_10h31.40.849,memory_pilot_most_recent,2022.2.4,Win32,9.321228165,,,,,,,,,,,,,,,,,,,,,,,,,,,,,,,,,2,left,,,,left,1,0.5344,0,22,22,22,1,2238572663-35822.jpg,2984615361-295510.jpg,,
,,,A1VSEDABJFNUVQ,35,male,8,2022-11-24_10h31.40.849,memory_pilot_most_recent,2022.2.4,Win32,9.321228165,,,,,,,,,,,,,,,,,,,,,,,,,,,,,,,,,1,left,,,,left,1,1.542,0,23,23,23,1,2898624426-291546.jpg,2964207374-144577.jpg,,
,,,A1VSEDABJFNUVQ,35,male,8,2022-11-24_10h31.40.849,memory_pilot_most_recent,2022.2.4,Win32,9.321228165,,,,,,,,,,,,,,,,,,,,,,,,,,,,,,,,,1,right,,,,right,1,0.6516,0,24,24,24,1,2883268471-290843.jpg,2883268471-290842.jpg,,
,,,A1VSEDABJFNUVQ,35,male,8,2022-11-24_10h31.40.849,memory_pilot_most_recent,2022.2.4,Win32,9.321228165,,,,,,,,,,,,,,,,,,,,,,,,,,,,,,,,,1,right,,,,left,0,0.9042,0,25,25,25,1,2964224310-219528.jpg,2446759347-347016.jpg,,
,,,A1VSEDABJFNUVQ,35,male,8,2022-11-24_10h31.40.849,memory_pilot_most_recent,2022.2.4,Win32,9.321228165,,,,,,,,,,,,,,,,,,,,,,,,,,,,,,,,,1,right,,,,left,0,0.4364,0,26,26,26,1,2512876023-52283.jpg,2898633421-291973.jpg,,
,,,A1VSEDABJFNUVQ,35,male,8,2022-11-24_10h31.40.849,memory_pilot_most_recent,2022.2.4,Win32,9.321228165,,,,,,,,,,,,,,,,,,,,,,,,,,,,,,,,,1,left,,,,left,1,0.267,0,27,27,27,1,2981231403-71642.jpg,2274829821-263682.jpg,,
,,,A1VSEDABJFNUVQ,35,male,8,2022-11-24_10h31.40.849,memory_pilot_most_recent,2022.2.4,Win32,9.321228165,,,,,,,,,,,,,,,,,,,,,,,,,,,,,,,,,2,right,,,,left,0,0.6638,0,28,28,28,1,2238482539-94244.jpg,2964216465-219242.jpg,,
,,,A1VSEDABJFNUVQ,35,male,8,2022-11-24_10h31.40.849,memory_pilot_most_recent,2022.2.4,Win32,9.321228165,,,,,,,,,,,,,,,,,,,,,,,,,,,,,,,,,2,left,,,,left,1,0.382,0,29,29,29,1,2874307433-66280.jpg,2864900357-361688.jpg,,
,,,A1VSEDABJFNUVQ,35,male,8,2022-11-24_10h31.40.849,memory_pilot_most_recent,2022.2.4,Win32,9.321228165,,,,,,,,,,,,,,,,,,,,,,,,,,,,,,,,,2,left,,,,left,1,0.5522,0,30,30,30,1,2446758985-197609.jpg,2452380166-273110.jpg,,
,,,A1VSEDABJFNUVQ,35,male,8,2022-11-24_10h31.40.849,memory_pilot_most_recent,2022.2.4,Win32,9.321228165,,,,,,,,,,,,,,,,,,,,,,,,,,,,,,,,,2,left,,,,left,1,0.1492,0,31,31,31,1,2449442529-124446.jpg,2964216376-294181.jpg,,
,,,A1VSEDABJFNUVQ,35,male,8,2022-11-24_10h31.40.849,memory_pilot_most_recent,2022.2.4,Win32,9.321228165,,,,,,,,,,,,,,,,,,,,,,,,,,,,,,,,,3,right,,,,right,1,0.7823,0,32,32,32,1,2424124794-120289.jpg,2874303365-214262.jpg,,
,,,A1VSEDABJFNUVQ,35,male,8,2022-11-24_10h31.40.849,memory_pilot_most_recent,2022.2.4,Win32,9.321228165,,,,,,,,,,,,,,,,,,,,,,,,,,,,,,,,,2,right,,,,left,0,0.5396,0,33,33,33,1,2984615358-72439.jpg,2883268412-365898.jpg,,
,,,A1VSEDABJFNUVQ,35,male,8,2022-11-24_10h31.40.849,memory_pilot_most_recent,2022.2.4,Win32,9.321228165,,,,,,,,,,,,,,,,,,,,,,,,,,,,,,,,,3,right,,,,left,0,1.3797,0,34,34,34,1,2446760844-124088.jpg,2446759803-49249.jpg,,
,,,A1VSEDABJFNUVQ,35,male,8,2022-11-24_10h31.40.849,memory_pilot_most_recent,2022.2.4,Win32,9.321228165,,,,,,,,,,,,,,,,,,,,,,,,,,,,,,,,,3,left,,,,right,0,0.8197,0,35,35,35,1,2898617468-68274.jpg,2981243399-145923.jpg,,
,,,A1VSEDABJFNUVQ,35,male,8,2022-11-24_10h31.40.849,memory_pilot_most_recent,2022.2.4,Win32,9.321228165,,,,,,,,,,,,,,,,,,,,,,,,,,,,,,,,,3,left,,,,right,0,1.7151,0,36,36,36,1,2460547467-349421.jpg,2898619327-366362.jpg,,
,,,A1VSEDABJFNUVQ,35,male,8,2022-11-24_10h31.40.849,memory_pilot_most_recent,2022.2.4,Win32,9.321228165,,,,,,,,,,,,,,,,,,,,,,,,,,,,,,,,,1,left,,,,left,1,0.8362,0,37,37,37,1,2883256307-365057.jpg,2611628310-206388.jpg,,
,,,A1VSEDABJFNUVQ,35,male,8,2022-11-24_10h31.40.849,memory_pilot_most_recent,2022.2.4,Win32,9.321228165,,,,,,,,,,,,,,,,,,,,,,,,,,,,,,,,,2,left,,,,left,1,2.9484,0,38,38,38,1,2592379964-131054.jpg,2427875694-122097.jpg,,
,,,A1VSEDABJFNUVQ,35,male,8,2022-11-24_10h31.40.849,memory_pilot_most_recent,2022.2.4,Win32,9.321228165,,,,,,,,,,,,,,,,,,,,,,,,,,,,,,,,,2,right,,,,left,0,1.0764,0,39,39,39,1,2238577555-185462.jpg,2874302418-65978.jpg,,
,,,A1VSEDABJFNUVQ,35,male,8,2022-11-24_10h31.40.849,memory_pilot_most_recent,2022.2.4,Win32,9.321228165,,,,,,,,,,,,,,,,,,,,,,,,,,,,,,,,,2,right,,,,right,1,2.3728,0,40,40,40,1,2862700345-211776.jpg,2868475410-213219.jpg,,
,,,A1VSEDABJFNUVQ,35,male,8,2022-11-24_10h31.40.849,memory_pilot_most_recent,2022.2.4,Win32,9.321228165,,,,,,,,,,,,,,,,,,,,,,,,,,,,,,,,,1,left,,,,left,1,0.9462,0,41,41,41,1,2901939379-143479.jpg,2446759803-49251.jpg,,
,,,A1VSEDABJFNUVQ,35,male,8,2022-11-24_10h31.40.849,memory_pilot_most_recent,2022.2.4,Win32,9.321228165,,,,,,,,,,,,,,,,,,,,,,,,,,,,,,,,,3,left,,,,left,1,2.3792,0,42,42,42,1,2898618390-216538.jpg,2238574968-36441.jpg,,
,,,A1VSEDABJFNUVQ,35,male,8,2022-11-24_10h31.40.849,memory_pilot_most_recent,2022.2.4,Win32,9.321228165,,,,,,,,,,,,,,,,,,,,,,,,,,,,,,,,,3,right,,,,left,0,0.9722,0,43,43,43,1,2579432708-56392.jpg,2592380177-354626.jpg,,
,,,A1VSEDABJFNUVQ,35,male,8,2022-11-24_10h31.40.849,memory_pilot_most_recent,2022.2.4,Win32,9.321228165,,,,,,,,,,,,,,,,,,,,,,,,,,,,,,,,,2,right,,,,left,0,5.4114,0,44,44,44,1,2238571930-184143.jpg,2874299429-139695.jpg,,
,,,A1VSEDABJFNUVQ,35,male,8,2022-11-24_10h31.40.849,memory_pilot_most_recent,2022.2.4,Win32,9.321228165,,,,,,,,,,,,,,,,,,,,,,,,,,,,,,,,,1,left,,,,left,1,3.6434,0,45,45,45,1,2238481198-19822.jpg,2864908448-64141.jpg,,
,,,A1VSEDABJFNUVQ,35,male,8,2022-11-24_10h31.40.849,memory_pilot_most_recent,2022.2.4,Win32,9.321228165,,,,,,,,,,,,,,,,,,,,,,,,,,,,,,,,,3,right,,,,left,0,2.148,0,46,46,46,1,2446759306-271735.jpg,2898634397-367080.jpg,,
,,,A1VSEDABJFNUVQ,35,male,8,2022-11-24_10h31.40.849,memory_pilot_most_recent,2022.2.4,Win32,9.321228165,,,,,,,,,,,,,,,,,,,,,,,,,,,,,,,,,1,right,,,,left,0,2.0354,0,47,47,47,1,2898618440-216545.jpg,2512875899-126682.jpg,,
,,,A1VSEDABJFNUVQ,35,male,8,2022-11-24_10h31.40.849,memory_pilot_most_recent,2022.2.4,Win32,9.321228165,,,,,,,,,,,,,,,,,,,,,,,,,,,,,,,,,1,right,,,,left,0,2.9086,0,48,48,48,1,2981229442-369621.jpg,2901939379-143480.jpg,,
,,,A1VSEDABJFNUVQ,35,male,8,2022-11-24_10h31.40.849,memory_pilot_most_recent,2022.2.4,Win32,9.321228165,,,,,,,,,,,,,,,,,,,,,,,,,,,,,,,,,1,right,,,,left,0,2.4792,0,49,49,49,1,2860312398-62572.jpg,2901947423-70311.jpg,,
,,,A1VSEDABJFNUVQ,35,male,8,2022-11-24_10h31.40.849,memory_pilot_most_recent,2022.2.4,Win32,9.321228165,,,,,,,,,,,,,,,,,,,,,,,,,,,,,,,,,2,right,,,,right,1,0.5504,0,50,50,50,1,2989726338-74002.jpg,2238481928-19949.jpg,,
,,,A1VSEDABJFNUVQ,35,male,8,2022-11-24_10h31.40.849,memory_pilot_most_recent,2022.2.4,Win32,9.321228165,,,,,,,,,,,,,,,,,,,,,,,,,,,,,,,,,2,right,,,,right,1,0.4456,0,51,51,51,1,2238467949-92250.jpg,2238560245-182099.jpg,,
,,,A1VSEDABJFNUVQ,35,male,8,2022-11-24_10h31.40.849,memory_pilot_most_recent,2022.2.4,Win32,9.321228165,,,,,,,,,,,,,,,,,,,,,,,,,,,,,,,,,2,right,,,,right,1,0.2986,0,52,52,52,1,2575121108-55628.jpg,2238580740-186218.jpg,,
,,,A1VSEDABJFNUVQ,35,male,8,2022-11-24_10h31.40.849,memory_pilot_most_recent,2022.2.4,Win32,9.321228165,,,,,,,,,,,,,,,,,,,,,,,,,,,,,,,,,2,right,,,,left,0,0.491,0,53,53,53,1,2460548070-200336.jpg,2883254439-140941.jpg,,
,,,A1VSEDABJFNUVQ,35,male,8,2022-11-24_10h31.40.849,memory_pilot_most_recent,2022.2.4,Win32,9.321228165,,,,,,,,,,,,,,,,,,,,,,,,,,,,,,,,,2,left,,,,left,1,0.2447,0,54,54,54,1,2898635427-367120.jpg,2449442621-272561.jpg,,
,,,A1VSEDABJFNUVQ,35,male,8,2022-11-24_10h31.40.849,memory_pilot_most_recent,2022.2.4,Win32,9.321228165,,,,,,,,,,,,,,,,,,,,,,,,,,,,,,,,,1,left,,,,right,0,0.0101,0,55,55,55,1,2460547467-349422.jpg,2898631394-142727.jpg,,
,,,A1VSEDABJFNUVQ,35,male,8,2022-11-24_10h31.40.849,memory_pilot_most_recent,2022.2.4,Win32,9.321228165,,,,,,,,,,,,,,,,,,,,,,,,,,,,,,,,,2,left,,,,left,1,0.424,0,56,56,56,1,2458347385-199723.jpg,2512875824-126658.jpg,,
,,,A1VSEDABJFNUVQ,35,male,8,2022-11-24_10h31.40.849,memory_pilot_most_recent,2022.2.4,Win32,9.321228165,,,,,,,,,,,,,,,,,,,,,,,,,,,,,,,,,3,left,,,,right,0,0.2686,0,57,57,57,1,2964223381-294447.jpg,2901938432-367628.jpg,,
,,,A1VSEDABJFNUVQ,35,male,8,2022-11-24_10h31.40.849,memory_pilot_most_recent,2022.2.4,Win32,9.321228165,,,,,,,,,,,,,,,,,,,,,,,,,,,,,,,,,3,left,,,,left,1,0.1315,0,58,58,58,1,2452380832-348593.jpg,2237856283-1014.jpg,,
,,,A1VSEDABJFNUVQ,35,male,8,2022-11-24_10h31.40.849,memory_pilot_most_recent,2022.2.4,Win32,9.321228165,,,,,,,,,,,,,,,,,,,,,,,,,,,,,,,,,3,right,,,,right,1,0.2676,0,59,59,59,1,2238427023-15948.jpg,2981241414-145842.jpg,,
,,,A1VSEDABJFNUVQ,35,male,8,2022-11-24_10h31.40.849,memory_pilot_most_recent,2022.2.4,Win32,9.321228165,,,,,,,,,,,,,,,,,,,,,,,,,,,,,,,,,,,,,,,,,,,,,,,,space,2.5169
