button.numClicks,button.timesOn,button.timesOff,workID,Age,Gender,Hours slept (last night),date,expName,psychopyVersion,OS,frameRate,space_key_responce.keys,space_key_responce.rt,demo_encoding_response.keys,demo_encoding_response.corr,demo_encoding_loop.thisRepN,demo_encoding_loop.thisTrialN,demo_encoding_loop.thisN,demo_encoding_loop.thisIndex,demo_encoding_loop.ran,DemoImage,DemoCorrect,demo_encoding_response.rt,demo_test_response.keys,demo_test_response.corr,demo_test_response.rt,demo_test_loop.thisRepN,demo_test_loop.thisTrialN,demo_test_loop.thisN,demo_test_loop.thisIndex,demo_test_loop.ran,DemoImage1,DemoImage2,DemoCorrectTest,test_encoding_response.keys,test_encoding_response.corr,trials.thisRepN,trials.thisTrialN,trials.thisN,trials.thisIndex,trials.ran,target_image,pair,layer,correct,test_encoding_response.rt,key_resp_end.keys,key_resp_end.rt,test_test_response.keys,test_test_response.corr,test_test_response.rt,trials_2.thisRepN,trials_2.thisTrialN,trials_2.thisN,trials_2.thisIndex,trials_2.ran,image1,image2,key_resp_end_2.keys,key_resp_end_2.rt
1,[267.17499999999995],[267.17499999999995],A2FQVRBXJZQAWT,31,Female,8,2022-11-24_07h31.51.430,memory_pilot_most_recent,2022.2.4,Win32,2.285714286,,,,,,,,,,,,,,,,,,,,,,,,,,,,,,,,,,,,,,,,,,,,,,,,,
,,,A2FQVRBXJZQAWT,31,Female,8,2022-11-24_07h31.51.430,memory_pilot_most_recent,2022.2.4,Win32,2.285714286,,,,,,,,,,,,,,,,,,,,,,,,,,,,,,,,,,,,,,,,,,,,,,,,,
,,,A2FQVRBXJZQAWT,31,Female,8,2022-11-24_07h31.51.430,memory_pilot_most_recent,2022.2.4,Win32,2.285714286,space,8.583,,,,,,,,,,,,,,,,,,,,,,,,,,,,,,,,,,,,,,,,,,,,,,,
,,,A2FQVRBXJZQAWT,31,Female,8,2022-11-24_07h31.51.430,memory_pilot_most_recent,2022.2.4,Win32,2.285714286,,,,,,,,,,,,,,,,,,,,,,,,,,,,,,,,,,,,,,,,,,,,,,,,,
,,,A2FQVRBXJZQAWT,31,Female,8,2022-11-24_07h31.51.430,memory_pilot_most_recent,2022.2.4,Win32,2.285714286,,,,1,0,0,0,0,1,flower1.jpg,,,,,,,,,,,,,,,,,,,,,,,,,,,,,,,,,,,,,,,
,,,A2FQVRBXJZQAWT,31,Female,8,2022-11-24_07h31.51.430,memory_pilot_most_recent,2022.2.4,Win32,2.285714286,,,,1,0,1,1,1,1,flower2.jpg,,,,,,,,,,,,,,,,,,,,,,,,,,,,,,,,,,,,,,,
,,,A2FQVRBXJZQAWT,31,Female,8,2022-11-24_07h31.51.430,memory_pilot_most_recent,2022.2.4,Win32,2.285714286,,,left,1,0,2,2,2,1,left.jpg,left,0.755,,,,,,,,,,,,,,,,,,,,,,,,,,,,,,,,,,,,,
,,,A2FQVRBXJZQAWT,31,Female,8,2022-11-24_07h31.51.430,memory_pilot_most_recent,2022.2.4,Win32,2.285714286,,,,1,0,3,3,3,1,flower3.jpg,,,,,,,,,,,,,,,,,,,,,,,,,,,,,,,,,,,,,,,
,,,A2FQVRBXJZQAWT,31,Female,8,2022-11-24_07h31.51.430,memory_pilot_most_recent,2022.2.4,Win32,2.285714286,,,,1,0,4,4,4,1,flower4.jpg,,,,,,,,,,,,,,,,,,,,,,,,,,,,,,,,,,,,,,,
,,,A2FQVRBXJZQAWT,31,Female,8,2022-11-24_07h31.51.430,memory_pilot_most_recent,2022.2.4,Win32,2.285714286,,,,1,0,5,5,5,1,flower5.jpg,,,,,,,,,,,,,,,,,,,,,,,,,,,,,,,,,,,,,,,
,,,A2FQVRBXJZQAWT,31,Female,8,2022-11-24_07h31.51.430,memory_pilot_most_recent,2022.2.4,Win32,2.285714286,,,,1,0,6,6,6,1,flower6.jpg,,,,,,,,,,,,,,,,,,,,,,,,,,,,,,,,,,,,,,,
,,,A2FQVRBXJZQAWT,31,Female,8,2022-11-24_07h31.51.430,memory_pilot_most_recent,2022.2.4,Win32,2.285714286,,,,,,,,,,,,,,,,,,,,,,,,,,,,,,,,,,,,,,,,,,,,,,,,,
,,,A2FQVRBXJZQAWT,31,Female,8,2022-11-24_07h31.51.430,memory_pilot_most_recent,2022.2.4,Win32,2.285714286,,,,,,,,,,,,,right,0,11.442,0,0,0,0,1,flower1.jpg,flower1_pair.jpg,left,,,,,,,,,,,,,,,,,,,,,,,,,,
,,,A2FQVRBXJZQAWT,31,Female,8,2022-11-24_07h31.51.430,memory_pilot_most_recent,2022.2.4,Win32,2.285714286,,,,,,,,,,,,,right,1,3.884,0,1,1,1,1,flower2_pair.jpg,flower2.jpg,right,,,,,,,,,,,,,,,,,,,,,,,,,,
,,,A2FQVRBXJZQAWT,31,Female,8,2022-11-24_07h31.51.430,memory_pilot_most_recent,2022.2.4,Win32,2.285714286,,,,,,,,,,,,,right,0,3.586,0,2,2,2,1,flower3.jpg,flower3_pair.jpg,left,,,,,,,,,,,,,,,,,,,,,,,,,,
,,,A2FQVRBXJZQAWT,31,Female,8,2022-11-24_07h31.51.430,memory_pilot_most_recent,2022.2.4,Win32,2.285714286,,,,,,,,,,,,,right,0,4.162,0,3,3,3,1,flower4.jpg,flower4_pair.jpg,left,,,,,,,,,,,,,,,,,,,,,,,,,,
,,,A2FQVRBXJZQAWT,31,Female,8,2022-11-24_07h31.51.430,memory_pilot_most_recent,2022.2.4,Win32,2.285714286,,,,,,,,,,,,,right,1,2.77,0,4,4,4,1,flower5_pair.jpg,flower5.jpg,right,,,,,,,,,,,,,,,,,,,,,,,,,,
,,,A2FQVRBXJZQAWT,31,Female,8,2022-11-24_07h31.51.430,memory_pilot_most_recent,2022.2.4,Win32,2.285714286,,,,,,,,,,,,,right,0,2.67,0,5,5,5,1,flower6.jpg,flower6_pair.jpg,left,,,,,,,,,,,,,,,,,,,,,,,,,,
,,,A2FQVRBXJZQAWT,31,Female,8,2022-11-24_07h31.51.430,memory_pilot_most_recent,2022.2.4,Win32,2.285714286,,,,,,,,,,,,,,,,,,,,,,,,,,,,,,,,,,,,,,,,,,,,,,,,,
,,,A2FQVRBXJZQAWT,31,Female,8,2022-11-24_07h31.51.430,memory_pilot_most_recent,2022.2.4,Win32,2.285714286,space,5.433,,,,,,,,,,,,,,,,,,,,,,,,,,,,,,,,,,,,,,,,,,,,,,,
,,,A2FQVRBXJZQAWT,31,Female,8,2022-11-24_07h31.51.430,memory_pilot_most_recent,2022.2.4,Win32,2.285714286,,,,,,,,,,,,,,,,,,,,,,,,,1,0,0,0,0,1,2874307433-66280.jpg,2864900357-361688.jpg,2,,,,,,,,,,,,,,,,
,,,A2FQVRBXJZQAWT,31,Female,8,2022-11-24_07h31.51.430,memory_pilot_most_recent,2022.2.4,Win32,2.285714286,,,,,,,,,,,,,,,,,,,,,,,,,1,0,1,1,1,1,2868475410-213219.jpg,2238558380-181702.jpg,3,,,,,,,,,,,,,,,,
,,,A2FQVRBXJZQAWT,31,Female,8,2022-11-24_07h31.51.430,memory_pilot_most_recent,2022.2.4,Win32,2.285714286,,,,,,,,,,,,,,,,,,,,,,,,,1,0,2,2,2,1,2901952513-70703.jpg,2238537701-251773.jpg,3,,,,,,,,,,,,,,,,
,,,A2FQVRBXJZQAWT,31,Female,8,2022-11-24_07h31.51.430,memory_pilot_most_recent,2022.2.4,Win32,2.285714286,,,,,,,,,,,,,,,,,,,,,,,,,1,0,3,3,3,1,2898633421-291973.jpg,2989730319-147821.jpg,3,,,,,,,,,,,,,,,,
,,,A2FQVRBXJZQAWT,31,Female,8,2022-11-24_07h31.51.430,memory_pilot_most_recent,2022.2.4,Win32,2.285714286,,,,,,,,,,,,,,,,,,,,,,,,,1,0,4,4,4,1,2449442529-124445.jpg,2901948476-293423.jpg,2,,,,,,,,,,,,,,,,
,,,A2FQVRBXJZQAWT,31,Female,8,2022-11-24_07h31.51.430,memory_pilot_most_recent,2022.2.4,Win32,2.285714286,,,,,,,,,,,,,,,,,,,,,,,,,1,0,5,5,5,1,2901947423-70311.jpg,2860312398-62572.jpg,1,,,,,,,,,,,,,,,,
,,,A2FQVRBXJZQAWT,31,Female,8,2022-11-24_07h31.51.430,memory_pilot_most_recent,2022.2.4,Win32,2.285714286,,,,,,,,,,,,,,,,,,,,,,,,,1,0,6,6,6,1,2898624426-291546.jpg,2964207374-144577.jpg,1,,,,,,,,,,,,,,,,
,,,A2FQVRBXJZQAWT,31,Female,8,2022-11-24_07h31.51.430,memory_pilot_most_recent,2022.2.4,Win32,2.285714286,,,,,,,,,,,,,,,,,,,,,,,,,1,0,7,7,7,1,2883268412-365898.jpg,2862687418-62786.jpg,3,,,,,,,,,,,,,,,,
,,,A2FQVRBXJZQAWT,31,Female,8,2022-11-24_07h31.51.430,memory_pilot_most_recent,2022.2.4,Win32,2.285714286,,,,,,,,,,,,,,,,,,,,,,,,,1,0,8,8,8,1,2901941401-292798.jpg,2883273443-68192.jpg,3,,,,,,,,,,,,,,,,
,,,A2FQVRBXJZQAWT,31,Female,8,2022-11-24_07h31.51.430,memory_pilot_most_recent,2022.2.4,Win32,2.285714286,,,,,,,,,,,,,,,,,,,,,,,,,1,0,9,9,9,1,2868474407-362883.jpg,2898634332-367068.jpg,3,,,,,,,,,,,,,,,,
,,,A2FQVRBXJZQAWT,31,Female,8,2022-11-24_07h31.51.430,memory_pilot_most_recent,2022.2.4,Win32,2.285714286,,,,,,,,,,,,,,,,,,,,,,,,,1,0,10,10,10,1,2901939379-143479.jpg,2901938398-69594.jpg,2,,,,,,,,,,,,,,,,
,,,A2FQVRBXJZQAWT,31,Female,8,2022-11-24_07h31.51.430,memory_pilot_most_recent,2022.2.4,Win32,2.285714286,,,,,,,,,,,,,,,,,,,,,,,,,0,0,11,11,11,1,right.jpg,,,right,,,,,,,,,,,,,,,
,,,A2FQVRBXJZQAWT,31,Female,8,2022-11-24_07h31.51.430,memory_pilot_most_recent,2022.2.4,Win32,2.285714286,,,,,,,,,,,,,,,,,,,,,,,,,1,0,12,12,12,1,2458347385-199723.jpg,2238436632-314070.jpg,3,,,,,,,,,,,,,,,,
,,,A2FQVRBXJZQAWT,31,Female,8,2022-11-24_07h31.51.430,memory_pilot_most_recent,2022.2.4,Win32,2.285714286,,,,,,,,,,,,,,,,,,,,,,,,,1,0,13,13,13,1,2964213381-294060.jpg,2981244394-145974.jpg,1,,,,,,,,,,,,,,,,
,,,A2FQVRBXJZQAWT,31,Female,8,2022-11-24_07h31.51.430,memory_pilot_most_recent,2022.2.4,Win32,2.285714286,,,,,,,,,,,,,,,,,,,,,,,,,1,0,14,14,14,1,2874303365-214262.jpg,2609793677-355397.jpg,1,,,,,,,,,,,,,,,,
,,,A2FQVRBXJZQAWT,31,Female,8,2022-11-24_07h31.51.430,memory_pilot_most_recent,2022.2.4,Win32,2.285714286,,,,,,,,,,,,,,,,,,,,,,,,,1,0,15,15,15,1,2446759803-49249.jpg,2238499155-170911.jpg,2,,,,,,,,,,,,,,,,
,,,A2FQVRBXJZQAWT,31,Female,8,2022-11-24_07h31.51.430,memory_pilot_most_recent,2022.2.4,Win32,2.285714286,,,,,,,,,,,,,,,,,,,,,,,,,1,0,16,16,16,1,2592379964-131054.jpg,2427875694-122097.jpg,2,,,,,,,,,,,,,,,,
,,,A2FQVRBXJZQAWT,31,Female,8,2022-11-24_07h31.51.430,memory_pilot_most_recent,2022.2.4,Win32,2.285714286,,,,,,,,,,,,,,,,,,,,,,,,,1,0,17,17,17,1,2238560245-182099.jpg,2549106624-127823.jpg,1,,,,,,,,,,,,,,,,
,,,A2FQVRBXJZQAWT,31,Female,8,2022-11-24_07h31.51.430,memory_pilot_most_recent,2022.2.4,Win32,2.285714286,,,,,,,,,,,,,,,,,,,,,,,,,1,0,18,18,18,1,2449442529-124446.jpg,2452380171-273112.jpg,1,,,,,,,,,,,,,,,,
,,,A2FQVRBXJZQAWT,31,Female,8,2022-11-24_07h31.51.430,memory_pilot_most_recent,2022.2.4,Win32,2.285714286,,,,,,,,,,,,,,,,,,,,,,,,,1,0,19,19,19,1,2592380177-354626.jpg,2579432708-56392.jpg,3,,,,,,,,,,,,,,,,
,,,A2FQVRBXJZQAWT,31,Female,8,2022-11-24_07h31.51.430,memory_pilot_most_recent,2022.2.4,Win32,2.285714286,,,,,,,,,,,,,,,,,,,,,,,,,1,0,20,20,20,1,2898635428-69104.jpg,2446759803-49250.jpg,1,,,,,,,,,,,,,,,,
,,,A2FQVRBXJZQAWT,31,Female,8,2022-11-24_07h31.51.430,memory_pilot_most_recent,2022.2.4,Win32,2.285714286,,,,,,,,,,,,,,,,,,,,,,,,right,1,0,21,21,21,1,right.jpg,,,right,1.484,,,,,,,,,,,,,,
,,,A2FQVRBXJZQAWT,31,Female,8,2022-11-24_07h31.51.430,memory_pilot_most_recent,2022.2.4,Win32,2.285714286,,,,,,,,,,,,,,,,,,,,,,,,,1,0,22,22,22,1,2883254439-140941.jpg,2964219379-144996.jpg,3,,,,,,,,,,,,,,,,
,,,A2FQVRBXJZQAWT,31,Female,8,2022-11-24_07h31.51.430,memory_pilot_most_recent,2022.2.4,Win32,2.285714286,,,,,,,,,,,,,,,,,,,,,,,,,1,0,23,23,23,1,2575120738-55529.jpg,2901946413-70227.jpg,2,,,,,,,,,,,,,,,,
,,,A2FQVRBXJZQAWT,31,Female,8,2022-11-24_07h31.51.430,memory_pilot_most_recent,2022.2.4,Win32,2.285714286,,,,,,,,,,,,,,,,,,,,,,,,,1,0,24,24,24,1,2512875899-126682.jpg,2512875899-126681.jpg,3,,,,,,,,,,,,,,,,
,,,A2FQVRBXJZQAWT,31,Female,8,2022-11-24_07h31.51.430,memory_pilot_most_recent,2022.2.4,Win32,2.285714286,,,,,,,,,,,,,,,,,,,,,,,,,1,0,25,25,25,1,2964216465-219242.jpg,2238544191-252422.jpg,1,,,,,,,,,,,,,,,,
,,,A2FQVRBXJZQAWT,31,Female,8,2022-11-24_07h31.51.430,memory_pilot_most_recent,2022.2.4,Win32,2.285714286,,,,,,,,,,,,,,,,,,,,,,,,left,1,0,26,26,26,1,left.jpg,,,left,1.318,,,,,,,,,,,,,,
,,,A2FQVRBXJZQAWT,31,Female,8,2022-11-24_07h31.51.430,memory_pilot_most_recent,2022.2.4,Win32,2.285714286,,,,,,,,,,,,,,,,,,,,,,,,,1,0,27,27,27,1,2446759347-347016.jpg,2864904415-212294.jpg,2,,,,,,,,,,,,,,,,
,,,A2FQVRBXJZQAWT,31,Female,8,2022-11-24_07h31.51.430,memory_pilot_most_recent,2022.2.4,Win32,2.285714286,,,,,,,,,,,,,,,,,,,,,,,,,1,0,28,28,28,1,2883268471-290842.jpg,2898623398-68538.jpg,2,,,,,,,,,,,,,,,,
,,,A2FQVRBXJZQAWT,31,Female,8,2022-11-24_07h31.51.430,memory_pilot_most_recent,2022.2.4,Win32,2.285714286,,,,,,,,,,,,,,,,,,,,,,,,,1,0,29,29,29,1,2874302418-65978.jpg,2898626385-216899.jpg,1,,,,,,,,,,,,,,,,
,,,A2FQVRBXJZQAWT,31,Female,8,2022-11-24_07h31.51.430,memory_pilot_most_recent,2022.2.4,Win32,2.285714286,,,,,,,,,,,,,,,,,,,,,,,,,1,0,30,30,30,1,2238425482-313537.jpg,2981244403-72215.jpg,2,,,,,,,,,,,,,,,,
,,,A2FQVRBXJZQAWT,31,Female,8,2022-11-24_07h31.51.430,memory_pilot_most_recent,2022.2.4,Win32,2.285714286,,,,,,,,,,,,,,,,,,,,,,,,,1,0,31,31,31,1,2460547467-349421.jpg,2898619327-366362.jpg,3,,,,,,,,,,,,,,,,
,,,A2FQVRBXJZQAWT,31,Female,8,2022-11-24_07h31.51.430,memory_pilot_most_recent,2022.2.4,Win32,2.285714286,,,,,,,,,,,,,,,,,,,,,,,,,1,0,32,32,32,1,2238580740-186218.jpg,2238550816-254000.jpg,1,,,,,,,,,,,,,,,,
,,,A2FQVRBXJZQAWT,31,Female,8,2022-11-24_07h31.51.430,memory_pilot_most_recent,2022.2.4,Win32,2.285714286,,,,,,,,,,,,,,,,,,,,,,,,,1,0,33,33,33,1,2898618390-216538.jpg,2238550049-105691.jpg,1,,,,,,,,,,,,,,,,
,,,A2FQVRBXJZQAWT,31,Female,8,2022-11-24_07h31.51.430,memory_pilot_most_recent,2022.2.4,Win32,2.285714286,,,,,,,,,,,,,,,,,,,,,,,,,1,0,34,34,34,1,2898618444-142233.jpg,2804906319-133082.jpg,3,,,,,,,,,,,,,,,,
,,,A2FQVRBXJZQAWT,31,Female,8,2022-11-24_07h31.51.430,memory_pilot_most_recent,2022.2.4,Win32,2.285714286,,,,,,,,,,,,,,,,,,,,,,,,,1,0,35,35,35,1,2449441881-272368.jpg,2984615361-295509.jpg,1,,,,,,,,,,,,,,,,
,,,A2FQVRBXJZQAWT,31,Female,8,2022-11-24_07h31.51.430,memory_pilot_most_recent,2022.2.4,Win32,2.285714286,,,,,,,,,,,,,,,,,,,,,,,,,1,0,36,36,36,1,2964218374-144967.jpg,2446758985-197610.jpg,2,,,,,,,,,,,,,,,,
,,,A2FQVRBXJZQAWT,31,Female,8,2022-11-24_07h31.51.430,memory_pilot_most_recent,2022.2.4,Win32,2.285714286,,,,,,,,,,,,,,,,,,,,,,,,,1,0,37,37,37,1,2883256307-365057.jpg,2901947448-70315.jpg,3,,,,,,,,,,,,,,,,
,,,A2FQVRBXJZQAWT,31,Female,8,2022-11-24_07h31.51.430,memory_pilot_most_recent,2022.2.4,Win32,2.285714286,,,,,,,,,,,,,,,,,,,,,,,,,1,0,38,38,38,1,2986451363-73599.jpg,2901939327-367669.jpg,1,,,,,,,,,,,,,,,,
,,,A2FQVRBXJZQAWT,31,Female,8,2022-11-24_07h31.51.430,memory_pilot_most_recent,2022.2.4,Win32,2.285714286,,,,,,,,,,,,,,,,,,,,,,,,,1,0,39,39,39,1,2898617468-68274.jpg,2238433340-164524.jpg,2,,,,,,,,,,,,,,,,
,,,A2FQVRBXJZQAWT,31,Female,8,2022-11-24_07h31.51.430,memory_pilot_most_recent,2022.2.4,Win32,2.285714286,,,,,,,,,,,,,,,,,,,,,,,,,1,0,40,40,40,1,2981241414-145842.jpg,2868469411-287540.jpg,2,,,,,,,,,,,,,,,,
,,,A2FQVRBXJZQAWT,31,Female,8,2022-11-24_07h31.51.430,memory_pilot_most_recent,2022.2.4,Win32,2.285714286,,,,,,,,,,,,,,,,,,,,,,,,,1,0,41,41,41,1,2460547508-51571.jpg,2898633480-217189.jpg,2,,,,,,,,,,,,,,,,
,,,A2FQVRBXJZQAWT,31,Female,8,2022-11-24_07h31.51.430,memory_pilot_most_recent,2022.2.4,Win32,2.285714286,,,,,,,,,,,,,,,,,,,,,,,,,1,0,42,42,42,1,2238480677-317399.jpg,2446761173-49643.jpg,2,,,,,,,,,,,,,,,,
,,,A2FQVRBXJZQAWT,31,Female,8,2022-11-24_07h31.51.430,memory_pilot_most_recent,2022.2.4,Win32,2.285714286,,,,,,,,,,,,,,,,,,,,,,,,,1,0,43,43,43,1,2981231403-71642.jpg,2274829821-263682.jpg,1,,,,,,,,,,,,,,,,
,,,A2FQVRBXJZQAWT,31,Female,8,2022-11-24_07h31.51.430,memory_pilot_most_recent,2022.2.4,Win32,2.285714286,,,,,,,,,,,,,,,,,,,,,,,,left,1,0,44,44,44,1,left.jpg,,,left,1.05,,,,,,,,,,,,,,
,,,A2FQVRBXJZQAWT,31,Female,8,2022-11-24_07h31.51.430,memory_pilot_most_recent,2022.2.4,Win32,2.285714286,,,,,,,,,,,,,,,,,,,,,,,,,1,0,45,45,45,1,2964223381-294447.jpg,2427874231-269884.jpg,1,,,,,,,,,,,,,,,,
,,,A2FQVRBXJZQAWT,31,Female,8,2022-11-24_07h31.51.430,memory_pilot_most_recent,2022.2.4,Win32,2.285714286,,,,,,,,,,,,,,,,,,,,,,,,,1,0,46,46,46,1,2898634397-367080.jpg,2446759306-271735.jpg,3,,,,,,,,,,,,,,,,
,,,A2FQVRBXJZQAWT,31,Female,8,2022-11-24_07h31.51.430,memory_pilot_most_recent,2022.2.4,Win32,2.285714286,,,,,,,,,,,,,,,,,,,,,,,,,1,0,47,47,47,1,2238481198-19822.jpg,2864908448-64141.jpg,1,,,,,,,,,,,,,,,,
,,,A2FQVRBXJZQAWT,31,Female,8,2022-11-24_07h31.51.430,memory_pilot_most_recent,2022.2.4,Win32,2.285714286,,,,,,,,,,,,,,,,,,,,,,,,left,1,0,48,48,48,1,left.jpg,,,left,0.843,,,,,,,,,,,,,,
,,,A2FQVRBXJZQAWT,31,Female,8,2022-11-24_07h31.51.430,memory_pilot_most_recent,2022.2.4,Win32,2.285714286,,,,,,,,,,,,,,,,,,,,,,,,,1,0,49,49,49,1,2238428357-313623.jpg,2238499057-320266.jpg,1,,,,,,,,,,,,,,,,
,,,A2FQVRBXJZQAWT,31,Female,8,2022-11-24_07h31.51.430,memory_pilot_most_recent,2022.2.4,Win32,2.285714286,,,,,,,,,,,,,,,,,,,,,,,,,1,0,50,50,50,1,2452380832-348593.jpg,2238515978-25479.jpg,2,,,,,,,,,,,,,,,,
,,,A2FQVRBXJZQAWT,31,Female,8,2022-11-24_07h31.51.430,memory_pilot_most_recent,2022.2.4,Win32,2.285714286,,,,,,,,,,,,,,,,,,,,,,,,,1,0,51,51,51,1,2592380177-354629.jpg,2847210303-60991.jpg,3,,,,,,,,,,,,,,,,
,,,A2FQVRBXJZQAWT,31,Female,8,2022-11-24_07h31.51.430,memory_pilot_most_recent,2022.2.4,Win32,2.285714286,,,,,,,,,,,,,,,,,,,,,,,,,1,0,52,52,52,1,2238572663-35822.jpg,2984615361-295510.jpg,2,,,,,,,,,,,,,,,,
,,,A2FQVRBXJZQAWT,31,Female,8,2022-11-24_07h31.51.430,memory_pilot_most_recent,2022.2.4,Win32,2.285714286,,,,,,,,,,,,,,,,,,,,,,,,,1,0,53,53,53,1,2864907432-362042.jpg,2864901420-212147.jpg,1,,,,,,,,,,,,,,,,
,,,A2FQVRBXJZQAWT,31,Female,8,2022-11-24_07h31.51.430,memory_pilot_most_recent,2022.2.4,Win32,2.285714286,,,,,,,,,,,,,,,,,,,,,,,,,1,0,54,54,54,1,2898635427-367120.jpg,2898624426-291545.jpg,3,,,,,,,,,,,,,,,,
,,,A2FQVRBXJZQAWT,31,Female,8,2022-11-24_07h31.51.430,memory_pilot_most_recent,2022.2.4,Win32,2.285714286,,,,,,,,,,,,,,,,,,,,,,,,,1,0,55,55,55,1,2446758985-197609.jpg,2981240424-145795.jpg,1,,,,,,,,,,,,,,,,
,,,A2FQVRBXJZQAWT,31,Female,8,2022-11-24_07h31.51.430,memory_pilot_most_recent,2022.2.4,Win32,2.285714286,,,,,,,,,,,,,,,,,,,,,,,,,1,0,56,56,56,1,2238481928-19949.jpg,2864910427-362200.jpg,3,,,,,,,,,,,,,,,,
,,,A2FQVRBXJZQAWT,31,Female,8,2022-11-24_07h31.51.430,memory_pilot_most_recent,2022.2.4,Win32,2.285714286,,,,,,,,,,,,,,,,,,,,,,,,,1,0,57,57,57,1,2874299429-139695.jpg,2238571930-184143.jpg,2,,,,,,,,,,,,,,,,
,,,A2FQVRBXJZQAWT,31,Female,8,2022-11-24_07h31.51.430,memory_pilot_most_recent,2022.2.4,Win32,2.285714286,,,,,,,,,,,,,,,,,,,,,,,,,1,0,58,58,58,1,2460547467-349422.jpg,2989721311-296963.jpg,2,,,,,,,,,,,,,,,,
,,,A2FQVRBXJZQAWT,31,Female,8,2022-11-24_07h31.51.430,memory_pilot_most_recent,2022.2.4,Win32,2.285714286,,,,,,,,,,,,,,,,,,,,,,,,,1,0,59,59,59,1,2874302418-65979.jpg,2238470808-18373.jpg,3,,,,,,,,,,,,,,,,
,,,A2FQVRBXJZQAWT,31,Female,8,2022-11-24_07h31.51.430,memory_pilot_most_recent,2022.2.4,Win32,2.285714286,,,,,,,,,,,,,,,,,,,,,,,,,1,0,60,60,60,1,2874301407-363895.jpg,2989715317-371697.jpg,3,,,,,,,,,,,,,,,,
,,,A2FQVRBXJZQAWT,31,Female,8,2022-11-24_07h31.51.430,memory_pilot_most_recent,2022.2.4,Win32,2.285714286,,,,,,,,,,,,,,,,,,,,,,,,,1,0,61,61,61,1,2901948350-218459.jpg,2898629328-68806.jpg,2,,,,,,,,,,,,,,,,
,,,A2FQVRBXJZQAWT,31,Female,8,2022-11-24_07h31.51.430,memory_pilot_most_recent,2022.2.4,Win32,2.285714286,,,,,,,,,,,,,,,,,,,,,,,,,1,0,62,62,62,1,2901939379-143480.jpg,2964218373-71170.jpg,2,,,,,,,,,,,,,,,,
,,,A2FQVRBXJZQAWT,31,Female,8,2022-11-24_07h31.51.430,memory_pilot_most_recent,2022.2.4,Win32,2.285714286,,,,,,,,,,,,,,,,,,,,,,,,,1,0,63,63,63,1,2452381505-199546.jpg,2898622392-366513.jpg,3,,,,,,,,,,,,,,,,
,,,A2FQVRBXJZQAWT,31,Female,8,2022-11-24_07h31.51.430,memory_pilot_most_recent,2022.2.4,Win32,2.285714286,,,,,,,,,,,,,,,,,,,,,,,,,1,0,64,64,64,1,2864910426-287204.jpg,2864902304-137862.jpg,1,,,,,,,,,,,,,,,,
,,,A2FQVRBXJZQAWT,31,Female,8,2022-11-24_07h31.51.430,memory_pilot_most_recent,2022.2.4,Win32,2.285714286,,,,,,,,,,,,,,,,,,,,,,,,,,,,,,,,,,,,space,4.644,,,,,,,,,,,,
,,,A2FQVRBXJZQAWT,31,Female,8,2022-11-24_07h31.51.430,memory_pilot_most_recent,2022.2.4,Win32,2.285714286,,,,,,,,,,,,,,,,,,,,,,,,,,,,,,,,,,,,,,,,,,,,,,,,,
,,,A2FQVRBXJZQAWT,31,Female,8,2022-11-24_07h31.51.430,memory_pilot_most_recent,2022.2.4,Win32,2.285714286,,,,,,,,,,,,,,,,,,,,,,,,,,,,,,,,,2,right,,,,right,1,3.354,0,0,0,0,1,2864900357-361688.jpg,2874307433-66280.jpg,,
,,,A2FQVRBXJZQAWT,31,Female,8,2022-11-24_07h31.51.430,memory_pilot_most_recent,2022.2.4,Win32,2.285714286,,,,,,,,,,,,,,,,,,,,,,,,,,,,,,,,,2,right,,,,right,1,2.312,0,1,1,1,1,2427875694-122097.jpg,2592379964-131054.jpg,,
,,,A2FQVRBXJZQAWT,31,Female,8,2022-11-24_07h31.51.430,memory_pilot_most_recent,2022.2.4,Win32,2.285714286,,,,,,,,,,,,,,,,,,,,,,,,,,,,,,,,,1,left,,,,left,1,2.105,0,2,2,2,1,2901947423-70311.jpg,2860312398-62572.jpg,,
,,,A2FQVRBXJZQAWT,31,Female,8,2022-11-24_07h31.51.430,memory_pilot_most_recent,2022.2.4,Win32,2.285714286,,,,,,,,,,,,,,,,,,,,,,,,,,,,,,,,,2,right,,,,right,1,1.744,0,3,3,3,1,2238433340-164524.jpg,2898617468-68274.jpg,,
,,,A2FQVRBXJZQAWT,31,Female,8,2022-11-24_07h31.51.430,memory_pilot_most_recent,2022.2.4,Win32,2.285714286,,,,,,,,,,,,,,,,,,,,,,,,,,,,,,,,,1,right,,,,left,0,3.376,0,4,4,4,1,2238550816-254000.jpg,2238580740-186218.jpg,,
,,,A2FQVRBXJZQAWT,31,Female,8,2022-11-24_07h31.51.430,memory_pilot_most_recent,2022.2.4,Win32,2.285714286,,,,,,,,,,,,,,,,,,,,,,,,,,,,,,,,,1,left,,,,right,0,2.344,0,5,5,5,1,2964216465-219242.jpg,2238544191-252422.jpg,,
,,,A2FQVRBXJZQAWT,31,Female,8,2022-11-24_07h31.51.430,memory_pilot_most_recent,2022.2.4,Win32,2.285714286,,,,,,,,,,,,,,,,,,,,,,,,,,,,,,,,,2,left,,,,right,0,4.774,0,6,6,6,1,2452380832-348593.jpg,2238515978-25479.jpg,,
,,,A2FQVRBXJZQAWT,31,Female,8,2022-11-24_07h31.51.430,memory_pilot_most_recent,2022.2.4,Win32,2.285714286,,,,,,,,,,,,,,,,,,,,,,,,,,,,,,,,,1,left,,,,left,1,3.322,0,7,7,7,1,2898635428-69104.jpg,2446759803-49250.jpg,,
,,,A2FQVRBXJZQAWT,31,Female,8,2022-11-24_07h31.51.430,memory_pilot_most_recent,2022.2.4,Win32,2.285714286,,,,,,,,,,,,,,,,,,,,,,,,,,,,,,,,,3,right,,,,left,0,3.645,0,8,8,8,1,2238558380-181702.jpg,2868475410-213219.jpg,,
,,,A2FQVRBXJZQAWT,31,Female,8,2022-11-24_07h31.51.430,memory_pilot_most_recent,2022.2.4,Win32,2.285714286,,,,,,,,,,,,,,,,,,,,,,,,,,,,,,,,,3,right,,,,right,1,2.752,0,9,9,9,1,2898619327-366362.jpg,2460547467-349421.jpg,,
,,,A2FQVRBXJZQAWT,31,Female,8,2022-11-24_07h31.51.430,memory_pilot_most_recent,2022.2.4,Win32,2.285714286,,,,,,,,,,,,,,,,,,,,,,,,,,,,,,,,,3,right,,,,right,1,2.721,0,10,10,10,1,2238470808-18373.jpg,2874302418-65979.jpg,,
,,,A2FQVRBXJZQAWT,31,Female,8,2022-11-24_07h31.51.430,memory_pilot_most_recent,2022.2.4,Win32,2.285714286,,,,,,,,,,,,,,,,,,,,,,,,,,,,,,,,,3,right,,,,right,1,1.937,0,11,11,11,1,2847210303-60991.jpg,2592380177-354629.jpg,,
,,,A2FQVRBXJZQAWT,31,Female,8,2022-11-24_07h31.51.430,memory_pilot_most_recent,2022.2.4,Win32,2.285714286,,,,,,,,,,,,,,,,,,,,,,,,,,,,,,,,,2,left,,,,left,1,5.957,0,12,12,12,1,2901948350-218459.jpg,2898629328-68806.jpg,,
,,,A2FQVRBXJZQAWT,31,Female,8,2022-11-24_07h31.51.430,memory_pilot_most_recent,2022.2.4,Win32,2.285714286,,,,,,,,,,,,,,,,,,,,,,,,,,,,,,,,,3,right,,,,right,1,3.08,0,13,13,13,1,2989730319-147821.jpg,2898633421-291973.jpg,,
,,,A2FQVRBXJZQAWT,31,Female,8,2022-11-24_07h31.51.430,memory_pilot_most_recent,2022.2.4,Win32,2.285714286,,,,,,,,,,,,,,,,,,,,,,,,,,,,,,,,,1,right,,,,right,1,2.932,0,14,14,14,1,2238499057-320266.jpg,2238428357-313623.jpg,,
,,,A2FQVRBXJZQAWT,31,Female,8,2022-11-24_07h31.51.430,memory_pilot_most_recent,2022.2.4,Win32,2.285714286,,,,,,,,,,,,,,,,,,,,,,,,,,,,,,,,,1,right,,,,left,0,7.431,0,15,15,15,1,2981244394-145974.jpg,2964213381-294060.jpg,,
,,,A2FQVRBXJZQAWT,31,Female,8,2022-11-24_07h31.51.430,memory_pilot_most_recent,2022.2.4,Win32,2.285714286,,,,,,,,,,,,,,,,,,,,,,,,,,,,,,,,,3,left,,,,left,1,4.993,0,16,16,16,1,2874301407-363895.jpg,2989715317-371697.jpg,,
,,,A2FQVRBXJZQAWT,31,Female,8,2022-11-24_07h31.51.430,memory_pilot_most_recent,2022.2.4,Win32,2.285714286,,,,,,,,,,,,,,,,,,,,,,,,,,,,,,,,,1,right,,,,right,1,4.927,0,17,17,17,1,2609793677-355397.jpg,2874303365-214262.jpg,,
,,,A2FQVRBXJZQAWT,31,Female,8,2022-11-24_07h31.51.430,memory_pilot_most_recent,2022.2.4,Win32,2.285714286,,,,,,,,,,,,,,,,,,,,,,,,,,,,,,,,,1,right,,,,right,1,5.865,0,18,18,18,1,2864901420-212147.jpg,2864907432-362042.jpg,,
,,,A2FQVRBXJZQAWT,31,Female,8,2022-11-24_07h31.51.430,memory_pilot_most_recent,2022.2.4,Win32,2.285714286,,,,,,,,,,,,,,,,,,,,,,,,,,,,,,,,,3,right,,,,left,0,4.186,0,19,19,19,1,2804906319-133082.jpg,2898618444-142233.jpg,,
,,,A2FQVRBXJZQAWT,31,Female,8,2022-11-24_07h31.51.430,memory_pilot_most_recent,2022.2.4,Win32,2.285714286,,,,,,,,,,,,,,,,,,,,,,,,,,,,,,,,,2,right,,,,right,1,3.608,0,20,20,20,1,2964218373-71170.jpg,2901939379-143480.jpg,,
,,,A2FQVRBXJZQAWT,31,Female,8,2022-11-24_07h31.51.430,memory_pilot_most_recent,2022.2.4,Win32,2.285714286,,,,,,,,,,,,,,,,,,,,,,,,,,,,,,,,,2,left,,,,left,1,3.936,0,21,21,21,1,2238572663-35822.jpg,2984615361-295510.jpg,,
,,,A2FQVRBXJZQAWT,31,Female,8,2022-11-24_07h31.51.430,memory_pilot_most_recent,2022.2.4,Win32,2.285714286,,,,,,,,,,,,,,,,,,,,,,,,,,,,,,,,,1,right,,,,left,0,4.274,0,22,22,22,1,2452380171-273112.jpg,2449442529-124446.jpg,,
,,,A2FQVRBXJZQAWT,31,Female,8,2022-11-24_07h31.51.430,memory_pilot_most_recent,2022.2.4,Win32,2.285714286,,,,,,,,,,,,,,,,,,,,,,,,,,,,,,,,,1,left,,,,left,1,4.32,0,23,23,23,1,2981231403-71642.jpg,2274829821-263682.jpg,,
,,,A2FQVRBXJZQAWT,31,Female,8,2022-11-24_07h31.51.430,memory_pilot_most_recent,2022.2.4,Win32,2.285714286,,,,,,,,,,,,,,,,,,,,,,,,,,,,,,,,,3,right,,,,right,1,20.528,0,24,24,24,1,2898624426-291545.jpg,2898635427-367120.jpg,,
,,,A2FQVRBXJZQAWT,31,Female,8,2022-11-24_07h31.51.430,memory_pilot_most_recent,2022.2.4,Win32,2.285714286,,,,,,,,,,,,,,,,,,,,,,,,,,,,,,,,,2,left,,,,left,1,4.615,0,25,25,25,1,2901939379-143479.jpg,2901938398-69594.jpg,,
,,,A2FQVRBXJZQAWT,31,Female,8,2022-11-24_07h31.51.430,memory_pilot_most_recent,2022.2.4,Win32,2.285714286,,,,,,,,,,,,,,,,,,,,,,,,,,,,,,,,,3,left,,,,left,1,5.018,0,26,26,26,1,2592380177-354626.jpg,2579432708-56392.jpg,,
,,,A2FQVRBXJZQAWT,31,Female,8,2022-11-24_07h31.51.430,memory_pilot_most_recent,2022.2.4,Win32,2.285714286,,,,,,,,,,,,,,,,,,,,,,,,,,,,,,,,,1,left,,,,left,1,5.081,0,27,27,27,1,2864910426-287204.jpg,2864902304-137862.jpg,,
,,,A2FQVRBXJZQAWT,31,Female,8,2022-11-24_07h31.51.430,memory_pilot_most_recent,2022.2.4,Win32,2.285714286,,,,,,,,,,,,,,,,,,,,,,,,,,,,,,,,,2,left,,,,left,1,8.966,0,28,28,28,1,2460547467-349422.jpg,2989721311-296963.jpg,,
,,,A2FQVRBXJZQAWT,31,Female,8,2022-11-24_07h31.51.430,memory_pilot_most_recent,2022.2.4,Win32,2.285714286,,,,,,,,,,,,,,,,,,,,,,,,,,,,,,,,,3,right,,,,right,1,7.067,0,29,29,29,1,2862687418-62786.jpg,2883268412-365898.jpg,,
,,,A2FQVRBXJZQAWT,31,Female,8,2022-11-24_07h31.51.430,memory_pilot_most_recent,2022.2.4,Win32,2.285714286,,,,,,,,,,,,,,,,,,,,,,,,,,,,,,,,,3,right,,,,left,0,4.285,0,30,30,30,1,2898622392-366513.jpg,2452381505-199546.jpg,,
,,,A2FQVRBXJZQAWT,31,Female,8,2022-11-24_07h31.51.430,memory_pilot_most_recent,2022.2.4,Win32,2.285714286,,,,,,,,,,,,,,,,,,,,,,,,,,,,,,,,,2,left,,,,left,1,3.56,0,31,31,31,1,2964218374-144967.jpg,2446758985-197610.jpg,,
,,,A2FQVRBXJZQAWT,31,Female,8,2022-11-24_07h31.51.430,memory_pilot_most_recent,2022.2.4,Win32,2.285714286,,,,,,,,,,,,,,,,,,,,,,,,,,,,,,,,,2,right,,,,left,0,18.299,0,32,32,32,1,2238571930-184143.jpg,2874299429-139695.jpg,,
,,,A2FQVRBXJZQAWT,31,Female,8,2022-11-24_07h31.51.430,memory_pilot_most_recent,2022.2.4,Win32,2.285714286,,,,,,,,,,,,,,,,,,,,,,,,,,,,,,,,,3,left,,,,left,1,4.3,0,33,33,33,1,2868474407-362883.jpg,2898634332-367068.jpg,,
,,,A2FQVRBXJZQAWT,31,Female,8,2022-11-24_07h31.51.430,memory_pilot_most_recent,2022.2.4,Win32,2.285714286,,,,,,,,,,,,,,,,,,,,,,,,,,,,,,,,,3,right,,,,right,1,4.217,0,34,34,34,1,2901947448-70315.jpg,2883256307-365057.jpg,,
,,,A2FQVRBXJZQAWT,31,Female,8,2022-11-24_07h31.51.430,memory_pilot_most_recent,2022.2.4,Win32,2.285714286,,,,,,,,,,,,,,,,,,,,,,,,,,,,,,,,,1,right,,,,left,0,2.874,0,35,35,35,1,2901939327-367669.jpg,2986451363-73599.jpg,,
,,,A2FQVRBXJZQAWT,31,Female,8,2022-11-24_07h31.51.430,memory_pilot_most_recent,2022.2.4,Win32,2.285714286,,,,,,,,,,,,,,,,,,,,,,,,,,,,,,,,,2,right,,,,right,1,2.187,0,36,36,36,1,2901946413-70227.jpg,2575120738-55529.jpg,,
,,,A2FQVRBXJZQAWT,31,Female,8,2022-11-24_07h31.51.430,memory_pilot_most_recent,2022.2.4,Win32,2.285714286,,,,,,,,,,,,,,,,,,,,,,,,,,,,,,,,,1,right,,,,right,1,3.21,0,37,37,37,1,2964207374-144577.jpg,2898624426-291546.jpg,,
,,,A2FQVRBXJZQAWT,31,Female,8,2022-11-24_07h31.51.430,memory_pilot_most_recent,2022.2.4,Win32,2.285714286,,,,,,,,,,,,,,,,,,,,,,,,,,,,,,,,,2,left,,,,left,1,2.668,0,38,38,38,1,2446759803-49249.jpg,2238499155-170911.jpg,,
,,,A2FQVRBXJZQAWT,31,Female,8,2022-11-24_07h31.51.430,memory_pilot_most_recent,2022.2.4,Win32,2.285714286,,,,,,,,,,,,,,,,,,,,,,,,,,,,,,,,,1,left,,,,right,0,2.799,0,39,39,39,1,2874302418-65978.jpg,2898626385-216899.jpg,,
,,,A2FQVRBXJZQAWT,31,Female,8,2022-11-24_07h31.51.430,memory_pilot_most_recent,2022.2.4,Win32,2.285714286,,,,,,,,,,,,,,,,,,,,,,,,,,,,,,,,,3,right,,,,right,1,4.892,0,40,40,40,1,2238537701-251773.jpg,2901952513-70703.jpg,,
,,,A2FQVRBXJZQAWT,31,Female,8,2022-11-24_07h31.51.430,memory_pilot_most_recent,2022.2.4,Win32,2.285714286,,,,,,,,,,,,,,,,,,,,,,,,,,,,,,,,,3,right,,,,right,1,3.14,0,41,41,41,1,2964219379-144996.jpg,2883254439-140941.jpg,,
,,,A2FQVRBXJZQAWT,31,Female,8,2022-11-24_07h31.51.430,memory_pilot_most_recent,2022.2.4,Win32,2.285714286,,,,,,,,,,,,,,,,,,,,,,,,,,,,,,,,,1,left,,,,right,0,6.462,0,42,42,42,1,2898618390-216538.jpg,2238550049-105691.jpg,,
,,,A2FQVRBXJZQAWT,31,Female,8,2022-11-24_07h31.51.430,memory_pilot_most_recent,2022.2.4,Win32,2.285714286,,,,,,,,,,,,,,,,,,,,,,,,,,,,,,,,,1,left,,,,left,1,5.281,0,43,43,43,1,2964223381-294447.jpg,2427874231-269884.jpg,,
,,,A2FQVRBXJZQAWT,31,Female,8,2022-11-24_07h31.51.430,memory_pilot_most_recent,2022.2.4,Win32,2.285714286,,,,,,,,,,,,,,,,,,,,,,,,,,,,,,,,,2,right,,,,right,1,1.996,0,44,44,44,1,2864904415-212294.jpg,2446759347-347016.jpg,,
,,,A2FQVRBXJZQAWT,31,Female,8,2022-11-24_07h31.51.430,memory_pilot_most_recent,2022.2.4,Win32,2.285714286,,,,,,,,,,,,,,,,,,,,,,,,,,,,,,,,,2,right,,,,left,0,4.933,0,45,45,45,1,2898633480-217189.jpg,2460547508-51571.jpg,,
,,,A2FQVRBXJZQAWT,31,Female,8,2022-11-24_07h31.51.430,memory_pilot_most_recent,2022.2.4,Win32,2.285714286,,,,,,,,,,,,,,,,,,,,,,,,,,,,,,,,,2,right,,,,right,1,5.121,0,46,46,46,1,2446761173-49643.jpg,2238480677-317399.jpg,,
,,,A2FQVRBXJZQAWT,31,Female,8,2022-11-24_07h31.51.430,memory_pilot_most_recent,2022.2.4,Win32,2.285714286,,,,,,,,,,,,,,,,,,,,,,,,,,,,,,,,,3,left,,,,right,0,3.61,0,47,47,47,1,2238481928-19949.jpg,2864910427-362200.jpg,,
,,,A2FQVRBXJZQAWT,31,Female,8,2022-11-24_07h31.51.430,memory_pilot_most_recent,2022.2.4,Win32,2.285714286,,,,,,,,,,,,,,,,,,,,,,,,,,,,,,,,,3,right,,,,left,0,6.714,0,48,48,48,1,2446759306-271735.jpg,2898634397-367080.jpg,,
,,,A2FQVRBXJZQAWT,31,Female,8,2022-11-24_07h31.51.430,memory_pilot_most_recent,2022.2.4,Win32,2.285714286,,,,,,,,,,,,,,,,,,,,,,,,,,,,,,,,,3,right,,,,right,1,4.633,0,49,49,49,1,2238436632-314070.jpg,2458347385-199723.jpg,,
,,,A2FQVRBXJZQAWT,31,Female,8,2022-11-24_07h31.51.430,memory_pilot_most_recent,2022.2.4,Win32,2.285714286,,,,,,,,,,,,,,,,,,,,,,,,,,,,,,,,,2,right,,,,right,1,3.262,0,50,50,50,1,2901948476-293423.jpg,2449442529-124445.jpg,,
,,,A2FQVRBXJZQAWT,31,Female,8,2022-11-24_07h31.51.430,memory_pilot_most_recent,2022.2.4,Win32,2.285714286,,,,,,,,,,,,,,,,,,,,,,,,,,,,,,,,,2,left,,,,right,0,14.991,0,51,51,51,1,2883268471-290842.jpg,2898623398-68538.jpg,,
,,,A2FQVRBXJZQAWT,31,Female,8,2022-11-24_07h31.51.430,memory_pilot_most_recent,2022.2.4,Win32,2.285714286,,,,,,,,,,,,,,,,,,,,,,,,,,,,,,,,,2,left,,,,right,0,4.271,0,52,52,52,1,2981241414-145842.jpg,2868469411-287540.jpg,,
,,,A2FQVRBXJZQAWT,31,Female,8,2022-11-24_07h31.51.430,memory_pilot_most_recent,2022.2.4,Win32,2.285714286,,,,,,,,,,,,,,,,,,,,,,,,,,,,,,,,,2,left,,,,right,0,8.662,0,53,53,53,1,2238425482-313537.jpg,2981244403-72215.jpg,,
,,,A2FQVRBXJZQAWT,31,Female,8,2022-11-24_07h31.51.430,memory_pilot_most_recent,2022.2.4,Win32,2.285714286,,,,,,,,,,,,,,,,,,,,,,,,,,,,,,,,,1,left,,,,left,1,3.068,0,54,54,54,1,2238481198-19822.jpg,2864908448-64141.jpg,,
,,,A2FQVRBXJZQAWT,31,Female,8,2022-11-24_07h31.51.430,memory_pilot_most_recent,2022.2.4,Win32,2.285714286,,,,,,,,,,,,,,,,,,,,,,,,,,,,,,,,,3,right,,,,right,1,2.976,0,55,55,55,1,2512875899-126681.jpg,2512875899-126682.jpg,,
,,,A2FQVRBXJZQAWT,31,Female,8,2022-11-24_07h31.51.430,memory_pilot_most_recent,2022.2.4,Win32,2.285714286,,,,,,,,,,,,,,,,,,,,,,,,,,,,,,,,,3,right,,,,right,1,2.831,0,56,56,56,1,2883273443-68192.jpg,2901941401-292798.jpg,,
,,,A2FQVRBXJZQAWT,31,Female,8,2022-11-24_07h31.51.430,memory_pilot_most_recent,2022.2.4,Win32,2.285714286,,,,,,,,,,,,,,,,,,,,,,,,,,,,,,,,,1,right,,,,right,1,4.746,0,57,57,57,1,2981240424-145795.jpg,2446758985-197609.jpg,,
,,,A2FQVRBXJZQAWT,31,Female,8,2022-11-24_07h31.51.430,memory_pilot_most_recent,2022.2.4,Win32,2.285714286,,,,,,,,,,,,,,,,,,,,,,,,,,,,,,,,,1,left,,,,right,0,3.749,0,58,58,58,1,2238560245-182099.jpg,2549106624-127823.jpg,,
,,,A2FQVRBXJZQAWT,31,Female,8,2022-11-24_07h31.51.430,memory_pilot_most_recent,2022.2.4,Win32,2.285714286,,,,,,,,,,,,,,,,,,,,,,,,,,,,,,,,,1,left,,,,right,0,2.727,0,59,59,59,1,2449441881-272368.jpg,2984615361-295509.jpg,,
,,,A2FQVRBXJZQAWT,31,Female,8,2022-11-24_07h31.51.430,memory_pilot_most_recent,2022.2.4,Win32,2.285714286,,,,,,,,,,,,,,,,,,,,,,,,,,,,,,,,,,,,,,,,,,,,,,,,space,25.933
