button.numClicks,button.timesOn,button.timesOff,workID,Age,Gender,Hours slept (last night),date,expName,psychopyVersion,OS,frameRate,space_key_responce.keys,space_key_responce.rt,demo_encoding_response.keys,demo_encoding_response.corr,demo_encoding_loop.thisRepN,demo_encoding_loop.thisTrialN,demo_encoding_loop.thisN,demo_encoding_loop.thisIndex,demo_encoding_loop.ran,DemoImage,DemoCorrect,demo_encoding_response.rt,demo_test_response.keys,demo_test_response.corr,demo_test_response.rt,demo_test_loop.thisRepN,demo_test_loop.thisTrialN,demo_test_loop.thisN,demo_test_loop.thisIndex,demo_test_loop.ran,DemoImage1,DemoImage2,DemoCorrectTest,test_encoding_response.keys,test_encoding_response.corr,trials.thisRepN,trials.thisTrialN,trials.thisN,trials.thisIndex,trials.ran,target_image,pair,layer,correct,test_encoding_response.rt,key_resp_end.keys,key_resp_end.rt,test_test_response.keys,test_test_response.corr,test_test_response.rt,trials_2.thisRepN,trials_2.thisTrialN,trials_2.thisN,trials_2.thisIndex,trials_2.ran,image1,image2,key_resp_end_2.keys,key_resp_end_2.rt
1,[84.97000000000003],[84.97000000000003],A2R99OKTW7QVER,47,male,8,2022-11-24_07h28.00.243,memory_pilot_most_recent,2022.2.4,Win32,3.555555556,,,,,,,,,,,,,,,,,,,,,,,,,,,,,,,,,,,,,,,,,,,,,,,,,
,,,A2R99OKTW7QVER,47,male,8,2022-11-24_07h28.00.243,memory_pilot_most_recent,2022.2.4,Win32,3.555555556,,,,,,,,,,,,,,,,,,,,,,,,,,,,,,,,,,,,,,,,,,,,,,,,,
,,,A2R99OKTW7QVER,47,male,8,2022-11-24_07h28.00.243,memory_pilot_most_recent,2022.2.4,Win32,3.555555556,space,26.607,,,,,,,,,,,,,,,,,,,,,,,,,,,,,,,,,,,,,,,,,,,,,,,
,,,A2R99OKTW7QVER,47,male,8,2022-11-24_07h28.00.243,memory_pilot_most_recent,2022.2.4,Win32,3.555555556,,,,,,,,,,,,,,,,,,,,,,,,,,,,,,,,,,,,,,,,,,,,,,,,,
,,,A2R99OKTW7QVER,47,male,8,2022-11-24_07h28.00.243,memory_pilot_most_recent,2022.2.4,Win32,3.555555556,,,,1,0,0,0,0,1,flower1.jpg,,,,,,,,,,,,,,,,,,,,,,,,,,,,,,,,,,,,,,,
,,,A2R99OKTW7QVER,47,male,8,2022-11-24_07h28.00.243,memory_pilot_most_recent,2022.2.4,Win32,3.555555556,,,,1,0,1,1,1,1,flower2.jpg,,,,,,,,,,,,,,,,,,,,,,,,,,,,,,,,,,,,,,,
,,,A2R99OKTW7QVER,47,male,8,2022-11-24_07h28.00.243,memory_pilot_most_recent,2022.2.4,Win32,3.555555556,,,left,1,0,2,2,2,1,left.jpg,left,1.418,,,,,,,,,,,,,,,,,,,,,,,,,,,,,,,,,,,,,
,,,A2R99OKTW7QVER,47,male,8,2022-11-24_07h28.00.243,memory_pilot_most_recent,2022.2.4,Win32,3.555555556,,,,1,0,3,3,3,1,flower3.jpg,,,,,,,,,,,,,,,,,,,,,,,,,,,,,,,,,,,,,,,
,,,A2R99OKTW7QVER,47,male,8,2022-11-24_07h28.00.243,memory_pilot_most_recent,2022.2.4,Win32,3.555555556,,,,1,0,4,4,4,1,flower4.jpg,,,,,,,,,,,,,,,,,,,,,,,,,,,,,,,,,,,,,,,
,,,A2R99OKTW7QVER,47,male,8,2022-11-24_07h28.00.243,memory_pilot_most_recent,2022.2.4,Win32,3.555555556,,,,1,0,5,5,5,1,flower5.jpg,,,,,,,,,,,,,,,,,,,,,,,,,,,,,,,,,,,,,,,
,,,A2R99OKTW7QVER,47,male,8,2022-11-24_07h28.00.243,memory_pilot_most_recent,2022.2.4,Win32,3.555555556,,,,1,0,6,6,6,1,flower6.jpg,,,,,,,,,,,,,,,,,,,,,,,,,,,,,,,,,,,,,,,
,,,A2R99OKTW7QVER,47,male,8,2022-11-24_07h28.00.243,memory_pilot_most_recent,2022.2.4,Win32,3.555555556,,,,,,,,,,,,,,,,,,,,,,,,,,,,,,,,,,,,,,,,,,,,,,,,,
,,,A2R99OKTW7QVER,47,male,8,2022-11-24_07h28.00.243,memory_pilot_most_recent,2022.2.4,Win32,3.555555556,,,,,,,,,,,,,right,0,3.926,0,0,0,0,1,flower1.jpg,flower1_pair.jpg,left,,,,,,,,,,,,,,,,,,,,,,,,,,
,,,A2R99OKTW7QVER,47,male,8,2022-11-24_07h28.00.243,memory_pilot_most_recent,2022.2.4,Win32,3.555555556,,,,,,,,,,,,,right,1,2.92,0,1,1,1,1,flower2_pair.jpg,flower2.jpg,right,,,,,,,,,,,,,,,,,,,,,,,,,,
,,,A2R99OKTW7QVER,47,male,8,2022-11-24_07h28.00.243,memory_pilot_most_recent,2022.2.4,Win32,3.555555556,,,,,,,,,,,,,left,1,2.49,0,2,2,2,1,flower3.jpg,flower3_pair.jpg,left,,,,,,,,,,,,,,,,,,,,,,,,,,
,,,A2R99OKTW7QVER,47,male,8,2022-11-24_07h28.00.243,memory_pilot_most_recent,2022.2.4,Win32,3.555555556,,,,,,,,,,,,,left,1,2.652,0,3,3,3,1,flower4.jpg,flower4_pair.jpg,left,,,,,,,,,,,,,,,,,,,,,,,,,,
,,,A2R99OKTW7QVER,47,male,8,2022-11-24_07h28.00.243,memory_pilot_most_recent,2022.2.4,Win32,3.555555556,,,,,,,,,,,,,right,1,2.104,0,4,4,4,1,flower5_pair.jpg,flower5.jpg,right,,,,,,,,,,,,,,,,,,,,,,,,,,
,,,A2R99OKTW7QVER,47,male,8,2022-11-24_07h28.00.243,memory_pilot_most_recent,2022.2.4,Win32,3.555555556,,,,,,,,,,,,,left,1,1.706,0,5,5,5,1,flower6.jpg,flower6_pair.jpg,left,,,,,,,,,,,,,,,,,,,,,,,,,,
,,,A2R99OKTW7QVER,47,male,8,2022-11-24_07h28.00.243,memory_pilot_most_recent,2022.2.4,Win32,3.555555556,,,,,,,,,,,,,,,,,,,,,,,,,,,,,,,,,,,,,,,,,,,,,,,,,
,,,A2R99OKTW7QVER,47,male,8,2022-11-24_07h28.00.243,memory_pilot_most_recent,2022.2.4,Win32,3.555555556,space,12.465,,,,,,,,,,,,,,,,,,,,,,,,,,,,,,,,,,,,,,,,,,,,,,,
,,,A2R99OKTW7QVER,47,male,8,2022-11-24_07h28.00.243,memory_pilot_most_recent,2022.2.4,Win32,3.555555556,,,,,,,,,,,,,,,,,,,,,,,,,1,0,0,0,0,1,2901939379-143479.jpg,2446759306-271734.jpg,3,,,,,,,,,,,,,,,,
,,,A2R99OKTW7QVER,47,male,8,2022-11-24_07h28.00.243,memory_pilot_most_recent,2022.2.4,Win32,3.555555556,,,,,,,,,,,,,,,,,,,,,,,,,1,0,1,1,1,1,2874302418-65979.jpg,2901939433-69673.jpg,2,,,,,,,,,,,,,,,,
,,,A2R99OKTW7QVER,47,male,8,2022-11-24_07h28.00.243,memory_pilot_most_recent,2022.2.4,Win32,3.555555556,,,,,,,,,,,,,,,,,,,,,,,,,1,0,2,2,2,1,2981231403-71642.jpg,2864900358-63717.jpg,2,,,,,,,,,,,,,,,,
,,,A2R99OKTW7QVER,47,male,8,2022-11-24_07h28.00.243,memory_pilot_most_recent,2022.2.4,Win32,3.555555556,,,,,,,,,,,,,,,,,,,,,,,,,1,0,3,3,3,1,2883254439-140941.jpg,2964219379-144996.jpg,3,,,,,,,,,,,,,,,,
,,,A2R99OKTW7QVER,47,male,8,2022-11-24_07h28.00.243,memory_pilot_most_recent,2022.2.4,Win32,3.555555556,,,,,,,,,,,,,,,,,,,,,,,,,1,0,4,4,4,1,2452381505-199546.jpg,2898622392-366513.jpg,3,,,,,,,,,,,,,,,,
,,,A2R99OKTW7QVER,47,male,8,2022-11-24_07h28.00.243,memory_pilot_most_recent,2022.2.4,Win32,3.555555556,,,,,,,,,,,,,,,,,,,,,,,,,1,0,5,5,5,1,2238480677-317399.jpg,2238481630-168218.jpg,1,,,,,,,,,,,,,,,,
,,,A2R99OKTW7QVER,47,male,8,2022-11-24_07h28.00.243,memory_pilot_most_recent,2022.2.4,Win32,3.555555556,,,,,,,,,,,,,,,,,,,,,,,,,1,0,6,6,6,1,2238428357-313623.jpg,2238499057-320266.jpg,1,,,,,,,,,,,,,,,,
,,,A2R99OKTW7QVER,47,male,8,2022-11-24_07h28.00.243,memory_pilot_most_recent,2022.2.4,Win32,3.555555556,,,,,,,,,,,,,,,,,,,,,,,,,1,0,7,7,7,1,2460547467-349421.jpg,2898618440-216547.jpg,1,,,,,,,,,,,,,,,,
,,,A2R99OKTW7QVER,47,male,8,2022-11-24_07h28.00.243,memory_pilot_most_recent,2022.2.4,Win32,3.555555556,,,,,,,,,,,,,,,,,,,,,,,,,1,0,8,8,8,1,2898635428-69104.jpg,2446759803-49250.jpg,1,,,,,,,,,,,,,,,,
,,,A2R99OKTW7QVER,47,male,8,2022-11-24_07h28.00.243,memory_pilot_most_recent,2022.2.4,Win32,3.555555556,,,,,,,,,,,,,,,,,,,,,,,,,1,0,9,9,9,1,2898635427-367120.jpg,2964221435-219434.jpg,1,,,,,,,,,,,,,,,,
,,,A2R99OKTW7QVER,47,male,8,2022-11-24_07h28.00.243,memory_pilot_most_recent,2022.2.4,Win32,3.555555556,,,,,,,,,,,,,,,,,,,,,,,,,1,0,10,10,10,1,2512875899-126682.jpg,2898618440-216545.jpg,1,,,,,,,,,,,,,,,,
,,,A2R99OKTW7QVER,47,male,8,2022-11-24_07h28.00.243,memory_pilot_most_recent,2022.2.4,Win32,3.555555556,,,,,,,,,,,,,,,,,,,,,,,,,1,0,11,11,11,1,2575120738-55529.jpg,2460547859-126142.jpg,3,,,,,,,,,,,,,,,,
,,,A2R99OKTW7QVER,47,male,8,2022-11-24_07h28.00.243,memory_pilot_most_recent,2022.2.4,Win32,3.555555556,,,,,,,,,,,,,,,,,,,,,,,,,1,0,12,12,12,1,2883268412-365898.jpg,2984615358-72439.jpg,2,,,,,,,,,,,,,,,,
,,,A2R99OKTW7QVER,47,male,8,2022-11-24_07h28.00.243,memory_pilot_most_recent,2022.2.4,Win32,3.555555556,,,,,,,,,,,,,,,,,,,,,,,,,0,0,13,13,13,1,left.jpg,,,left,,,,,,,,,,,,,,,
,,,A2R99OKTW7QVER,47,male,8,2022-11-24_07h28.00.243,memory_pilot_most_recent,2022.2.4,Win32,3.555555556,,,,,,,,,,,,,,,,,,,,,,,,,1,0,14,14,14,1,2868474407-362883.jpg,2874305405-214397.jpg,2,,,,,,,,,,,,,,,,
,,,A2R99OKTW7QVER,47,male,8,2022-11-24_07h28.00.243,memory_pilot_most_recent,2022.2.4,Win32,3.555555556,,,,,,,,,,,,,,,,,,,,,,,,,1,0,15,15,15,1,2864907432-362042.jpg,2883264367-365621.jpg,2,,,,,,,,,,,,,,,,
,,,A2R99OKTW7QVER,47,male,8,2022-11-24_07h28.00.243,memory_pilot_most_recent,2022.2.4,Win32,3.555555556,,,,,,,,,,,,,,,,,,,,,,,,,1,0,16,16,16,1,2964218374-144967.jpg,2446758985-197610.jpg,2,,,,,,,,,,,,,,,,
,,,A2R99OKTW7QVER,47,male,8,2022-11-24_07h28.00.243,memory_pilot_most_recent,2022.2.4,Win32,3.555555556,,,,,,,,,,,,,,,,,,,,,,,,,1,0,17,17,17,1,2458347385-199723.jpg,2238436632-314070.jpg,3,,,,,,,,,,,,,,,,
,,,A2R99OKTW7QVER,47,male,8,2022-11-24_07h28.00.243,memory_pilot_most_recent,2022.2.4,Win32,3.555555556,,,,,,,,,,,,,,,,,,,,,,,,right,1,0,18,18,18,1,right.jpg,,,right,1.374,,,,,,,,,,,,,,
,,,A2R99OKTW7QVER,47,male,8,2022-11-24_07h28.00.243,memory_pilot_most_recent,2022.2.4,Win32,3.555555556,,,,,,,,,,,,,,,,,,,,,,,,,1,0,19,19,19,1,2874302418-65978.jpg,2238577555-185462.jpg,2,,,,,,,,,,,,,,,,
,,,A2R99OKTW7QVER,47,male,8,2022-11-24_07h28.00.243,memory_pilot_most_recent,2022.2.4,Win32,3.555555556,,,,,,,,,,,,,,,,,,,,,,,,,1,0,20,20,20,1,2901952513-70703.jpg,2864907361-287062.jpg,1,,,,,,,,,,,,,,,,
,,,A2R99OKTW7QVER,47,male,8,2022-11-24_07h28.00.243,memory_pilot_most_recent,2022.2.4,Win32,3.555555556,,,,,,,,,,,,,,,,,,,,,,,,,1,0,21,21,21,1,2238572663-35822.jpg,2984615361-295510.jpg,2,,,,,,,,,,,,,,,,
,,,A2R99OKTW7QVER,47,male,8,2022-11-24_07h28.00.243,memory_pilot_most_recent,2022.2.4,Win32,3.555555556,,,,,,,,,,,,,,,,,,,,,,,,,1,0,22,22,22,1,2964216465-219242.jpg,2238482539-94244.jpg,2,,,,,,,,,,,,,,,,
,,,A2R99OKTW7QVER,47,male,8,2022-11-24_07h28.00.243,memory_pilot_most_recent,2022.2.4,Win32,3.555555556,,,,,,,,,,,,,,,,,,,,,,,,,1,0,23,23,23,1,2446759803-49249.jpg,2446760844-124088.jpg,3,,,,,,,,,,,,,,,,
,,,A2R99OKTW7QVER,47,male,8,2022-11-24_07h28.00.243,memory_pilot_most_recent,2022.2.4,Win32,3.555555556,,,,,,,,,,,,,,,,,,,,,,,,,1,0,24,24,24,1,2238481198-19822.jpg,2862689306-285912.jpg,2,,,,,,,,,,,,,,,,
,,,A2R99OKTW7QVER,47,male,8,2022-11-24_07h28.00.243,memory_pilot_most_recent,2022.2.4,Win32,3.555555556,,,,,,,,,,,,,,,,,,,,,,,,,1,0,25,25,25,1,2592380177-354629.jpg,2901945495-218294.jpg,2,,,,,,,,,,,,,,,,
,,,A2R99OKTW7QVER,47,male,8,2022-11-24_07h28.00.243,memory_pilot_most_recent,2022.2.4,Win32,3.555555556,,,,,,,,,,,,,,,,,,,,,,,,,1,0,26,26,26,1,2449442529-124445.jpg,2901948476-293423.jpg,2,,,,,,,,,,,,,,,,
,,,A2R99OKTW7QVER,47,male,8,2022-11-24_07h28.00.243,memory_pilot_most_recent,2022.2.4,Win32,3.555555556,,,,,,,,,,,,,,,,,,,,,,,,,1,0,27,27,27,1,2874303365-214262.jpg,2424124794-120289.jpg,3,,,,,,,,,,,,,,,,
,,,A2R99OKTW7QVER,47,male,8,2022-11-24_07h28.00.243,memory_pilot_most_recent,2022.2.4,Win32,3.555555556,,,,,,,,,,,,,,,,,,,,,,,,,1,0,28,28,28,1,2460547467-349422.jpg,2898635428-69106.jpg,3,,,,,,,,,,,,,,,,
,,,A2R99OKTW7QVER,47,male,8,2022-11-24_07h28.00.243,memory_pilot_most_recent,2022.2.4,Win32,3.555555556,,,,,,,,,,,,,,,,,,,,,,,,,1,0,29,29,29,1,2238425482-313537.jpg,2238471391-240918.jpg,1,,,,,,,,,,,,,,,,
,,,A2R99OKTW7QVER,47,male,8,2022-11-24_07h28.00.243,memory_pilot_most_recent,2022.2.4,Win32,3.555555556,,,,,,,,,,,,,,,,,,,,,,,,,1,0,30,30,30,1,2874307433-66280.jpg,2864900357-361688.jpg,2,,,,,,,,,,,,,,,,
,,,A2R99OKTW7QVER,47,male,8,2022-11-24_07h28.00.243,memory_pilot_most_recent,2022.2.4,Win32,3.555555556,,,,,,,,,,,,,,,,,,,,,,,,,0,0,31,31,31,1,right.jpg,,,right,,,,,,,,,,,,,,,
,,,A2R99OKTW7QVER,47,male,8,2022-11-24_07h28.00.243,memory_pilot_most_recent,2022.2.4,Win32,3.555555556,,,,,,,,,,,,,,,,,,,,,,,,,1,0,32,32,32,1,2898633421-291973.jpg,2989730319-147821.jpg,3,,,,,,,,,,,,,,,,
,,,A2R99OKTW7QVER,47,male,8,2022-11-24_07h28.00.243,memory_pilot_most_recent,2022.2.4,Win32,3.555555556,,,,,,,,,,,,,,,,,,,,,,,,,1,0,33,33,33,1,2446758985-197609.jpg,2238087237-303447.jpg,3,,,,,,,,,,,,,,,,
,,,A2R99OKTW7QVER,47,male,8,2022-11-24_07h28.00.243,memory_pilot_most_recent,2022.2.4,Win32,3.555555556,,,,,,,,,,,,,,,,,,,,,,,,,1,0,34,34,34,1,2883268471-290842.jpg,2898623398-68538.jpg,2,,,,,,,,,,,,,,,,
,,,A2R99OKTW7QVER,47,male,8,2022-11-24_07h28.00.243,memory_pilot_most_recent,2022.2.4,Win32,3.555555556,,,,,,,,,,,,,,,,,,,,,,,,,1,0,35,35,35,1,2898618390-216538.jpg,2238574968-36441.jpg,3,,,,,,,,,,,,,,,,
,,,A2R99OKTW7QVER,47,male,8,2022-11-24_07h28.00.243,memory_pilot_most_recent,2022.2.4,Win32,3.555555556,,,,,,,,,,,,,,,,,,,,,,,,left,1,0,36,36,36,1,left.jpg,,,left,0.995,,,,,,,,,,,,,,
,,,A2R99OKTW7QVER,47,male,8,2022-11-24_07h28.00.243,memory_pilot_most_recent,2022.2.4,Win32,3.555555556,,,,,,,,,,,,,,,,,,,,,,,,,1,0,37,37,37,1,2238580740-186218.jpg,2575121108-55628.jpg,2,,,,,,,,,,,,,,,,
,,,A2R99OKTW7QVER,47,male,8,2022-11-24_07h28.00.243,memory_pilot_most_recent,2022.2.4,Win32,3.555555556,,,,,,,,,,,,,,,,,,,,,,,,,1,0,38,38,38,1,2460547508-51571.jpg,2446760917-347439.jpg,1,,,,,,,,,,,,,,,,
,,,A2R99OKTW7QVER,47,male,8,2022-11-24_07h28.00.243,memory_pilot_most_recent,2022.2.4,Win32,3.555555556,,,,,,,,,,,,,,,,,,,,,,,,,1,0,39,39,39,1,2874301407-363895.jpg,2883264368-67631.jpg,1,,,,,,,,,,,,,,,,
,,,A2R99OKTW7QVER,47,male,8,2022-11-24_07h28.00.243,memory_pilot_most_recent,2022.2.4,Win32,3.555555556,,,,,,,,,,,,,,,,,,,,,,,,,1,0,40,40,40,1,2452380832-348593.jpg,2237856283-1014.jpg,3,,,,,,,,,,,,,,,,
,,,A2R99OKTW7QVER,47,male,8,2022-11-24_07h28.00.243,memory_pilot_most_recent,2022.2.4,Win32,3.555555556,,,,,,,,,,,,,,,,,,,,,,,,,1,0,41,41,41,1,2449442529-124446.jpg,2452380171-273112.jpg,1,,,,,,,,,,,,,,,,
,,,A2R99OKTW7QVER,47,male,8,2022-11-24_07h28.00.243,memory_pilot_most_recent,2022.2.4,Win32,3.555555556,,,,,,,,,,,,,,,,,,,,,,,,,1,0,42,42,42,1,2238560245-182099.jpg,2238467949-92250.jpg,2,,,,,,,,,,,,,,,,
,,,A2R99OKTW7QVER,47,male,8,2022-11-24_07h28.00.243,memory_pilot_most_recent,2022.2.4,Win32,3.555555556,,,,,,,,,,,,,,,,,,,,,,,,,1,0,43,43,43,1,2864910426-287204.jpg,2864902304-137862.jpg,1,,,,,,,,,,,,,,,,
,,,A2R99OKTW7QVER,47,male,8,2022-11-24_07h28.00.243,memory_pilot_most_recent,2022.2.4,Win32,3.555555556,,,,,,,,,,,,,,,,,,,,,,,,,1,0,44,44,44,1,2898617468-68274.jpg,2981243399-145923.jpg,3,,,,,,,,,,,,,,,,
,,,A2R99OKTW7QVER,47,male,8,2022-11-24_07h28.00.243,memory_pilot_most_recent,2022.2.4,Win32,3.555555556,,,,,,,,,,,,,,,,,,,,,,,,,1,0,45,45,45,1,2446759347-347016.jpg,2446760362-347305.jpg,3,,,,,,,,,,,,,,,,
,,,A2R99OKTW7QVER,47,male,8,2022-11-24_07h28.00.243,memory_pilot_most_recent,2022.2.4,Win32,3.555555556,,,,,,,,,,,,,,,,,,,,,,,,,1,0,46,46,46,1,2898618444-142233.jpg,2898631359-142721.jpg,1,,,,,,,,,,,,,,,,
,,,A2R99OKTW7QVER,47,male,8,2022-11-24_07h28.00.243,memory_pilot_most_recent,2022.2.4,Win32,3.555555556,,,,,,,,,,,,,,,,,,,,,,,,,1,0,47,47,47,1,2964223381-294447.jpg,2427874231-269884.jpg,1,,,,,,,,,,,,,,,,
,,,A2R99OKTW7QVER,47,male,8,2022-11-24_07h28.00.243,memory_pilot_most_recent,2022.2.4,Win32,3.555555556,,,,,,,,,,,,,,,,,,,,,,,,,0,0,48,48,48,1,left.jpg,,,left,,,,,,,,,,,,,,,
,,,A2R99OKTW7QVER,47,male,8,2022-11-24_07h28.00.243,memory_pilot_most_recent,2022.2.4,Win32,3.555555556,,,,,,,,,,,,,,,,,,,,,,,,,1,0,49,49,49,1,2981241414-145842.jpg,2868469411-287540.jpg,2,,,,,,,,,,,,,,,,
,,,A2R99OKTW7QVER,47,male,8,2022-11-24_07h28.00.243,memory_pilot_most_recent,2022.2.4,Win32,3.555555556,,,,,,,,,,,,,,,,,,,,,,,,,1,0,50,50,50,1,2901948350-218459.jpg,2238482369-94216.jpg,3,,,,,,,,,,,,,,,,
,,,A2R99OKTW7QVER,47,male,8,2022-11-24_07h28.00.243,memory_pilot_most_recent,2022.2.4,Win32,3.555555556,,,,,,,,,,,,,,,,,,,,,,,,,1,0,51,51,51,1,2592380177-354626.jpg,2579432708-56392.jpg,3,,,,,,,,,,,,,,,,
,,,A2R99OKTW7QVER,47,male,8,2022-11-24_07h28.00.243,memory_pilot_most_recent,2022.2.4,Win32,3.555555556,,,,,,,,,,,,,,,,,,,,,,,,,1,0,52,52,52,1,2901947423-70311.jpg,2860312398-62572.jpg,1,,,,,,,,,,,,,,,,
,,,A2R99OKTW7QVER,47,male,8,2022-11-24_07h28.00.243,memory_pilot_most_recent,2022.2.4,Win32,3.555555556,,,,,,,,,,,,,,,,,,,,,,,,,1,0,53,53,53,1,2901941401-292798.jpg,2964223380-219495.jpg,2,,,,,,,,,,,,,,,,
,,,A2R99OKTW7QVER,47,male,8,2022-11-24_07h28.00.243,memory_pilot_most_recent,2022.2.4,Win32,3.555555556,,,,,,,,,,,,,,,,,,,,,,,,,1,0,54,54,54,1,2449441881-272368.jpg,2898617374-142166.jpg,2,,,,,,,,,,,,,,,,
,,,A2R99OKTW7QVER,47,male,8,2022-11-24_07h28.00.243,memory_pilot_most_recent,2022.2.4,Win32,3.555555556,,,,,,,,,,,,,,,,,,,,,,,,,1,0,55,55,55,1,2898634397-367080.jpg,2446759306-271735.jpg,3,,,,,,,,,,,,,,,,
,,,A2R99OKTW7QVER,47,male,8,2022-11-24_07h28.00.243,memory_pilot_most_recent,2022.2.4,Win32,3.555555556,,,,,,,,,,,,,,,,,,,,,,,,,1,0,56,56,56,1,2874299429-139695.jpg,2238571930-184143.jpg,2,,,,,,,,,,,,,,,,
,,,A2R99OKTW7QVER,47,male,8,2022-11-24_07h28.00.243,memory_pilot_most_recent,2022.2.4,Win32,3.555555556,,,,,,,,,,,,,,,,,,,,,,,,,1,0,57,57,57,1,2901939379-143480.jpg,2981229442-369621.jpg,1,,,,,,,,,,,,,,,,
,,,A2R99OKTW7QVER,47,male,8,2022-11-24_07h28.00.243,memory_pilot_most_recent,2022.2.4,Win32,3.555555556,,,,,,,,,,,,,,,,,,,,,,,,,1,0,58,58,58,1,2883256307-365057.jpg,2901947448-70315.jpg,3,,,,,,,,,,,,,,,,
,,,A2R99OKTW7QVER,47,male,8,2022-11-24_07h28.00.243,memory_pilot_most_recent,2022.2.4,Win32,3.555555556,,,,,,,,,,,,,,,,,,,,,,,,,1,0,59,59,59,1,2964213381-294060.jpg,2883254439-140940.jpg,3,,,,,,,,,,,,,,,,
,,,A2R99OKTW7QVER,47,male,8,2022-11-24_07h28.00.243,memory_pilot_most_recent,2022.2.4,Win32,3.555555556,,,,,,,,,,,,,,,,,,,,,,,,,1,0,60,60,60,1,2898624426-291546.jpg,2964207374-144577.jpg,1,,,,,,,,,,,,,,,,
,,,A2R99OKTW7QVER,47,male,8,2022-11-24_07h28.00.243,memory_pilot_most_recent,2022.2.4,Win32,3.555555556,,,,,,,,,,,,,,,,,,,,,,,,,1,0,61,61,61,1,2592379964-131054.jpg,2575963989-130576.jpg,1,,,,,,,,,,,,,,,,
,,,A2R99OKTW7QVER,47,male,8,2022-11-24_07h28.00.243,memory_pilot_most_recent,2022.2.4,Win32,3.555555556,,,,,,,,,,,,,,,,,,,,,,,,,1,0,62,62,62,1,2238481928-19949.jpg,2864910427-362200.jpg,3,,,,,,,,,,,,,,,,
,,,A2R99OKTW7QVER,47,male,8,2022-11-24_07h28.00.243,memory_pilot_most_recent,2022.2.4,Win32,3.555555556,,,,,,,,,,,,,,,,,,,,,,,,,1,0,63,63,63,1,2868475410-213219.jpg,2901946465-218350.jpg,1,,,,,,,,,,,,,,,,
,,,A2R99OKTW7QVER,47,male,8,2022-11-24_07h28.00.243,memory_pilot_most_recent,2022.2.4,Win32,3.555555556,,,,,,,,,,,,,,,,,,,,,,,,,1,0,64,64,64,1,2986451363-73599.jpg,2901939327-367669.jpg,1,,,,,,,,,,,,,,,,
,,,A2R99OKTW7QVER,47,male,8,2022-11-24_07h28.00.243,memory_pilot_most_recent,2022.2.4,Win32,3.555555556,,,,,,,,,,,,,,,,,,,,,,,,,,,,,,,,,,,,space,17.339,,,,,,,,,,,,
,,,A2R99OKTW7QVER,47,male,8,2022-11-24_07h28.00.243,memory_pilot_most_recent,2022.2.4,Win32,3.555555556,,,,,,,,,,,,,,,,,,,,,,,,,,,,,,,,,,,,,,,,,,,,,,,,,
,,,A2R99OKTW7QVER,47,male,8,2022-11-24_07h28.00.243,memory_pilot_most_recent,2022.2.4,Win32,3.555555556,,,,,,,,,,,,,,,,,,,,,,,,,,,,,,,,,3,right,,,,right,1,7.905,0,0,0,0,1,2424124794-120289.jpg,2874303365-214262.jpg,,
,,,A2R99OKTW7QVER,47,male,8,2022-11-24_07h28.00.243,memory_pilot_most_recent,2022.2.4,Win32,3.555555556,,,,,,,,,,,,,,,,,,,,,,,,,,,,,,,,,1,left,,,,left,1,4.831,0,1,1,1,1,2986451363-73599.jpg,2901939327-367669.jpg,,
,,,A2R99OKTW7QVER,47,male,8,2022-11-24_07h28.00.243,memory_pilot_most_recent,2022.2.4,Win32,3.555555556,,,,,,,,,,,,,,,,,,,,,,,,,,,,,,,,,2,right,,,,left,0,5.256,0,2,2,2,1,2898617374-142166.jpg,2449441881-272368.jpg,,
,,,A2R99OKTW7QVER,47,male,8,2022-11-24_07h28.00.243,memory_pilot_most_recent,2022.2.4,Win32,3.555555556,,,,,,,,,,,,,,,,,,,,,,,,,,,,,,,,,2,left,,,,right,0,5.589,0,3,3,3,1,2964218374-144967.jpg,2446758985-197610.jpg,,
,,,A2R99OKTW7QVER,47,male,8,2022-11-24_07h28.00.243,memory_pilot_most_recent,2022.2.4,Win32,3.555555556,,,,,,,,,,,,,,,,,,,,,,,,,,,,,,,,,2,left,,,,right,0,3.956,0,4,4,4,1,2864907432-362042.jpg,2883264367-365621.jpg,,
,,,A2R99OKTW7QVER,47,male,8,2022-11-24_07h28.00.243,memory_pilot_most_recent,2022.2.4,Win32,3.555555556,,,,,,,,,,,,,,,,,,,,,,,,,,,,,,,,,3,left,,,,right,0,10.707,0,5,5,5,1,2901948350-218459.jpg,2238482369-94216.jpg,,
,,,A2R99OKTW7QVER,47,male,8,2022-11-24_07h28.00.243,memory_pilot_most_recent,2022.2.4,Win32,3.555555556,,,,,,,,,,,,,,,,,,,,,,,,,,,,,,,,,1,right,,,,right,1,5.401,0,6,6,6,1,2898618440-216545.jpg,2512875899-126682.jpg,,
,,,A2R99OKTW7QVER,47,male,8,2022-11-24_07h28.00.243,memory_pilot_most_recent,2022.2.4,Win32,3.555555556,,,,,,,,,,,,,,,,,,,,,,,,,,,,,,,,,3,left,,,,left,1,7.854,0,7,7,7,1,2575120738-55529.jpg,2460547859-126142.jpg,,
,,,A2R99OKTW7QVER,47,male,8,2022-11-24_07h28.00.243,memory_pilot_most_recent,2022.2.4,Win32,3.555555556,,,,,,,,,,,,,,,,,,,,,,,,,,,,,,,,,2,right,,,,left,0,5.725,0,8,8,8,1,2964223380-219495.jpg,2901941401-292798.jpg,,
,,,A2R99OKTW7QVER,47,male,8,2022-11-24_07h28.00.243,memory_pilot_most_recent,2022.2.4,Win32,3.555555556,,,,,,,,,,,,,,,,,,,,,,,,,,,,,,,,,3,right,,,,right,1,5.376,0,9,9,9,1,2446759306-271734.jpg,2901939379-143479.jpg,,
,,,A2R99OKTW7QVER,47,male,8,2022-11-24_07h28.00.243,memory_pilot_most_recent,2022.2.4,Win32,3.555555556,,,,,,,,,,,,,,,,,,,,,,,,,,,,,,,,,2,left,,,,left,1,5.871,0,10,10,10,1,2238572663-35822.jpg,2984615361-295510.jpg,,
,,,A2R99OKTW7QVER,47,male,8,2022-11-24_07h28.00.243,memory_pilot_most_recent,2022.2.4,Win32,3.555555556,,,,,,,,,,,,,,,,,,,,,,,,,,,,,,,,,2,right,,,,left,0,2.562,0,11,11,11,1,2868469411-287540.jpg,2981241414-145842.jpg,,
,,,A2R99OKTW7QVER,47,male,8,2022-11-24_07h28.00.243,memory_pilot_most_recent,2022.2.4,Win32,3.555555556,,,,,,,,,,,,,,,,,,,,,,,,,,,,,,,,,3,left,,,,left,1,2.955,0,12,12,12,1,2446759347-347016.jpg,2446760362-347305.jpg,,
,,,A2R99OKTW7QVER,47,male,8,2022-11-24_07h28.00.243,memory_pilot_most_recent,2022.2.4,Win32,3.555555556,,,,,,,,,,,,,,,,,,,,,,,,,,,,,,,,,1,right,,,,right,1,7.545,0,13,13,13,1,2238481630-168218.jpg,2238480677-317399.jpg,,
,,,A2R99OKTW7QVER,47,male,8,2022-11-24_07h28.00.243,memory_pilot_most_recent,2022.2.4,Win32,3.555555556,,,,,,,,,,,,,,,,,,,,,,,,,,,,,,,,,1,left,,,,left,1,6.778,0,14,14,14,1,2868475410-213219.jpg,2901946465-218350.jpg,,
,,,A2R99OKTW7QVER,47,male,8,2022-11-24_07h28.00.243,memory_pilot_most_recent,2022.2.4,Win32,3.555555556,,,,,,,,,,,,,,,,,,,,,,,,,,,,,,,,,3,right,,,,left,0,10.178,0,15,15,15,1,2981243399-145923.jpg,2898617468-68274.jpg,,
,,,A2R99OKTW7QVER,47,male,8,2022-11-24_07h28.00.243,memory_pilot_most_recent,2022.2.4,Win32,3.555555556,,,,,,,,,,,,,,,,,,,,,,,,,,,,,,,,,2,right,,,,right,1,6.757,0,16,16,16,1,2575121108-55628.jpg,2238580740-186218.jpg,,
,,,A2R99OKTW7QVER,47,male,8,2022-11-24_07h28.00.243,memory_pilot_most_recent,2022.2.4,Win32,3.555555556,,,,,,,,,,,,,,,,,,,,,,,,,,,,,,,,,2,right,,,,right,1,2.915,0,17,17,17,1,2901939433-69673.jpg,2874302418-65979.jpg,,
,,,A2R99OKTW7QVER,47,male,8,2022-11-24_07h28.00.243,memory_pilot_most_recent,2022.2.4,Win32,3.555555556,,,,,,,,,,,,,,,,,,,,,,,,,,,,,,,,,2,right,,,,left,0,2.896,0,18,18,18,1,2864900358-63717.jpg,2981231403-71642.jpg,,
,,,A2R99OKTW7QVER,47,male,8,2022-11-24_07h28.00.243,memory_pilot_most_recent,2022.2.4,Win32,3.555555556,,,,,,,,,,,,,,,,,,,,,,,,,,,,,,,,,1,left,,,,left,1,12.107,0,19,19,19,1,2898624426-291546.jpg,2964207374-144577.jpg,,
,,,A2R99OKTW7QVER,47,male,8,2022-11-24_07h28.00.243,memory_pilot_most_recent,2022.2.4,Win32,3.555555556,,,,,,,,,,,,,,,,,,,,,,,,,,,,,,,,,2,left,,,,left,1,6.781,0,20,20,20,1,2238481198-19822.jpg,2862689306-285912.jpg,,
,,,A2R99OKTW7QVER,47,male,8,2022-11-24_07h28.00.243,memory_pilot_most_recent,2022.2.4,Win32,3.555555556,,,,,,,,,,,,,,,,,,,,,,,,,,,,,,,,,2,left,,,,left,1,5.608,0,21,21,21,1,2592380177-354629.jpg,2901945495-218294.jpg,,
,,,A2R99OKTW7QVER,47,male,8,2022-11-24_07h28.00.243,memory_pilot_most_recent,2022.2.4,Win32,3.555555556,,,,,,,,,,,,,,,,,,,,,,,,,,,,,,,,,3,right,,,,right,1,8.163,0,22,22,22,1,2883254439-140940.jpg,2964213381-294060.jpg,,
,,,A2R99OKTW7QVER,47,male,8,2022-11-24_07h28.00.243,memory_pilot_most_recent,2022.2.4,Win32,3.555555556,,,,,,,,,,,,,,,,,,,,,,,,,,,,,,,,,3,left,,,,left,1,9.853,0,23,23,23,1,2460547467-349422.jpg,2898635428-69106.jpg,,
,,,A2R99OKTW7QVER,47,male,8,2022-11-24_07h28.00.243,memory_pilot_most_recent,2022.2.4,Win32,3.555555556,,,,,,,,,,,,,,,,,,,,,,,,,,,,,,,,,2,right,,,,right,1,4.159,0,24,24,24,1,2238571930-184143.jpg,2874299429-139695.jpg,,
,,,A2R99OKTW7QVER,47,male,8,2022-11-24_07h28.00.243,memory_pilot_most_recent,2022.2.4,Win32,3.555555556,,,,,,,,,,,,,,,,,,,,,,,,,,,,,,,,,3,right,,,,right,1,5.654,0,25,25,25,1,2864910427-362200.jpg,2238481928-19949.jpg,,
,,,A2R99OKTW7QVER,47,male,8,2022-11-24_07h28.00.243,memory_pilot_most_recent,2022.2.4,Win32,3.555555556,,,,,,,,,,,,,,,,,,,,,,,,,,,,,,,,,3,left,,,,left,1,7.707,0,26,26,26,1,2592380177-354626.jpg,2579432708-56392.jpg,,
,,,A2R99OKTW7QVER,47,male,8,2022-11-24_07h28.00.243,memory_pilot_most_recent,2022.2.4,Win32,3.555555556,,,,,,,,,,,,,,,,,,,,,,,,,,,,,,,,,2,left,,,,right,0,4.705,0,27,27,27,1,2964216465-219242.jpg,2238482539-94244.jpg,,
,,,A2R99OKTW7QVER,47,male,8,2022-11-24_07h28.00.243,memory_pilot_most_recent,2022.2.4,Win32,3.555555556,,,,,,,,,,,,,,,,,,,,,,,,,,,,,,,,,1,right,,,,right,1,3.013,0,28,28,28,1,2864907361-287062.jpg,2901952513-70703.jpg,,
,,,A2R99OKTW7QVER,47,male,8,2022-11-24_07h28.00.243,memory_pilot_most_recent,2022.2.4,Win32,3.555555556,,,,,,,,,,,,,,,,,,,,,,,,,,,,,,,,,3,right,,,,right,1,5.766,0,29,29,29,1,2238574968-36441.jpg,2898618390-216538.jpg,,
,,,A2R99OKTW7QVER,47,male,8,2022-11-24_07h28.00.243,memory_pilot_most_recent,2022.2.4,Win32,3.555555556,,,,,,,,,,,,,,,,,,,,,,,,,,,,,,,,,2,left,,,,left,1,2.627,0,30,30,30,1,2883268412-365898.jpg,2984615358-72439.jpg,,
,,,A2R99OKTW7QVER,47,male,8,2022-11-24_07h28.00.243,memory_pilot_most_recent,2022.2.4,Win32,3.555555556,,,,,,,,,,,,,,,,,,,,,,,,,,,,,,,,,3,right,,,,left,0,1.868,0,31,31,31,1,2446760844-124088.jpg,2446759803-49249.jpg,,
,,,A2R99OKTW7QVER,47,male,8,2022-11-24_07h28.00.243,memory_pilot_most_recent,2022.2.4,Win32,3.555555556,,,,,,,,,,,,,,,,,,,,,,,,,,,,,,,,,1,left,,,,left,1,7.27,0,32,32,32,1,2460547508-51571.jpg,2446760917-347439.jpg,,
,,,A2R99OKTW7QVER,47,male,8,2022-11-24_07h28.00.243,memory_pilot_most_recent,2022.2.4,Win32,3.555555556,,,,,,,,,,,,,,,,,,,,,,,,,,,,,,,,,3,right,,,,right,1,5.604,0,33,33,33,1,2898622392-366513.jpg,2452381505-199546.jpg,,
,,,A2R99OKTW7QVER,47,male,8,2022-11-24_07h28.00.243,memory_pilot_most_recent,2022.2.4,Win32,3.555555556,,,,,,,,,,,,,,,,,,,,,,,,,,,,,,,,,1,right,,,,right,1,2.87,0,34,34,34,1,2452380171-273112.jpg,2449442529-124446.jpg,,
,,,A2R99OKTW7QVER,47,male,8,2022-11-24_07h28.00.243,memory_pilot_most_recent,2022.2.4,Win32,3.555555556,,,,,,,,,,,,,,,,,,,,,,,,,,,,,,,,,2,left,,,,left,1,5.862,0,35,35,35,1,2883268471-290842.jpg,2898623398-68538.jpg,,
,,,A2R99OKTW7QVER,47,male,8,2022-11-24_07h28.00.243,memory_pilot_most_recent,2022.2.4,Win32,3.555555556,,,,,,,,,,,,,,,,,,,,,,,,,,,,,,,,,1,left,,,,left,1,1.82,0,36,36,36,1,2898618444-142233.jpg,2898631359-142721.jpg,,
,,,A2R99OKTW7QVER,47,male,8,2022-11-24_07h28.00.243,memory_pilot_most_recent,2022.2.4,Win32,3.555555556,,,,,,,,,,,,,,,,,,,,,,,,,,,,,,,,,3,left,,,,left,1,1.942,0,37,37,37,1,2452380832-348593.jpg,2237856283-1014.jpg,,
,,,A2R99OKTW7QVER,47,male,8,2022-11-24_07h28.00.243,memory_pilot_most_recent,2022.2.4,Win32,3.555555556,,,,,,,,,,,,,,,,,,,,,,,,,,,,,,,,,2,left,,,,left,1,2.735,0,38,38,38,1,2874302418-65978.jpg,2238577555-185462.jpg,,
,,,A2R99OKTW7QVER,47,male,8,2022-11-24_07h28.00.243,memory_pilot_most_recent,2022.2.4,Win32,3.555555556,,,,,,,,,,,,,,,,,,,,,,,,,,,,,,,,,1,right,,,,right,1,5.46,0,39,39,39,1,2898618440-216547.jpg,2460547467-349421.jpg,,
,,,A2R99OKTW7QVER,47,male,8,2022-11-24_07h28.00.243,memory_pilot_most_recent,2022.2.4,Win32,3.555555556,,,,,,,,,,,,,,,,,,,,,,,,,,,,,,,,,1,left,,,,left,1,2.305,0,40,40,40,1,2901939379-143480.jpg,2981229442-369621.jpg,,
,,,A2R99OKTW7QVER,47,male,8,2022-11-24_07h28.00.243,memory_pilot_most_recent,2022.2.4,Win32,3.555555556,,,,,,,,,,,,,,,,,,,,,,,,,,,,,,,,,3,left,,,,right,0,2.22,0,41,41,41,1,2898633421-291973.jpg,2989730319-147821.jpg,,
,,,A2R99OKTW7QVER,47,male,8,2022-11-24_07h28.00.243,memory_pilot_most_recent,2022.2.4,Win32,3.555555556,,,,,,,,,,,,,,,,,,,,,,,,,,,,,,,,,2,left,,,,left,1,3.59,0,42,42,42,1,2449442529-124445.jpg,2901948476-293423.jpg,,
,,,A2R99OKTW7QVER,47,male,8,2022-11-24_07h28.00.243,memory_pilot_most_recent,2022.2.4,Win32,3.555555556,,,,,,,,,,,,,,,,,,,,,,,,,,,,,,,,,3,right,,,,right,1,4.807,0,43,43,43,1,2238436632-314070.jpg,2458347385-199723.jpg,,
,,,A2R99OKTW7QVER,47,male,8,2022-11-24_07h28.00.243,memory_pilot_most_recent,2022.2.4,Win32,3.555555556,,,,,,,,,,,,,,,,,,,,,,,,,,,,,,,,,2,right,,,,right,1,2.156,0,44,44,44,1,2874305405-214397.jpg,2868474407-362883.jpg,,
,,,A2R99OKTW7QVER,47,male,8,2022-11-24_07h28.00.243,memory_pilot_most_recent,2022.2.4,Win32,3.555555556,,,,,,,,,,,,,,,,,,,,,,,,,,,,,,,,,1,right,,,,right,1,2.94,0,45,45,45,1,2575963989-130576.jpg,2592379964-131054.jpg,,
,,,A2R99OKTW7QVER,47,male,8,2022-11-24_07h28.00.243,memory_pilot_most_recent,2022.2.4,Win32,3.555555556,,,,,,,,,,,,,,,,,,,,,,,,,,,,,,,,,1,left,,,,left,1,9.016,0,46,46,46,1,2874301407-363895.jpg,2883264368-67631.jpg,,
,,,A2R99OKTW7QVER,47,male,8,2022-11-24_07h28.00.243,memory_pilot_most_recent,2022.2.4,Win32,3.555555556,,,,,,,,,,,,,,,,,,,,,,,,,,,,,,,,,1,right,,,,left,0,4.545,0,47,47,47,1,2446759803-49250.jpg,2898635428-69104.jpg,,
,,,A2R99OKTW7QVER,47,male,8,2022-11-24_07h28.00.243,memory_pilot_most_recent,2022.2.4,Win32,3.555555556,,,,,,,,,,,,,,,,,,,,,,,,,,,,,,,,,1,left,,,,right,0,0.017,0,48,48,48,1,2238425482-313537.jpg,2238471391-240918.jpg,,
,,,A2R99OKTW7QVER,47,male,8,2022-11-24_07h28.00.243,memory_pilot_most_recent,2022.2.4,Win32,3.555555556,,,,,,,,,,,,,,,,,,,,,,,,,,,,,,,,,1,right,,,,left,0,7.585,0,49,49,49,1,2864902304-137862.jpg,2864910426-287204.jpg,,
,,,A2R99OKTW7QVER,47,male,8,2022-11-24_07h28.00.243,memory_pilot_most_recent,2022.2.4,Win32,3.555555556,,,,,,,,,,,,,,,,,,,,,,,,,,,,,,,,,1,right,,,,left,0,7.373,0,50,50,50,1,2238499057-320266.jpg,2238428357-313623.jpg,,
,,,A2R99OKTW7QVER,47,male,8,2022-11-24_07h28.00.243,memory_pilot_most_recent,2022.2.4,Win32,3.555555556,,,,,,,,,,,,,,,,,,,,,,,,,,,,,,,,,3,left,,,,right,0,3.506,0,51,51,51,1,2898634397-367080.jpg,2446759306-271735.jpg,,
,,,A2R99OKTW7QVER,47,male,8,2022-11-24_07h28.00.243,memory_pilot_most_recent,2022.2.4,Win32,3.555555556,,,,,,,,,,,,,,,,,,,,,,,,,,,,,,,,,1,left,,,,left,1,3.317,0,52,52,52,1,2901947423-70311.jpg,2860312398-62572.jpg,,
,,,A2R99OKTW7QVER,47,male,8,2022-11-24_07h28.00.243,memory_pilot_most_recent,2022.2.4,Win32,3.555555556,,,,,,,,,,,,,,,,,,,,,,,,,,,,,,,,,1,left,,,,left,1,7.219,0,53,53,53,1,2898635427-367120.jpg,2964221435-219434.jpg,,
,,,A2R99OKTW7QVER,47,male,8,2022-11-24_07h28.00.243,memory_pilot_most_recent,2022.2.4,Win32,3.555555556,,,,,,,,,,,,,,,,,,,,,,,,,,,,,,,,,3,right,,,,left,0,5.685,0,54,54,54,1,2901947448-70315.jpg,2883256307-365057.jpg,,
,,,A2R99OKTW7QVER,47,male,8,2022-11-24_07h28.00.243,memory_pilot_most_recent,2022.2.4,Win32,3.555555556,,,,,,,,,,,,,,,,,,,,,,,,,,,,,,,,,2,right,,,,left,0,0.8,0,55,55,55,1,2238467949-92250.jpg,2238560245-182099.jpg,,
,,,A2R99OKTW7QVER,47,male,8,2022-11-24_07h28.00.243,memory_pilot_most_recent,2022.2.4,Win32,3.555555556,,,,,,,,,,,,,,,,,,,,,,,,,,,,,,,,,2,right,,,,right,1,5.62,0,56,56,56,1,2864900357-361688.jpg,2874307433-66280.jpg,,
,,,A2R99OKTW7QVER,47,male,8,2022-11-24_07h28.00.243,memory_pilot_most_recent,2022.2.4,Win32,3.555555556,,,,,,,,,,,,,,,,,,,,,,,,,,,,,,,,,1,right,,,,right,1,11.942,0,57,57,57,1,2427874231-269884.jpg,2964223381-294447.jpg,,
,,,A2R99OKTW7QVER,47,male,8,2022-11-24_07h28.00.243,memory_pilot_most_recent,2022.2.4,Win32,3.555555556,,,,,,,,,,,,,,,,,,,,,,,,,,,,,,,,,3,left,,,,left,1,10.718,0,58,58,58,1,2883254439-140941.jpg,2964219379-144996.jpg,,
,,,A2R99OKTW7QVER,47,male,8,2022-11-24_07h28.00.243,memory_pilot_most_recent,2022.2.4,Win32,3.555555556,,,,,,,,,,,,,,,,,,,,,,,,,,,,,,,,,3,left,,,,left,1,2.952,0,59,59,59,1,2446758985-197609.jpg,2238087237-303447.jpg,,
,,,A2R99OKTW7QVER,47,male,8,2022-11-24_07h28.00.243,memory_pilot_most_recent,2022.2.4,Win32,3.555555556,,,,,,,,,,,,,,,,,,,,,,,,,,,,,,,,,,,,,,,,,,,,,,,,space,21.312
