,layer,correct,test_test_response.keys,test_test_response.corr,test_test_response.rt,trials_2.thisRepN,trials_2.thisTrialN,trials_2.thisN,trials_2.thisIndex,trials_2.ran,image1,image2,subject
0,3.0,left,left,1.0,3.083,0.0,0.0,0.0,0.0,1.0,2238572663-35822.jpg,2864903351-286874.jpg,A2AESV6JRC0TC0
1,1.0,left,right,0.0,1.326,0.0,1.0,1.0,1.0,1.0,2868475410-213219.jpg,2901946465-218350.jpg,A2AESV6JRC0TC0
2,1.0,right,left,0.0,1.046,0.0,2.0,2.0,2.0,1.0,2460547536-274179.jpg,2512875899-126682.jpg,A2AESV6JRC0TC0
3,1.0,left,left,1.0,0.61,0.0,3.0,3.0,3.0,1.0,2460547467-349422.jpg,2898618440-216545.jpg,A2AESV6JRC0TC0
4,1.0,left,left,1.0,0.97,0.0,4.0,4.0,4.0,1.0,2449442529-124446.jpg,2446759803-49251.jpg,A2AESV6JRC0TC0
5,2.0,right,left,0.0,1.101,0.0,5.0,5.0,5.0,1.0,2901942443-69923.jpg,2874299429-139695.jpg,A2AESV6JRC0TC0
6,3.0,left,right,0.0,0.792,0.0,6.0,6.0,6.0,1.0,2898618390-216538.jpg,2575120609-129862.jpg,A2AESV6JRC0TC0
7,3.0,left,left,1.0,0.833,0.0,7.0,7.0,7.0,1.0,2901939379-143480.jpg,2898632385-217139.jpg,A2AESV6JRC0TC0
8,3.0,right,right,1.0,0.517,0.0,8.0,8.0,8.0,1.0,2864904453-63933.jpg,2883256307-365057.jpg,A2AESV6JRC0TC0
9,3.0,left,left,1.0,1.061,0.0,9.0,9.0,9.0,1.0,2901947423-70311.jpg,2238577590-185467.jpg,A2AESV6JRC0TC0
10,1.0,right,right,1.0,0.856,0.0,10.0,10.0,10.0,1.0,2862691449-137104.jpg,2238481198-19822.jpg,A2AESV6JRC0TC0
11,3.0,left,left,1.0,1.01,0.0,11.0,11.0,11.0,1.0,2964223381-294447.jpg,2898628438-68785.jpg,A2AESV6JRC0TC0
12,1.0,right,right,1.0,1.001,0.0,12.0,12.0,12.0,1.0,2238471391-240918.jpg,2238425482-313537.jpg,A2AESV6JRC0TC0
13,2.0,right,left,0.0,0.578,0.0,13.0,13.0,13.0,1.0,2864901386-286797.jpg,2592380177-354626.jpg,A2AESV6JRC0TC0
14,1.0,left,right,0.0,1.228,0.0,14.0,14.0,14.0,1.0,2446759803-49249.jpg,2446760601-272099.jpg,A2AESV6JRC0TC0
15,3.0,right,left,0.0,0.981,0.0,15.0,15.0,15.0,1.0,2898633321-291943.jpg,2874302418-65978.jpg,A2AESV6JRC0TC0
16,3.0,right,right,1.0,0.969,0.0,16.0,16.0,16.0,1.0,2238550049-105691.jpg,2898633421-291973.jpg,A2AESV6JRC0TC0
17,2.0,left,left,1.0,0.749,0.0,17.0,17.0,17.0,1.0,2883273443-68193.jpg,2460547508-51572.jpg,A2AESV6JRC0TC0
18,3.0,right,right,1.0,0.798,0.0,18.0,18.0,18.0,1.0,2427873848-47312.jpg,2981241414-145842.jpg,A2AESV6JRC0TC0
19,2.0,right,right,1.0,0.793,0.0,19.0,19.0,19.0,1.0,2981246400-220363.jpg,2868474407-362883.jpg,A2AESV6JRC0TC0
20,3.0,right,left,0.0,0.759,0.0,20.0,20.0,20.0,1.0,2981235446-294901.jpg,2460547467-349421.jpg,A2AESV6JRC0TC0
21,1.0,left,right,0.0,0.652,0.0,21.0,21.0,21.0,1.0,2981231403-71642.jpg,2579432519-130698.jpg,A2AESV6JRC0TC0
22,1.0,left,left,1.0,1.137,0.0,22.0,22.0,22.0,1.0,2898635427-367120.jpg,2964221435-219434.jpg,A2AESV6JRC0TC0
23,2.0,right,right,1.0,0.653,0.0,23.0,23.0,23.0,1.0,2446758985-197610.jpg,2901939379-143479.jpg,A2AESV6JRC0TC0
24,1.0,right,left,0.0,0.748,0.0,24.0,24.0,24.0,1.0,2898618327-366317.jpg,2901941401-292798.jpg,A2AESV6JRC0TC0
25,1.0,left,right,0.0,0.517,0.0,25.0,25.0,25.0,1.0,2864907432-362042.jpg,2864901420-212147.jpg,A2AESV6JRC0TC0
26,1.0,right,left,0.0,0.53,0.0,26.0,26.0,26.0,1.0,2964218374-144968.jpg,2964218374-144967.jpg,A2AESV6JRC0TC0
27,2.0,right,right,1.0,0.786,0.0,27.0,27.0,27.0,1.0,2981236443-71859.jpg,2898624426-291546.jpg,A2AESV6JRC0TC0
28,2.0,right,left,0.0,1.082,0.0,28.0,28.0,28.0,1.0,2901933382-367209.jpg,2964222378-71332.jpg,A2AESV6JRC0TC0
29,2.0,left,left,1.0,1.183,0.0,29.0,29.0,29.0,1.0,2446758985-197609.jpg,2864909447-362144.jpg,A2AESV6JRC0TC0
30,3.0,left,right,0.0,1.998,0.0,30.0,30.0,30.0,1.0,2592379964-131054.jpg,2592380272-354673.jpg,A2AESV6JRC0TC0
31,1.0,left,left,1.0,1.084,0.0,31.0,31.0,31.0,1.0,2898634397-367080.jpg,2237944827-301472.jpg,A2AESV6JRC0TC0
32,2.0,right,right,1.0,0.771,0.0,32.0,32.0,32.0,1.0,2981232437-369759.jpg,2460547508-51571.jpg,A2AESV6JRC0TC0
33,2.0,left,right,0.0,1.385,0.0,33.0,33.0,33.0,1.0,2986451363-73598.jpg,2984628361-295995.jpg,A2AESV6JRC0TC0
34,1.0,right,right,1.0,0.816,0.0,34.0,34.0,34.0,1.0,2901946439-144040.jpg,2898617468-68274.jpg,A2AESV6JRC0TC0
35,3.0,right,right,1.0,1.381,0.0,35.0,35.0,35.0,1.0,2237858942-299356.jpg,2452380832-348593.jpg,A2AESV6JRC0TC0
36,1.0,right,right,1.0,0.897,0.0,36.0,36.0,36.0,1.0,2984615358-72439.jpg,2874307433-66280.jpg,A2AESV6JRC0TC0
37,2.0,right,left,0.0,0.866,0.0,37.0,37.0,37.0,1.0,2458348012-349114.jpg,2964213381-294060.jpg,A2AESV6JRC0TC0
38,3.0,left,right,0.0,0.56,0.0,38.0,38.0,38.0,1.0,2874302418-65979.jpg,2238578544-111698.jpg,A2AESV6JRC0TC0
39,3.0,left,left,1.0,0.644,0.0,39.0,39.0,39.0,1.0,2449442529-124445.jpg,2898632385-217137.jpg,A2AESV6JRC0TC0
40,2.0,right,right,1.0,0.874,0.0,40.0,40.0,40.0,1.0,2238573546-258454.jpg,2238480677-317399.jpg,A2AESV6JRC0TC0
41,2.0,left,left,1.0,0.161,0.0,41.0,41.0,41.0,1.0,2238580740-186218.jpg,2238521193-26285.jpg,A2AESV6JRC0TC0
42,1.0,left,right,0.0,0.152,0.0,42.0,42.0,42.0,1.0,2458347385-199723.jpg,2238480434-93829.jpg,A2AESV6JRC0TC0
43,1.0,left,left,1.0,0.195,0.0,43.0,43.0,43.0,1.0,2874301407-363895.jpg,2446761374-124213.jpg,A2AESV6JRC0TC0
44,2.0,right,right,1.0,0.566,0.0,44.0,44.0,44.0,1.0,2575120738-55528.jpg,2575120738-55529.jpg,A2AESV6JRC0TC0
45,1.0,left,right,0.0,0.454,0.0,45.0,45.0,45.0,1.0,2898618444-142233.jpg,2898631359-142721.jpg,A2AESV6JRC0TC0
46,2.0,left,left,1.0,0.568,0.0,46.0,46.0,46.0,1.0,2898635428-69104.jpg,2901943411-292945.jpg,A2AESV6JRC0TC0
47,3.0,right,right,1.0,3.503,0.0,47.0,47.0,47.0,1.0,2883266367-365742.jpg,2874299429-139694.jpg,A2AESV6JRC0TC0
48,2.0,left,left,1.0,1.187,0.0,48.0,48.0,48.0,1.0,2986451363-73599.jpg,2860302315-210704.jpg,A2AESV6JRC0TC0
49,3.0,right,right,1.0,1.123,0.0,49.0,49.0,49.0,1.0,2981241419-145844.jpg,2238481928-19949.jpg,A2AESV6JRC0TC0
50,3.0,right,left,0.0,0.514,0.0,50.0,50.0,50.0,1.0,2238436252-314037.jpg,2883268412-365898.jpg,A2AESV6JRC0TC0
51,3.0,left,left,1.0,0.715,0.0,51.0,51.0,51.0,1.0,2452381505-199546.jpg,2994401319-148290.jpg,A2AESV6JRC0TC0
52,2.0,right,right,1.0,0.844,0.0,52.0,52.0,52.0,1.0,2874314526-289684.jpg,2238560245-182099.jpg,A2AESV6JRC0TC0
53,1.0,right,left,0.0,0.486,0.0,53.0,53.0,53.0,1.0,2864902304-137862.jpg,2864910426-287204.jpg,A2AESV6JRC0TC0
54,2.0,left,right,0.0,0.469,0.0,54.0,54.0,54.0,1.0,2883268471-290842.jpg,2883255450-215310.jpg,A2AESV6JRC0TC0
55,3.0,right,right,1.0,1.19,0.0,55.0,55.0,55.0,1.0,2238481198-19821.jpg,2901952513-70703.jpg,A2AESV6JRC0TC0
56,1.0,right,right,1.0,1.034,0.0,56.0,56.0,56.0,1.0,2898633421-291974.jpg,2592380177-354629.jpg,A2AESV6JRC0TC0
57,3.0,left,right,0.0,0.896,0.0,57.0,57.0,57.0,1.0,2964216465-219242.jpg,2898619327-366362.jpg,A2AESV6JRC0TC0
58,2.0,right,right,1.0,0.78,0.0,58.0,58.0,58.0,1.0,2984615361-295509.jpg,2238428357-313623.jpg,A2AESV6JRC0TC0
59,2.0,right,right,1.0,0.851,0.0,59.0,59.0,59.0,1.0,2238563377-332054.jpg,2874303365-214262.jpg,A2AESV6JRC0TC0
60,1.0,left,right,0.0,2.2261,0.0,0.0,0.0,0.0,1.0,2898635427-367120.jpg,2964221435-219434.jpg,AOI6OCXVWYBX1
61,1.0,left,right,0.0,2.092,0.0,1.0,1.0,1.0,1.0,2986451363-73599.jpg,2898626385-216899.jpg,AOI6OCXVWYBX1
62,3.0,left,right,0.0,2.0731,0.0,2.0,2.0,2.0,1.0,2874299429-139695.jpg,2446760917-347439.jpg,AOI6OCXVWYBX1
63,1.0,right,right,1.0,2.4319,0.0,3.0,3.0,3.0,1.0,2238328478-11678.jpg,2452380832-348593.jpg,AOI6OCXVWYBX1
64,2.0,left,right,0.0,2.1583,0.0,4.0,4.0,4.0,1.0,2238481928-19949.jpg,2864900357-361688.jpg,AOI6OCXVWYBX1
65,3.0,right,right,1.0,2.2292,0.0,5.0,5.0,5.0,1.0,2901939433-69672.jpg,2864910426-287204.jpg,AOI6OCXVWYBX1
66,2.0,left,left,1.0,3.0073,0.0,6.0,6.0,6.0,1.0,2446758985-197609.jpg,2864909447-362144.jpg,AOI6OCXVWYBX1
67,1.0,left,left,1.0,3.0199,0.0,7.0,7.0,7.0,1.0,2964216465-219242.jpg,2238544191-252422.jpg,AOI6OCXVWYBX1
68,1.0,right,right,1.0,1.8773,0.0,8.0,8.0,8.0,1.0,2446761374-124213.jpg,2874301407-363895.jpg,AOI6OCXVWYBX1
69,2.0,left,left,1.0,1.8804,0.0,9.0,9.0,9.0,1.0,2460547467-349422.jpg,2868487415-213924.jpg,AOI6OCXVWYBX1
70,3.0,right,right,1.0,2.2321,0.0,10.0,10.0,10.0,1.0,2883266367-365742.jpg,2874299429-139694.jpg,AOI6OCXVWYBX1
71,3.0,left,left,1.0,1.5062,0.0,11.0,11.0,11.0,1.0,2238480677-317399.jpg,2238480278-19661.jpg,AOI6OCXVWYBX1
72,1.0,left,left,1.0,1.5042,0.0,12.0,12.0,12.0,1.0,2449442529-124446.jpg,2446759803-49251.jpg,AOI6OCXVWYBX1
73,3.0,right,right,1.0,1.5118,0.0,13.0,13.0,13.0,1.0,2981240427-370099.jpg,2964222378-71332.jpg,AOI6OCXVWYBX1
74,1.0,right,right,1.0,1.7865,0.0,14.0,14.0,14.0,1.0,2901938432-367627.jpg,2452381505-199546.jpg,AOI6OCXVWYBX1
75,2.0,left,left,1.0,2.2611,0.0,15.0,15.0,15.0,1.0,2898633421-291973.jpg,2575118671-277663.jpg,AOI6OCXVWYBX1
76,3.0,right,left,0.0,1.9692,0.0,16.0,16.0,16.0,1.0,2864904453-63933.jpg,2883256307-365057.jpg,AOI6OCXVWYBX1
77,2.0,left,left,1.0,1.3286,0.0,17.0,17.0,17.0,1.0,2238481198-19822.jpg,2901946436-293242.jpg,AOI6OCXVWYBX1
78,2.0,right,right,1.0,1.7988,0.0,18.0,18.0,18.0,1.0,2579432534-130704.jpg,2592380177-354629.jpg,AOI6OCXVWYBX1
79,3.0,right,right,1.0,1.9807,0.0,19.0,19.0,19.0,1.0,2592380272-354673.jpg,2592379964-131054.jpg,AOI6OCXVWYBX1
80,3.0,right,left,0.0,3.0837,0.0,20.0,20.0,20.0,1.0,2901942443-69925.jpg,2986451363-73598.jpg,AOI6OCXVWYBX1
81,3.0,left,right,0.0,2.741,0.0,21.0,21.0,21.0,1.0,2981231403-71642.jpg,2427873763-47290.jpg,AOI6OCXVWYBX1
82,1.0,left,right,0.0,2.6537,0.0,22.0,22.0,22.0,1.0,2874302418-65979.jpg,2237857458-1325.jpg,AOI6OCXVWYBX1
83,3.0,right,right,1.0,1.228,0.0,23.0,23.0,23.0,1.0,2901947448-70314.jpg,2883268471-290842.jpg,AOI6OCXVWYBX1
84,1.0,right,left,0.0,2.1622,0.0,24.0,24.0,24.0,1.0,2864906345-212360.jpg,2575120738-55529.jpg,AOI6OCXVWYBX1
85,2.0,right,left,0.0,1.9804,0.0,25.0,25.0,25.0,1.0,2238436322-314047.jpg,2238425482-313537.jpg,AOI6OCXVWYBX1
86,2.0,left,left,1.0,1.6,0.0,26.0,26.0,26.0,1.0,2460547467-349421.jpg,2452380166-273110.jpg,AOI6OCXVWYBX1
87,2.0,right,left,0.0,1.6867,0.0,27.0,27.0,27.0,1.0,2901939327-367670.jpg,2898618390-216538.jpg,AOI6OCXVWYBX1
88,1.0,right,left,0.0,1.5754,0.0,28.0,28.0,28.0,1.0,2592380255-205553.jpg,2238560245-182099.jpg,AOI6OCXVWYBX1
89,2.0,left,left,1.0,1.3245,0.0,29.0,29.0,29.0,1.0,2238580740-186218.jpg,2238521193-26285.jpg,AOI6OCXVWYBX1
90,1.0,right,left,0.0,2.535,0.0,30.0,30.0,30.0,1.0,2238576792-334659.jpg,2592380177-354626.jpg,AOI6OCXVWYBX1
91,2.0,left,right,0.0,1.5174,0.0,31.0,31.0,31.0,1.0,2868475410-213219.jpg,2238480803-19739.jpg,AOI6OCXVWYBX1
92,3.0,right,right,1.0,3.754,0.0,32.0,32.0,32.0,1.0,2964217461-294238.jpg,2898634397-367080.jpg,AOI6OCXVWYBX1
93,1.0,right,right,1.0,2.333,0.0,33.0,33.0,33.0,1.0,2964224310-219528.jpg,2874302418-65978.jpg,AOI6OCXVWYBX1
94,3.0,left,right,0.0,3.9591,0.0,34.0,34.0,34.0,1.0,2901952513-70703.jpg,2238481198-19821.jpg,AOI6OCXVWYBX1
95,3.0,right,right,1.0,5.0294,0.0,35.0,35.0,35.0,1.0,2901951392-368654.jpg,2446759803-49249.jpg,AOI6OCXVWYBX1
96,1.0,left,left,1.0,3.0247,0.0,36.0,36.0,36.0,1.0,2981241414-145842.jpg,2238516618-25604.jpg,AOI6OCXVWYBX1
97,3.0,left,right,0.0,1.0492,0.0,37.0,37.0,37.0,1.0,2460547508-51571.jpg,2901941438-69835.jpg,AOI6OCXVWYBX1
98,1.0,right,right,1.0,1.0414,0.0,38.0,38.0,38.0,1.0,2883254439-140940.jpg,2883273443-68193.jpg,AOI6OCXVWYBX1
99,1.0,left,right,0.0,1.2383,0.0,39.0,39.0,39.0,1.0,2964218374-144967.jpg,2964218374-144968.jpg,AOI6OCXVWYBX1
100,1.0,right,left,0.0,1.7829,0.0,40.0,40.0,40.0,1.0,2981244394-145974.jpg,2964213381-294060.jpg,AOI6OCXVWYBX1
101,3.0,left,right,0.0,1.2387,0.0,41.0,41.0,41.0,1.0,2458347385-199723.jpg,2458347252-348911.jpg,AOI6OCXVWYBX1
102,2.0,left,right,0.0,1.7024,0.0,42.0,42.0,42.0,1.0,2238572663-35822.jpg,2238571930-184143.jpg,AOI6OCXVWYBX1
103,2.0,left,right,0.0,1.8817,0.0,43.0,43.0,43.0,1.0,2874307433-66280.jpg,2981246400-220365.jpg,AOI6OCXVWYBX1
104,3.0,left,right,0.0,1.6239,0.0,44.0,44.0,44.0,1.0,2864907432-362042.jpg,2989726338-74002.jpg,AOI6OCXVWYBX1
105,3.0,right,right,1.0,1.5176,0.0,45.0,45.0,45.0,1.0,2964207374-144577.jpg,2898617468-68274.jpg,AOI6OCXVWYBX1
106,1.0,right,right,1.0,1.7936,0.0,46.0,46.0,46.0,1.0,2860312398-62572.jpg,2901947423-70311.jpg,AOI6OCXVWYBX1
107,3.0,left,right,0.0,1.6159,0.0,47.0,47.0,47.0,1.0,2901939379-143479.jpg,2964216376-294181.jpg,AOI6OCXVWYBX1
108,2.0,left,left,1.0,1.6936,0.0,48.0,48.0,48.0,1.0,2238428357-313623.jpg,2984615361-295509.jpg,AOI6OCXVWYBX1
109,1.0,right,left,0.0,1.8849,0.0,49.0,49.0,49.0,1.0,2898631359-142721.jpg,2898618444-142233.jpg,AOI6OCXVWYBX1
110,3.0,left,left,1.0,3.0105,0.0,50.0,50.0,50.0,1.0,2898624426-291546.jpg,2981235446-294900.jpg,AOI6OCXVWYBX1
111,2.0,left,right,0.0,1.2246,0.0,51.0,51.0,51.0,1.0,2901941401-292798.jpg,2981243412-370222.jpg,AOI6OCXVWYBX1
112,2.0,right,right,1.0,1.795,0.0,52.0,52.0,52.0,1.0,2984615361-295510.jpg,2883268412-365898.jpg,AOI6OCXVWYBX1
113,1.0,right,left,0.0,2.7003,0.0,53.0,53.0,53.0,1.0,2901942428-69919.jpg,2901939379-143480.jpg,AOI6OCXVWYBX1
114,3.0,left,left,1.0,1.6471,0.0,54.0,54.0,54.0,1.0,2898635428-69104.jpg,2898625336-291572.jpg,AOI6OCXVWYBX1
115,1.0,right,right,1.0,1.2359,0.0,55.0,55.0,55.0,1.0,2452380171-273112.jpg,2449442529-124445.jpg,AOI6OCXVWYBX1
116,2.0,left,left,1.0,2.2597,0.0,56.0,56.0,56.0,1.0,2874303365-214262.jpg,2238563377-332054.jpg,AOI6OCXVWYBX1
117,2.0,left,right,0.0,4.608,0.0,57.0,57.0,57.0,1.0,2868474407-362883.jpg,2981246400-220363.jpg,AOI6OCXVWYBX1
118,2.0,right,right,1.0,1.3193,0.0,58.0,58.0,58.0,1.0,2592380177-354628.jpg,2512875899-126682.jpg,AOI6OCXVWYBX1
119,2.0,right,right,1.0,2.0412,0.0,59.0,59.0,59.0,1.0,2901941438-69836.jpg,2964223381-294447.jpg,AOI6OCXVWYBX1
120,3.0,left,left,1.0,1.8741,0.0,0.0,0.0,0.0,1.0,2898624426-291546.jpg,2981235446-294900.jpg,A34WEYAH462CBS
121,2.0,right,right,1.0,1.5944,0.0,1.0,1.0,1.0,1.0,2874314526-289684.jpg,2238560245-182099.jpg,A34WEYAH462CBS
122,1.0,right,right,1.0,1.2684,0.0,2.0,2.0,2.0,1.0,2237857458-1324.jpg,2986451363-73598.jpg,A34WEYAH462CBS
123,3.0,left,left,1.0,1.5852,0.0,3.0,3.0,3.0,1.0,2238481928-19949.jpg,2981241419-145844.jpg,A34WEYAH462CBS
124,1.0,right,right,1.0,1.14,0.0,4.0,4.0,4.0,1.0,2238499057-320266.jpg,2238428357-313623.jpg,A34WEYAH462CBS
125,1.0,right,right,1.0,2.0314,0.0,5.0,5.0,5.0,1.0,2964224310-219528.jpg,2874302418-65978.jpg,A34WEYAH462CBS
126,3.0,left,left,1.0,1.4791,0.0,6.0,6.0,6.0,1.0,2964223381-294447.jpg,2898628438-68785.jpg,A34WEYAH462CBS
127,1.0,left,left,1.0,1.569,0.0,7.0,7.0,7.0,1.0,2883268471-290842.jpg,2883268471-290843.jpg,A34WEYAH462CBS
128,2.0,left,left,1.0,1.3752,0.0,8.0,8.0,8.0,1.0,2460547508-51571.jpg,2981232437-369759.jpg,A34WEYAH462CBS
129,3.0,right,right,1.0,1.3648,0.0,9.0,9.0,9.0,1.0,2964217461-294238.jpg,2898634397-367080.jpg,A34WEYAH462CBS
130,1.0,right,right,1.0,1.4947,0.0,10.0,10.0,10.0,1.0,2238480434-93829.jpg,2458347385-199723.jpg,A34WEYAH462CBS
131,3.0,right,right,1.0,1.349,0.0,11.0,11.0,11.0,1.0,2864911457-362260.jpg,2874303365-214262.jpg,A34WEYAH462CBS
132,3.0,right,right,1.0,1.3485,0.0,12.0,12.0,12.0,1.0,2238578544-111698.jpg,2874302418-65979.jpg,A34WEYAH462CBS
133,3.0,left,left,1.0,1.2273,0.0,13.0,13.0,13.0,1.0,2901941401-292798.jpg,2898631468-68931.jpg,A34WEYAH462CBS
134,2.0,right,right,1.0,1.242,0.0,14.0,14.0,14.0,1.0,2238571930-184143.jpg,2238572663-35822.jpg,A34WEYAH462CBS
135,1.0,left,left,1.0,1.2611,0.0,15.0,15.0,15.0,1.0,2964218374-144967.jpg,2964218374-144968.jpg,A34WEYAH462CBS
136,2.0,left,right,0.0,2.255,0.0,16.0,16.0,16.0,1.0,2901939379-143480.jpg,2981229442-369621.jpg,A34WEYAH462CBS
137,3.0,right,right,1.0,1.4622,0.0,17.0,17.0,17.0,1.0,2901947323-70275.jpg,2874301407-363895.jpg,A34WEYAH462CBS
138,3.0,right,left,0.0,1.8269,0.0,18.0,18.0,18.0,1.0,2238436252-314037.jpg,2883268412-365898.jpg,A34WEYAH462CBS
139,2.0,left,left,1.0,1.2432,0.0,19.0,19.0,19.0,1.0,2901939379-143479.jpg,2446758985-197610.jpg,A34WEYAH462CBS
140,1.0,left,left,1.0,1.34,0.0,20.0,20.0,20.0,1.0,2452381505-199546.jpg,2901938432-367627.jpg,A34WEYAH462CBS
141,1.0,left,left,1.0,1.151,0.0,21.0,21.0,21.0,1.0,2460547467-349421.jpg,2898631394-142727.jpg,A34WEYAH462CBS
142,1.0,right,right,1.0,1.4482,0.0,22.0,22.0,22.0,1.0,2238471391-240918.jpg,2238425482-313537.jpg,A34WEYAH462CBS
143,1.0,right,right,1.0,1.4968,0.0,23.0,23.0,23.0,1.0,2446760601-272099.jpg,2446759803-49249.jpg,A34WEYAH462CBS
144,2.0,right,left,0.0,2.2737,0.0,24.0,24.0,24.0,1.0,2981246400-220363.jpg,2868474407-362883.jpg,A34WEYAH462CBS
145,1.0,right,right,1.0,1.1693,0.0,25.0,25.0,25.0,1.0,2238576792-334659.jpg,2592380177-354626.jpg,A34WEYAH462CBS
146,2.0,left,left,1.0,1.7005,0.0,26.0,26.0,26.0,1.0,2446758985-197609.jpg,2864909447-362144.jpg,A34WEYAH462CBS
147,3.0,right,right,1.0,2.0358,0.0,27.0,27.0,27.0,1.0,2238480803-19737.jpg,2238481198-19822.jpg,A34WEYAH462CBS
148,3.0,left,left,1.0,1.5601,0.0,28.0,28.0,28.0,1.0,2964216465-219242.jpg,2898619327-366362.jpg,A34WEYAH462CBS
149,3.0,right,right,1.0,1.7984,0.0,29.0,29.0,29.0,1.0,2864904453-63933.jpg,2883256307-365057.jpg,A34WEYAH462CBS
150,2.0,right,right,1.0,1.2162,0.0,30.0,30.0,30.0,1.0,2575120738-55528.jpg,2575120738-55529.jpg,A34WEYAH462CBS
151,1.0,right,right,1.0,1.4348,0.0,31.0,31.0,31.0,1.0,2238550816-254000.jpg,2238580740-186218.jpg,A34WEYAH462CBS
152,1.0,right,right,1.0,1.3796,0.0,32.0,32.0,32.0,1.0,2237856148-989.jpg,2898618390-216538.jpg,A34WEYAH462CBS
153,2.0,right,left,0.0,1.4572,0.0,33.0,33.0,33.0,1.0,2238573447-333826.jpg,2901947423-70311.jpg,A34WEYAH462CBS
154,1.0,left,left,1.0,1.3673,0.0,34.0,34.0,34.0,1.0,2449442529-124446.jpg,2446759803-49251.jpg,A34WEYAH462CBS
155,1.0,left,right,0.0,1.7847,0.0,35.0,35.0,35.0,1.0,2512875899-126682.jpg,2460547536-274179.jpg,A34WEYAH462CBS
156,3.0,left,right,0.0,1.8073,0.0,36.0,36.0,36.0,1.0,2964222378-71332.jpg,2981240427-370099.jpg,A34WEYAH462CBS
157,2.0,left,left,1.0,2.1099,0.0,37.0,37.0,37.0,1.0,2898635428-69104.jpg,2901943411-292945.jpg,A34WEYAH462CBS
158,3.0,right,right,1.0,1.474,0.0,38.0,38.0,38.0,1.0,2427873848-47312.jpg,2981241414-145842.jpg,A34WEYAH462CBS
159,2.0,left,left,1.0,1.6834,0.0,39.0,39.0,39.0,1.0,2238480677-317399.jpg,2238573546-258454.jpg,A34WEYAH462CBS
160,2.0,left,right,0.0,1.3297,0.0,40.0,40.0,40.0,1.0,2883273443-68193.jpg,2460547508-51572.jpg,A34WEYAH462CBS
161,2.0,left,left,1.0,1.4655,0.0,41.0,41.0,41.0,1.0,2864910426-287204.jpg,2883268412-365899.jpg,A34WEYAH462CBS
162,2.0,left,left,1.0,1.8656,0.0,42.0,42.0,42.0,1.0,2592380177-354629.jpg,2579432534-130704.jpg,A34WEYAH462CBS
163,2.0,right,right,1.0,1.9143,0.0,43.0,43.0,43.0,1.0,2238481813-19930.jpg,2452380832-348593.jpg,A34WEYAH462CBS
164,1.0,left,left,1.0,1.1032,0.0,44.0,44.0,44.0,1.0,2592379964-131054.jpg,2575963989-130576.jpg,A34WEYAH462CBS
165,2.0,left,left,1.0,1.5501,0.0,45.0,45.0,45.0,1.0,2986451363-73599.jpg,2860302315-210704.jpg,A34WEYAH462CBS
166,3.0,right,right,1.0,1.0907,0.0,46.0,46.0,46.0,1.0,2898618444-142232.jpg,2898618444-142233.jpg,A34WEYAH462CBS
167,2.0,right,left,0.0,1.2457,0.0,47.0,47.0,47.0,1.0,2981244403-72215.jpg,2874299429-139694.jpg,A34WEYAH462CBS
168,1.0,left,left,1.0,1.1384,0.0,48.0,48.0,48.0,1.0,2449442529-124445.jpg,2452380171-273112.jpg,A34WEYAH462CBS
169,3.0,right,right,1.0,1.1869,0.0,49.0,49.0,49.0,1.0,2238481198-19821.jpg,2901952513-70703.jpg,A34WEYAH462CBS
170,2.0,left,left,1.0,1.5016,0.0,50.0,50.0,50.0,1.0,2981231403-71642.jpg,2874305405-214397.jpg,A34WEYAH462CBS
171,1.0,left,left,1.0,1.3745,0.0,51.0,51.0,51.0,1.0,2874299429-139695.jpg,2883266388-67750.jpg,A34WEYAH462CBS
172,2.0,right,right,1.0,1.1502,0.0,52.0,52.0,52.0,1.0,2901943387-368037.jpg,2898617468-68274.jpg,A34WEYAH462CBS
173,3.0,right,right,1.0,1.4528,0.0,53.0,53.0,53.0,1.0,2864909447-362146.jpg,2460547467-349422.jpg,A34WEYAH462CBS
174,1.0,left,right,0.0,1.0425,0.0,54.0,54.0,54.0,1.0,2874307433-66280.jpg,2984615358-72439.jpg,A34WEYAH462CBS
175,3.0,left,right,0.0,1.1387,0.0,55.0,55.0,55.0,1.0,2868475410-213219.jpg,2868474407-362885.jpg,A34WEYAH462CBS
176,3.0,left,left,1.0,2.0623,0.0,56.0,56.0,56.0,1.0,2898633421-291973.jpg,2238550049-105691.jpg,A34WEYAH462CBS
177,3.0,left,right,0.0,1.3864,0.0,57.0,57.0,57.0,1.0,2864907432-362042.jpg,2989726338-74002.jpg,A34WEYAH462CBS
178,2.0,right,right,1.0,1.2521,0.0,58.0,58.0,58.0,1.0,2868479517-363220.jpg,2898635427-367120.jpg,A34WEYAH462CBS
179,1.0,right,right,1.0,1.2391,0.0,59.0,59.0,59.0,1.0,2981244394-145974.jpg,2964213381-294060.jpg,A34WEYAH462CBS
180,1.0,left,right,0.0,1.9038,0.0,0.0,0.0,0.0,1.0,2238580740-186218.jpg,2238550816-254000.jpg,A1R3VQ1011VATX
181,3.0,left,right,0.0,1.1365,0.0,1.0,1.0,1.0,1.0,2449442529-124445.jpg,2898632385-217137.jpg,A1R3VQ1011VATX
182,2.0,left,right,0.0,1.2827,0.0,2.0,2.0,2.0,1.0,2898618390-216538.jpg,2901939327-367670.jpg,A1R3VQ1011VATX
183,2.0,left,left,1.0,3.6716,0.0,3.0,3.0,3.0,1.0,2874302418-65979.jpg,2238480648-19714.jpg,A1R3VQ1011VATX
184,2.0,left,right,0.0,43.6172,0.0,4.0,4.0,4.0,1.0,2981231403-71642.jpg,2874305405-214397.jpg,A1R3VQ1011VATX
185,2.0,left,left,1.0,0.9498,0.0,5.0,5.0,5.0,1.0,2981241414-145842.jpg,2874301404-139813.jpg,A1R3VQ1011VATX
186,1.0,left,left,1.0,0.8074,0.0,6.0,6.0,6.0,1.0,2898635427-367120.jpg,2964221435-219434.jpg,A1R3VQ1011VATX
187,1.0,right,right,1.0,0.736,0.0,7.0,7.0,7.0,1.0,2898626385-216899.jpg,2986451363-73599.jpg,A1R3VQ1011VATX
188,1.0,left,left,1.0,0.7552,0.0,8.0,8.0,8.0,1.0,2883273443-68193.jpg,2883254439-140940.jpg,A1R3VQ1011VATX
189,2.0,left,right,0.0,0.7527,0.0,9.0,9.0,9.0,1.0,2883256307-365057.jpg,2964210336-293945.jpg,A1R3VQ1011VATX
190,3.0,left,left,1.0,0.4461,0.0,10.0,10.0,10.0,1.0,2898634397-367080.jpg,2964217461-294238.jpg,A1R3VQ1011VATX
191,2.0,right,right,1.0,0.4043,0.0,11.0,11.0,11.0,1.0,2868487415-213924.jpg,2460547467-349422.jpg,A1R3VQ1011VATX
192,2.0,right,left,0.0,0.7908,0.0,12.0,12.0,12.0,1.0,2883268412-365899.jpg,2864910426-287204.jpg,A1R3VQ1011VATX
193,3.0,right,right,1.0,0.9974,0.0,13.0,13.0,13.0,1.0,2237858942-299356.jpg,2452380832-348593.jpg,A1R3VQ1011VATX
194,3.0,left,right,0.0,12.2644,0.0,14.0,14.0,14.0,1.0,2901939379-143480.jpg,2898632385-217139.jpg,A1R3VQ1011VATX
195,2.0,left,left,1.0,0.9672,0.0,15.0,15.0,15.0,1.0,2964218374-144967.jpg,2446759306-271734.jpg,A1R3VQ1011VATX
196,1.0,right,right,1.0,0.7656,0.0,16.0,16.0,16.0,1.0,2898618327-366317.jpg,2901941401-292798.jpg,A1R3VQ1011VATX
197,3.0,right,left,0.0,0.5694,0.0,17.0,17.0,17.0,1.0,2460547536-274178.jpg,2449442529-124446.jpg,A1R3VQ1011VATX
198,3.0,right,right,1.0,0.4997,0.0,18.0,18.0,18.0,1.0,2964207374-144577.jpg,2898617468-68274.jpg,A1R3VQ1011VATX
199,1.0,left,right,0.0,3.754,0.0,19.0,19.0,19.0,1.0,2898635428-69104.jpg,2446759803-49250.jpg,A1R3VQ1011VATX
200,1.0,right,right,1.0,55.5645,0.0,20.0,20.0,20.0,1.0,2592380255-205553.jpg,2238560245-182099.jpg,A1R3VQ1011VATX
201,2.0,left,left,1.0,1.1679,0.0,21.0,21.0,21.0,1.0,2898633421-291973.jpg,2575118671-277663.jpg,A1R3VQ1011VATX
202,3.0,left,right,0.0,1.165,0.0,22.0,22.0,22.0,1.0,2964213381-294060.jpg,2964213381-294061.jpg,A1R3VQ1011VATX
203,2.0,right,right,1.0,0.9679,0.0,23.0,23.0,23.0,1.0,2427874554-121863.jpg,2458347385-199723.jpg,A1R3VQ1011VATX
204,2.0,left,left,1.0,0.7261,0.0,24.0,24.0,24.0,1.0,2592380177-354626.jpg,2864901386-286797.jpg,A1R3VQ1011VATX
205,1.0,left,left,1.0,0.8659,0.0,25.0,25.0,25.0,1.0,2874303365-214262.jpg,2274829821-263682.jpg,A1R3VQ1011VATX
206,2.0,right,right,1.0,1.0001,0.0,26.0,26.0,26.0,1.0,2238573546-258454.jpg,2238480677-317399.jpg,A1R3VQ1011VATX
207,1.0,right,left,0.0,0.6187,0.0,27.0,27.0,27.0,1.0,2981240424-145794.jpg,2964222378-71332.jpg,A1R3VQ1011VATX
208,3.0,right,right,1.0,0.5027,0.0,28.0,28.0,28.0,1.0,2883266367-365742.jpg,2874299429-139694.jpg,A1R3VQ1011VATX
209,3.0,right,left,0.0,0.4137,0.0,29.0,29.0,29.0,1.0,2238436252-314037.jpg,2883268412-365898.jpg,A1R3VQ1011VATX
210,1.0,left,left,1.0,0.8103,0.0,30.0,30.0,30.0,1.0,2238428357-313623.jpg,2238499057-320266.jpg,A1R3VQ1011VATX
211,1.0,left,left,1.0,0.7361,0.0,31.0,31.0,31.0,1.0,2898618444-142233.jpg,2898631359-142721.jpg,A1R3VQ1011VATX
212,3.0,right,right,1.0,0.7013,0.0,32.0,32.0,32.0,1.0,2868474407-362885.jpg,2868475410-213219.jpg,A1R3VQ1011VATX
213,1.0,right,left,0.0,0.8802,0.0,33.0,33.0,33.0,1.0,2984615358-72439.jpg,2874307433-66280.jpg,A1R3VQ1011VATX
214,3.0,left,left,1.0,0.9343,0.0,34.0,34.0,34.0,1.0,2592379964-131054.jpg,2592380272-354673.jpg,A1R3VQ1011VATX
215,1.0,left,right,0.0,0.7503,0.0,35.0,35.0,35.0,1.0,2460547508-51571.jpg,2452380166-273109.jpg,A1R3VQ1011VATX
216,1.0,left,left,1.0,0.851,0.0,36.0,36.0,36.0,1.0,2964223381-294447.jpg,2427874231-269884.jpg,A1R3VQ1011VATX
217,2.0,right,right,1.0,0.7147,0.0,37.0,37.0,37.0,1.0,2238571930-184143.jpg,2238572663-35822.jpg,A1R3VQ1011VATX
218,2.0,right,left,0.0,0.7005,0.0,38.0,38.0,38.0,1.0,2981236443-71859.jpg,2898624426-291546.jpg,A1R3VQ1011VATX
219,3.0,left,left,1.0,0.6701,0.0,39.0,39.0,39.0,1.0,2901947423-70311.jpg,2238577590-185467.jpg,A1R3VQ1011VATX
220,3.0,left,right,0.0,0.6145,0.0,40.0,40.0,40.0,1.0,2446759803-49249.jpg,2901951392-368654.jpg,A1R3VQ1011VATX
221,1.0,left,left,1.0,0.5144,0.0,41.0,41.0,41.0,1.0,2238425482-313537.jpg,2238471391-240918.jpg,A1R3VQ1011VATX
222,2.0,left,right,0.0,0.4275,0.0,42.0,42.0,42.0,1.0,2238481928-19949.jpg,2864900357-361688.jpg,A1R3VQ1011VATX
223,3.0,right,left,0.0,0.5838,0.0,43.0,43.0,43.0,1.0,2446760917-347439.jpg,2874299429-139695.jpg,A1R3VQ1011VATX
224,2.0,right,right,1.0,0.5548,0.0,44.0,44.0,44.0,1.0,2446758985-197610.jpg,2901939379-143479.jpg,A1R3VQ1011VATX
225,3.0,right,left,0.0,0.4248,0.0,45.0,45.0,45.0,1.0,2901947448-70314.jpg,2883268471-290842.jpg,A1R3VQ1011VATX
226,1.0,right,left,0.0,0.6845,0.0,46.0,46.0,46.0,1.0,2981240424-145795.jpg,2446758985-197609.jpg,A1R3VQ1011VATX
227,2.0,right,right,1.0,0.7464,0.0,47.0,47.0,47.0,1.0,2898632385-217138.jpg,2452381505-199546.jpg,A1R3VQ1011VATX
228,3.0,left,left,1.0,0.517,0.0,48.0,48.0,48.0,1.0,2986451363-73598.jpg,2901942443-69925.jpg,A1R3VQ1011VATX
229,1.0,right,right,1.0,0.4169,0.0,49.0,49.0,49.0,1.0,2864907361-287062.jpg,2901952513-70703.jpg,A1R3VQ1011VATX
230,2.0,right,left,0.0,0.5004,0.0,50.0,50.0,50.0,1.0,2575120738-55528.jpg,2575120738-55529.jpg,A1R3VQ1011VATX
231,3.0,left,right,0.0,0.63,0.0,51.0,51.0,51.0,1.0,2868474407-362883.jpg,2901948383-70363.jpg,A1R3VQ1011VATX
232,3.0,right,left,0.0,0.5312,0.0,52.0,52.0,52.0,1.0,2989726338-74002.jpg,2864907432-362042.jpg,A1R3VQ1011VATX
233,3.0,right,right,1.0,0.7811,0.0,53.0,53.0,53.0,1.0,2898619327-366362.jpg,2964216465-219242.jpg,A1R3VQ1011VATX
234,1.0,left,left,1.0,0.8441,0.0,54.0,54.0,54.0,1.0,2874301407-363895.jpg,2446761374-124213.jpg,A1R3VQ1011VATX
235,1.0,left,left,1.0,1.1239,0.0,55.0,55.0,55.0,1.0,2238481198-19822.jpg,2862691449-137104.jpg,A1R3VQ1011VATX
236,3.0,left,right,0.0,0.8708,0.0,56.0,56.0,56.0,1.0,2460547467-349421.jpg,2981235446-294901.jpg,A1R3VQ1011VATX
237,1.0,left,left,1.0,0.9298,0.0,57.0,57.0,57.0,1.0,2592380177-354629.jpg,2898633421-291974.jpg,A1R3VQ1011VATX
238,2.0,left,right,0.0,0.6714,0.0,58.0,58.0,58.0,1.0,2874302418-65978.jpg,2238481198-19823.jpg,A1R3VQ1011VATX
239,2.0,left,left,1.0,0.3763,0.0,59.0,59.0,59.0,1.0,2512875899-126682.jpg,2592380177-354628.jpg,A1R3VQ1011VATX
240,3.0,right,left,0.0,1.7046,0.0,0.0,0.0,0.0,1.0,2981235446-294901.jpg,2460547467-349421.jpg,A3R2EH58I8Q4YI
241,2.0,left,right,0.0,0.8331,0.0,1.0,1.0,1.0,1.0,2964218374-144967.jpg,2446759306-271734.jpg,A3R2EH58I8Q4YI
242,1.0,right,right,1.0,1.5538,0.0,2.0,2.0,2.0,1.0,2237857458-1325.jpg,2874302418-65979.jpg,A3R2EH58I8Q4YI
243,2.0,left,left,1.0,2.6063,0.0,3.0,3.0,3.0,1.0,2446758985-197609.jpg,2864909447-362144.jpg,A3R2EH58I8Q4YI
244,3.0,right,right,1.0,1.6062,0.0,4.0,4.0,4.0,1.0,2427873763-47290.jpg,2981231403-71642.jpg,A3R2EH58I8Q4YI
245,3.0,right,left,0.0,1.2831,0.0,5.0,5.0,5.0,1.0,2238480278-19661.jpg,2238480677-317399.jpg,A3R2EH58I8Q4YI
246,1.0,left,left,1.0,0.8844,0.0,6.0,6.0,6.0,1.0,2874307433-66280.jpg,2984615358-72439.jpg,A3R2EH58I8Q4YI
247,2.0,right,right,1.0,1.1664,0.0,7.0,7.0,7.0,1.0,2981229442-369621.jpg,2901939379-143480.jpg,A3R2EH58I8Q4YI
248,3.0,right,left,0.0,0.9495,0.0,8.0,8.0,8.0,1.0,2864909447-362146.jpg,2460547467-349422.jpg,A3R2EH58I8Q4YI
249,3.0,left,left,1.0,1.4867,0.0,9.0,9.0,9.0,1.0,2592379964-131054.jpg,2592380272-354673.jpg,A3R2EH58I8Q4YI
250,1.0,left,left,1.0,1.5209,0.0,10.0,10.0,10.0,1.0,2898634397-367080.jpg,2237944827-301472.jpg,A3R2EH58I8Q4YI
251,1.0,left,left,1.0,1.1994,0.0,11.0,11.0,11.0,1.0,2592380177-354629.jpg,2898633421-291974.jpg,A3R2EH58I8Q4YI
252,3.0,left,right,0.0,1.0986,0.0,12.0,12.0,12.0,1.0,2874302418-65978.jpg,2898633321-291943.jpg,A3R2EH58I8Q4YI
253,3.0,right,left,0.0,1.2035,0.0,13.0,13.0,13.0,1.0,2994401319-148290.jpg,2452381505-199546.jpg,A3R2EH58I8Q4YI
254,1.0,right,right,1.0,1.0204,0.0,14.0,14.0,14.0,1.0,2452380171-273112.jpg,2449442529-124445.jpg,A3R2EH58I8Q4YI
255,1.0,right,left,0.0,1.0708,0.0,15.0,15.0,15.0,1.0,2274829821-263682.jpg,2874303365-214262.jpg,A3R2EH58I8Q4YI
256,1.0,left,left,1.0,0.9697,0.0,16.0,16.0,16.0,1.0,2883268412-365898.jpg,2984626312-370849.jpg,A3R2EH58I8Q4YI
257,2.0,right,left,0.0,3.599,0.0,17.0,17.0,17.0,1.0,2238521193-26285.jpg,2238580740-186218.jpg,A3R2EH58I8Q4YI
258,1.0,right,right,1.0,1.3152,0.0,18.0,18.0,18.0,1.0,2237856148-989.jpg,2898618390-216538.jpg,A3R2EH58I8Q4YI
259,3.0,right,left,0.0,1.1153,0.0,19.0,19.0,19.0,1.0,2901948383-70363.jpg,2868474407-362883.jpg,A3R2EH58I8Q4YI
260,2.0,left,left,1.0,1.3972,0.0,20.0,20.0,20.0,1.0,2874299429-139695.jpg,2901942443-69923.jpg,A3R2EH58I8Q4YI
261,2.0,right,left,0.0,0.6604,0.0,21.0,21.0,21.0,1.0,2901947423-70310.jpg,2864907432-362042.jpg,A3R2EH58I8Q4YI
262,1.0,left,right,0.0,1.8036,0.0,22.0,22.0,22.0,1.0,2238428357-313623.jpg,2238499057-320266.jpg,A3R2EH58I8Q4YI
263,1.0,right,right,1.0,1.4756,0.0,23.0,23.0,23.0,1.0,2898631359-142721.jpg,2898618444-142233.jpg,A3R2EH58I8Q4YI
264,2.0,right,left,0.0,1.8002,0.0,24.0,24.0,24.0,1.0,2981244403-72215.jpg,2874299429-139694.jpg,A3R2EH58I8Q4YI
265,3.0,left,left,1.0,0.5688,0.0,25.0,25.0,25.0,1.0,2964223381-294447.jpg,2898628438-68785.jpg,A3R2EH58I8Q4YI
266,3.0,left,left,1.0,1.2859,0.0,26.0,26.0,26.0,1.0,2964222378-71332.jpg,2981240427-370099.jpg,A3R2EH58I8Q4YI
267,1.0,left,left,1.0,0.9574,0.0,27.0,27.0,27.0,1.0,2575120738-55529.jpg,2864906345-212360.jpg,A3R2EH58I8Q4YI
268,3.0,right,right,1.0,1.3121,0.0,28.0,28.0,28.0,1.0,2238480980-168129.jpg,2238560245-182099.jpg,A3R2EH58I8Q4YI
269,1.0,right,right,1.0,2.6195,0.0,29.0,29.0,29.0,1.0,2901946439-144040.jpg,2898617468-68274.jpg,A3R2EH58I8Q4YI
270,2.0,left,left,1.0,0.9444,0.0,30.0,30.0,30.0,1.0,2883273443-68193.jpg,2460547508-51572.jpg,A3R2EH58I8Q4YI
271,3.0,right,left,0.0,0.984,0.0,31.0,31.0,31.0,1.0,2864903351-286874.jpg,2238572663-35822.jpg,A3R2EH58I8Q4YI
272,1.0,left,left,1.0,0.9649,0.0,32.0,32.0,32.0,1.0,2512875899-126682.jpg,2460547536-274179.jpg,A3R2EH58I8Q4YI
273,3.0,right,left,0.0,2.0064,0.0,33.0,33.0,33.0,1.0,2901941438-69835.jpg,2460547508-51571.jpg,A3R2EH58I8Q4YI
274,2.0,left,left,1.0,4.7479,0.0,34.0,34.0,34.0,1.0,2452380832-348593.jpg,2238481813-19930.jpg,A3R2EH58I8Q4YI
275,3.0,left,left,1.0,2.3887,0.0,35.0,35.0,35.0,1.0,2592380177-354626.jpg,2238117096-228518.jpg,A3R2EH58I8Q4YI
276,2.0,right,left,0.0,1.3673,0.0,36.0,36.0,36.0,1.0,2883255450-215310.jpg,2883268471-290842.jpg,A3R2EH58I8Q4YI
277,2.0,left,left,1.0,0.8519,0.0,37.0,37.0,37.0,1.0,2901941401-292798.jpg,2981243412-370222.jpg,A3R2EH58I8Q4YI
278,3.0,right,left,0.0,2.2993,0.0,38.0,38.0,38.0,1.0,2460547536-274178.jpg,2449442529-124446.jpg,A3R2EH58I8Q4YI
279,2.0,left,left,1.0,1.8085,0.0,39.0,39.0,39.0,1.0,2868475410-213219.jpg,2238480803-19739.jpg,A3R2EH58I8Q4YI
280,1.0,left,right,0.0,1.8551,0.0,40.0,40.0,40.0,1.0,2986451363-73598.jpg,2237857458-1324.jpg,A3R2EH58I8Q4YI
281,3.0,left,left,1.0,1.3307,0.0,41.0,41.0,41.0,1.0,2238425482-313537.jpg,2898633480-217190.jpg,A3R2EH58I8Q4YI
282,2.0,right,left,0.0,1.9997,0.0,42.0,42.0,42.0,1.0,2575118671-277663.jpg,2898633421-291973.jpg,A3R2EH58I8Q4YI
283,1.0,left,left,1.0,1.4282,0.0,43.0,43.0,43.0,1.0,2986451363-73599.jpg,2898626385-216899.jpg,A3R2EH58I8Q4YI
284,2.0,left,left,1.0,1.3976,0.0,44.0,44.0,44.0,1.0,2981241414-145842.jpg,2874301404-139813.jpg,A3R2EH58I8Q4YI
285,1.0,left,left,1.0,1.5126,0.0,45.0,45.0,45.0,1.0,2898635428-69104.jpg,2446759803-49250.jpg,A3R2EH58I8Q4YI
286,2.0,left,left,1.0,1.2537,0.0,46.0,46.0,46.0,1.0,2874301407-363895.jpg,2986397322-371109.jpg,A3R2EH58I8Q4YI
287,1.0,right,right,1.0,1.5192,0.0,47.0,47.0,47.0,1.0,2864907361-287062.jpg,2901952513-70703.jpg,A3R2EH58I8Q4YI
288,2.0,left,left,1.0,1.3762,0.0,48.0,48.0,48.0,1.0,2898635427-367120.jpg,2868479517-363220.jpg,A3R2EH58I8Q4YI
289,3.0,right,left,0.0,2.4415,0.0,49.0,49.0,49.0,1.0,2964216376-294181.jpg,2901939379-143479.jpg,A3R2EH58I8Q4YI
290,1.0,right,left,0.0,1.2025,0.0,50.0,50.0,50.0,1.0,2883264367-365620.jpg,2238481928-19949.jpg,A3R2EH58I8Q4YI
291,1.0,left,right,0.0,1.1353,0.0,51.0,51.0,51.0,1.0,2238481198-19822.jpg,2862691449-137104.jpg,A3R2EH58I8Q4YI
292,2.0,left,right,0.0,1.4988,0.0,52.0,52.0,52.0,1.0,2458347385-199723.jpg,2427874554-121863.jpg,A3R2EH58I8Q4YI
293,3.0,right,left,0.0,1.126,0.0,53.0,53.0,53.0,1.0,2898619327-366362.jpg,2964216465-219242.jpg,A3R2EH58I8Q4YI
294,2.0,left,left,1.0,0.8111,0.0,54.0,54.0,54.0,1.0,2964213381-294060.jpg,2458348012-349114.jpg,A3R2EH58I8Q4YI
295,3.0,left,left,1.0,0.7949,0.0,55.0,55.0,55.0,1.0,2898624426-291546.jpg,2981235446-294900.jpg,A3R2EH58I8Q4YI
296,2.0,right,right,1.0,1.2526,0.0,56.0,56.0,56.0,1.0,2898618440-216547.jpg,2446759803-49249.jpg,A3R2EH58I8Q4YI
297,1.0,right,left,0.0,0.9759,0.0,57.0,57.0,57.0,1.0,2864902304-137862.jpg,2864910426-287204.jpg,A3R2EH58I8Q4YI
298,3.0,left,left,1.0,3.44,0.0,58.0,58.0,58.0,1.0,2883256307-365057.jpg,2864904453-63933.jpg,A3R2EH58I8Q4YI
299,2.0,left,left,1.0,1.2752,0.0,59.0,59.0,59.0,1.0,2901947423-70311.jpg,2238573447-333826.jpg,A3R2EH58I8Q4YI
300,2.0,right,right,1.0,2.1517,0.0,0.0,0.0,0.0,1.0,2446758985-197610.jpg,2901939379-143479.jpg,AE3GUAQKXSNQ4
301,3.0,left,left,1.0,0.9164,0.0,1.0,1.0,1.0,1.0,2901941401-292798.jpg,2898631468-68931.jpg,AE3GUAQKXSNQ4
302,3.0,right,left,0.0,0.9206,0.0,2.0,2.0,2.0,1.0,2238481198-19821.jpg,2901952513-70703.jpg,AE3GUAQKXSNQ4
303,3.0,left,left,1.0,0.8052,0.0,3.0,3.0,3.0,1.0,2592380177-354629.jpg,2512875587-350044.jpg,AE3GUAQKXSNQ4
304,3.0,left,left,1.0,0.8037,0.0,4.0,4.0,4.0,1.0,2449442529-124446.jpg,2460547536-274178.jpg,AE3GUAQKXSNQ4
305,2.0,left,left,1.0,1.7334,0.0,5.0,5.0,5.0,1.0,2883268471-290842.jpg,2883255450-215310.jpg,AE3GUAQKXSNQ4
306,3.0,right,right,1.0,1.0677,0.0,6.0,6.0,6.0,1.0,2898633480-217190.jpg,2238425482-313537.jpg,AE3GUAQKXSNQ4
307,1.0,left,right,0.0,0.946,0.0,7.0,7.0,7.0,1.0,2512875899-126682.jpg,2460547536-274179.jpg,AE3GUAQKXSNQ4
308,1.0,left,right,0.0,0.9212,0.0,8.0,8.0,8.0,1.0,2964222378-71332.jpg,2981240424-145794.jpg,AE3GUAQKXSNQ4
309,3.0,left,left,1.0,0.8276,0.0,9.0,9.0,9.0,1.0,2460547508-51571.jpg,2901941438-69835.jpg,AE3GUAQKXSNQ4
310,1.0,left,right,0.0,1.2243,0.0,10.0,10.0,10.0,1.0,2898633421-291973.jpg,2512876023-52283.jpg,AE3GUAQKXSNQ4
311,1.0,right,right,1.0,1.1464,0.0,11.0,11.0,11.0,1.0,2883266388-67750.jpg,2874299429-139695.jpg,AE3GUAQKXSNQ4
312,1.0,left,left,1.0,0.7038,0.0,12.0,12.0,12.0,1.0,2964218374-144967.jpg,2964218374-144968.jpg,AE3GUAQKXSNQ4
313,1.0,left,right,0.0,1.2219,0.0,13.0,13.0,13.0,1.0,2238480677-317399.jpg,2238481630-168218.jpg,AE3GUAQKXSNQ4
314,2.0,right,left,0.0,0.6977,0.0,14.0,14.0,14.0,1.0,2864901386-286797.jpg,2592380177-354626.jpg,AE3GUAQKXSNQ4
315,3.0,right,right,1.0,1.2903,0.0,15.0,15.0,15.0,1.0,2901951392-368654.jpg,2446759803-49249.jpg,AE3GUAQKXSNQ4
316,1.0,right,right,1.0,0.9326,0.0,16.0,16.0,16.0,1.0,2237856148-989.jpg,2898618390-216538.jpg,AE3GUAQKXSNQ4
317,3.0,right,right,1.0,1.6527,0.0,17.0,17.0,17.0,1.0,2864911457-362260.jpg,2874303365-214262.jpg,AE3GUAQKXSNQ4
318,3.0,left,right,0.0,1.6567,0.0,18.0,18.0,18.0,1.0,2446758985-197609.jpg,2898624426-291544.jpg,AE3GUAQKXSNQ4
319,3.0,right,right,1.0,0.931,0.0,19.0,19.0,19.0,1.0,2238531493-28260.jpg,2575120738-55529.jpg,AE3GUAQKXSNQ4
320,2.0,right,right,1.0,0.8895,0.0,20.0,20.0,20.0,1.0,2238480803-19739.jpg,2868475410-213219.jpg,AE3GUAQKXSNQ4
321,3.0,right,right,1.0,0.9397,0.0,21.0,21.0,21.0,1.0,2901947323-70275.jpg,2874301407-363895.jpg,AE3GUAQKXSNQ4
322,3.0,right,right,1.0,1.2804,0.0,22.0,22.0,22.0,1.0,2964220333-71258.jpg,2238580740-186218.jpg,AE3GUAQKXSNQ4
323,1.0,right,left,0.0,1.024,0.0,23.0,23.0,23.0,1.0,2898631394-142727.jpg,2460547467-349421.jpg,AE3GUAQKXSNQ4
324,1.0,right,right,1.0,1.5095,0.0,24.0,24.0,24.0,1.0,2237944827-301472.jpg,2898634397-367080.jpg,AE3GUAQKXSNQ4
325,1.0,right,left,0.0,1.3193,0.0,25.0,25.0,25.0,1.0,2986447306-296584.jpg,2874299429-139694.jpg,AE3GUAQKXSNQ4
326,1.0,right,right,1.0,1.0523,0.0,26.0,26.0,26.0,1.0,2238584894-113161.jpg,2238572663-35822.jpg,AE3GUAQKXSNQ4
327,1.0,left,left,1.0,0.0007,0.0,27.0,27.0,27.0,1.0,2238428357-313623.jpg,2238499057-320266.jpg,AE3GUAQKXSNQ4
328,2.0,right,left,0.0,0.2447,0.0,28.0,28.0,28.0,1.0,2238481813-19930.jpg,2452380832-348593.jpg,AE3GUAQKXSNQ4
329,2.0,left,right,0.0,0.0007,0.0,29.0,29.0,29.0,1.0,2986451363-73599.jpg,2860302315-210704.jpg,AE3GUAQKXSNQ4
330,2.0,left,right,0.0,0.1632,0.0,30.0,30.0,30.0,1.0,2964216465-219242.jpg,2864900319-137787.jpg,AE3GUAQKXSNQ4
331,3.0,left,right,0.0,0.1722,0.0,31.0,31.0,31.0,1.0,2964213381-294060.jpg,2964213381-294061.jpg,AE3GUAQKXSNQ4
332,3.0,right,left,0.0,0.1639,0.0,32.0,32.0,32.0,1.0,2994401319-148290.jpg,2452381505-199546.jpg,AE3GUAQKXSNQ4
333,2.0,right,right,1.0,0.1821,0.0,33.0,33.0,33.0,1.0,2883268412-365899.jpg,2864910426-287204.jpg,AE3GUAQKXSNQ4
334,1.0,right,right,1.0,0.1292,0.0,34.0,34.0,34.0,1.0,2237857458-1324.jpg,2986451363-73598.jpg,AE3GUAQKXSNQ4
335,2.0,left,left,1.0,0.0008,0.0,35.0,35.0,35.0,1.0,2883273443-68193.jpg,2460547508-51572.jpg,AE3GUAQKXSNQ4
336,1.0,left,right,0.0,0.1327,0.0,36.0,36.0,36.0,1.0,2864907432-362042.jpg,2864901420-212147.jpg,AE3GUAQKXSNQ4
337,1.0,left,left,1.0,0.0008,0.0,37.0,37.0,37.0,1.0,2460547467-349422.jpg,2898618440-216545.jpg,AE3GUAQKXSNQ4
338,2.0,left,left,1.0,0.2677,0.0,38.0,38.0,38.0,1.0,2898618444-142233.jpg,2238555262-330312.jpg,AE3GUAQKXSNQ4
339,2.0,right,right,1.0,0.1604,0.0,39.0,39.0,39.0,1.0,2981236443-71859.jpg,2898624426-291546.jpg,AE3GUAQKXSNQ4
340,2.0,left,left,1.0,0.0012,0.0,40.0,40.0,40.0,1.0,2238560245-182099.jpg,2874314526-289684.jpg,AE3GUAQKXSNQ4
341,3.0,right,right,1.0,0.1229,0.0,41.0,41.0,41.0,1.0,2864904453-63933.jpg,2883256307-365057.jpg,AE3GUAQKXSNQ4
342,1.0,left,left,1.0,0.0181,0.0,42.0,42.0,42.0,1.0,2981241414-145842.jpg,2238516618-25604.jpg,AE3GUAQKXSNQ4
343,3.0,left,left,1.0,0.1454,0.0,43.0,43.0,43.0,1.0,2898635427-367120.jpg,2898621427-366486.jpg,AE3GUAQKXSNQ4
344,2.0,left,left,1.0,0.1543,0.0,44.0,44.0,44.0,1.0,2901947423-70311.jpg,2238573447-333826.jpg,AE3GUAQKXSNQ4
345,1.0,right,right,1.0,0.0006,0.0,45.0,45.0,45.0,1.0,2452380171-273112.jpg,2449442529-124445.jpg,AE3GUAQKXSNQ4
346,1.0,right,left,0.0,0.1482,0.0,46.0,46.0,46.0,1.0,2579432519-130698.jpg,2981231403-71642.jpg,AE3GUAQKXSNQ4
347,3.0,left,right,0.0,0.0007,0.0,47.0,47.0,47.0,1.0,2883268412-365898.jpg,2238436252-314037.jpg,AE3GUAQKXSNQ4
348,2.0,left,right,0.0,0.1468,0.0,48.0,48.0,48.0,1.0,2868474407-362883.jpg,2981246400-220363.jpg,AE3GUAQKXSNQ4
349,3.0,right,right,1.0,0.1466,0.0,49.0,49.0,49.0,1.0,2981241419-145844.jpg,2238481928-19949.jpg,AE3GUAQKXSNQ4
350,2.0,left,left,1.0,0.0006,0.0,50.0,50.0,50.0,1.0,2898617468-68274.jpg,2901943387-368037.jpg,AE3GUAQKXSNQ4
351,1.0,right,right,1.0,0.133,0.0,51.0,51.0,51.0,1.0,2446759803-49250.jpg,2898635428-69104.jpg,AE3GUAQKXSNQ4
352,2.0,left,left,1.0,0.0008,0.0,52.0,52.0,52.0,1.0,2874307433-66280.jpg,2981246400-220365.jpg,AE3GUAQKXSNQ4
353,2.0,left,left,1.0,0.1535,0.0,53.0,53.0,53.0,1.0,2874302418-65978.jpg,2238481198-19823.jpg,AE3GUAQKXSNQ4
354,3.0,right,left,0.0,0.1525,0.0,54.0,54.0,54.0,1.0,2592380272-354673.jpg,2592379964-131054.jpg,AE3GUAQKXSNQ4
355,3.0,left,right,0.0,0.0008,0.0,55.0,55.0,55.0,1.0,2901939379-143480.jpg,2898632385-217139.jpg,AE3GUAQKXSNQ4
356,2.0,right,right,1.0,0.1365,0.0,56.0,56.0,56.0,1.0,2901941438-69836.jpg,2964223381-294447.jpg,AE3GUAQKXSNQ4
357,1.0,right,left,0.0,0.0008,0.0,57.0,57.0,57.0,1.0,2862691449-137104.jpg,2238481198-19822.jpg,AE3GUAQKXSNQ4
358,2.0,left,left,1.0,0.1654,0.0,58.0,58.0,58.0,1.0,2874302418-65979.jpg,2238480648-19714.jpg,AE3GUAQKXSNQ4
359,2.0,left,left,1.0,0.1865,0.0,59.0,59.0,59.0,1.0,2458347385-199723.jpg,2427874554-121863.jpg,AE3GUAQKXSNQ4
360,3.0,left,right,0.0,2.385,0.0,0.0,0.0,0.0,1.0,2238572663-35822.jpg,2864903351-286874.jpg,A1XPZRA2XD4GNF
361,1.0,left,left,1.0,0.6244,0.0,1.0,1.0,1.0,1.0,2868475410-213219.jpg,2901946465-218350.jpg,A1XPZRA2XD4GNF
362,1.0,right,right,1.0,1.4494,0.0,2.0,2.0,2.0,1.0,2460547536-274179.jpg,2512875899-126682.jpg,A1XPZRA2XD4GNF
363,1.0,left,left,1.0,0.2089,0.0,3.0,3.0,3.0,1.0,2460547467-349422.jpg,2898618440-216545.jpg,A1XPZRA2XD4GNF
364,1.0,left,right,0.0,0.5207,0.0,4.0,4.0,4.0,1.0,2449442529-124446.jpg,2446759803-49251.jpg,A1XPZRA2XD4GNF
365,2.0,right,left,0.0,0.5153,0.0,5.0,5.0,5.0,1.0,2901942443-69923.jpg,2874299429-139695.jpg,A1XPZRA2XD4GNF
366,3.0,left,right,0.0,0.4102,0.0,6.0,6.0,6.0,1.0,2898618390-216538.jpg,2575120609-129862.jpg,A1XPZRA2XD4GNF
367,3.0,left,left,1.0,0.4174,0.0,7.0,7.0,7.0,1.0,2901939379-143480.jpg,2898632385-217139.jpg,A1XPZRA2XD4GNF
368,3.0,right,right,1.0,0.7201,0.0,8.0,8.0,8.0,1.0,2864904453-63933.jpg,2883256307-365057.jpg,A1XPZRA2XD4GNF
369,3.0,left,left,1.0,0.7213,0.0,9.0,9.0,9.0,1.0,2901947423-70311.jpg,2238577590-185467.jpg,A1XPZRA2XD4GNF
370,1.0,right,right,1.0,0.8393,0.0,10.0,10.0,10.0,1.0,2862691449-137104.jpg,2238481198-19822.jpg,A1XPZRA2XD4GNF
371,3.0,left,left,1.0,0.7281,0.0,11.0,11.0,11.0,1.0,2964223381-294447.jpg,2898628438-68785.jpg,A1XPZRA2XD4GNF
372,1.0,right,right,1.0,0.3133,0.0,12.0,12.0,12.0,1.0,2238471391-240918.jpg,2238425482-313537.jpg,A1XPZRA2XD4GNF
373,2.0,right,left,0.0,0.4129,0.0,13.0,13.0,13.0,1.0,2864901386-286797.jpg,2592380177-354626.jpg,A1XPZRA2XD4GNF
374,1.0,left,right,0.0,0.3185,0.0,14.0,14.0,14.0,1.0,2446759803-49249.jpg,2446760601-272099.jpg,A1XPZRA2XD4GNF
375,3.0,right,left,0.0,0.3098,0.0,15.0,15.0,15.0,1.0,2898633321-291943.jpg,2874302418-65978.jpg,A1XPZRA2XD4GNF
376,3.0,right,right,1.0,0.7284,0.0,16.0,16.0,16.0,1.0,2238550049-105691.jpg,2898633421-291973.jpg,A1XPZRA2XD4GNF
377,2.0,left,left,1.0,0.4175,0.0,17.0,17.0,17.0,1.0,2883273443-68193.jpg,2460547508-51572.jpg,A1XPZRA2XD4GNF
378,3.0,right,right,1.0,0.8267,0.0,18.0,18.0,18.0,1.0,2427873848-47312.jpg,2981241414-145842.jpg,A1XPZRA2XD4GNF
379,2.0,right,left,0.0,0.417,0.0,19.0,19.0,19.0,1.0,2981246400-220363.jpg,2868474407-362883.jpg,A1XPZRA2XD4GNF
380,3.0,right,right,1.0,0.4198,0.0,20.0,20.0,20.0,1.0,2981235446-294901.jpg,2460547467-349421.jpg,A1XPZRA2XD4GNF
381,1.0,left,left,1.0,0.5222,0.0,21.0,21.0,21.0,1.0,2981231403-71642.jpg,2579432519-130698.jpg,A1XPZRA2XD4GNF
382,1.0,left,right,0.0,0.5132,0.0,22.0,22.0,22.0,1.0,2898635427-367120.jpg,2964221435-219434.jpg,A1XPZRA2XD4GNF
383,2.0,right,right,1.0,0.7335,0.0,23.0,23.0,23.0,1.0,2446758985-197610.jpg,2901939379-143479.jpg,A1XPZRA2XD4GNF
384,1.0,right,left,0.0,0.3136,0.0,24.0,24.0,24.0,1.0,2898618327-366317.jpg,2901941401-292798.jpg,A1XPZRA2XD4GNF
385,1.0,left,right,0.0,0.3134,0.0,25.0,25.0,25.0,1.0,2864907432-362042.jpg,2864901420-212147.jpg,A1XPZRA2XD4GNF
386,1.0,right,left,0.0,0.4219,0.0,26.0,26.0,26.0,1.0,2964218374-144968.jpg,2964218374-144967.jpg,A1XPZRA2XD4GNF
387,2.0,right,right,1.0,0.4056,0.0,27.0,27.0,27.0,1.0,2981236443-71859.jpg,2898624426-291546.jpg,A1XPZRA2XD4GNF
388,2.0,right,left,0.0,0.2091,0.0,28.0,28.0,28.0,1.0,2901933382-367209.jpg,2964222378-71332.jpg,A1XPZRA2XD4GNF
389,2.0,left,right,0.0,0.4097,0.0,29.0,29.0,29.0,1.0,2446758985-197609.jpg,2864909447-362144.jpg,A1XPZRA2XD4GNF
390,3.0,left,left,1.0,1.2432,0.0,30.0,30.0,30.0,1.0,2592379964-131054.jpg,2592380272-354673.jpg,A1XPZRA2XD4GNF
391,1.0,left,right,0.0,0.9184,0.0,31.0,31.0,31.0,1.0,2898634397-367080.jpg,2237944827-301472.jpg,A1XPZRA2XD4GNF
392,2.0,right,left,0.0,0.3163,0.0,32.0,32.0,32.0,1.0,2981232437-369759.jpg,2460547508-51571.jpg,A1XPZRA2XD4GNF
393,2.0,left,right,0.0,0.3224,0.0,33.0,33.0,33.0,1.0,2986451363-73598.jpg,2984628361-295995.jpg,A1XPZRA2XD4GNF
394,1.0,right,left,0.0,0.4202,0.0,34.0,34.0,34.0,1.0,2901946439-144040.jpg,2898617468-68274.jpg,A1XPZRA2XD4GNF
395,3.0,right,right,1.0,0.321,0.0,35.0,35.0,35.0,1.0,2237858942-299356.jpg,2452380832-348593.jpg,A1XPZRA2XD4GNF
396,1.0,right,left,0.0,0.3199,0.0,36.0,36.0,36.0,1.0,2984615358-72439.jpg,2874307433-66280.jpg,A1XPZRA2XD4GNF
397,2.0,right,right,1.0,0.3121,0.0,37.0,37.0,37.0,1.0,2458348012-349114.jpg,2964213381-294060.jpg,A1XPZRA2XD4GNF
398,3.0,left,left,1.0,2.3818,0.0,38.0,38.0,38.0,1.0,2874302418-65979.jpg,2238578544-111698.jpg,A1XPZRA2XD4GNF
399,3.0,left,right,0.0,0.4132,0.0,39.0,39.0,39.0,1.0,2449442529-124445.jpg,2898632385-217137.jpg,A1XPZRA2XD4GNF
400,2.0,right,left,0.0,0.3157,0.0,40.0,40.0,40.0,1.0,2238573546-258454.jpg,2238480677-317399.jpg,A1XPZRA2XD4GNF
401,2.0,left,right,0.0,0.4134,0.0,41.0,41.0,41.0,1.0,2238580740-186218.jpg,2238521193-26285.jpg,A1XPZRA2XD4GNF
402,1.0,left,left,1.0,0.3188,0.0,42.0,42.0,42.0,1.0,2458347385-199723.jpg,2238480434-93829.jpg,A1XPZRA2XD4GNF
403,1.0,left,right,0.0,0.311,0.0,43.0,43.0,43.0,1.0,2874301407-363895.jpg,2446761374-124213.jpg,A1XPZRA2XD4GNF
404,2.0,right,left,0.0,0.3098,0.0,44.0,44.0,44.0,1.0,2575120738-55528.jpg,2575120738-55529.jpg,A1XPZRA2XD4GNF
405,1.0,left,right,0.0,0.2139,0.0,45.0,45.0,45.0,1.0,2898618444-142233.jpg,2898631359-142721.jpg,A1XPZRA2XD4GNF
406,2.0,left,left,1.0,0.3135,0.0,46.0,46.0,46.0,1.0,2898635428-69104.jpg,2901943411-292945.jpg,A1XPZRA2XD4GNF
407,3.0,right,left,0.0,0.5143,0.0,47.0,47.0,47.0,1.0,2883266367-365742.jpg,2874299429-139694.jpg,A1XPZRA2XD4GNF
408,2.0,left,right,0.0,0.4095,0.0,48.0,48.0,48.0,1.0,2986451363-73599.jpg,2860302315-210704.jpg,A1XPZRA2XD4GNF
409,3.0,right,left,0.0,0.2088,0.0,49.0,49.0,49.0,1.0,2981241419-145844.jpg,2238481928-19949.jpg,A1XPZRA2XD4GNF
410,3.0,right,right,1.0,0.424,0.0,50.0,50.0,50.0,1.0,2238436252-314037.jpg,2883268412-365898.jpg,A1XPZRA2XD4GNF
411,3.0,left,left,1.0,0.6291,0.0,51.0,51.0,51.0,1.0,2452381505-199546.jpg,2994401319-148290.jpg,A1XPZRA2XD4GNF
412,2.0,right,right,1.0,0.3132,0.0,52.0,52.0,52.0,1.0,2874314526-289684.jpg,2238560245-182099.jpg,A1XPZRA2XD4GNF
413,1.0,right,left,0.0,0.2122,0.0,53.0,53.0,53.0,1.0,2864902304-137862.jpg,2864910426-287204.jpg,A1XPZRA2XD4GNF
414,2.0,left,right,0.0,0.3153,0.0,54.0,54.0,54.0,1.0,2883268471-290842.jpg,2883255450-215310.jpg,A1XPZRA2XD4GNF
415,3.0,right,left,0.0,0.6198,0.0,55.0,55.0,55.0,1.0,2238481198-19821.jpg,2901952513-70703.jpg,A1XPZRA2XD4GNF
416,1.0,right,right,1.0,0.4122,0.0,56.0,56.0,56.0,1.0,2898633421-291974.jpg,2592380177-354629.jpg,A1XPZRA2XD4GNF
417,3.0,left,right,0.0,23.6439,0.0,57.0,57.0,57.0,1.0,2964216465-219242.jpg,2898619327-366362.jpg,A1XPZRA2XD4GNF
418,2.0,right,left,0.0,0.8351,0.0,58.0,58.0,58.0,1.0,2984615361-295509.jpg,2238428357-313623.jpg,A1XPZRA2XD4GNF
419,2.0,right,right,1.0,1.0484,0.0,59.0,59.0,59.0,1.0,2238563377-332054.jpg,2874303365-214262.jpg,A1XPZRA2XD4GNF
420,3.0,left,left,1.0,7.6693,0.0,0.0,0.0,0.0,1.0,2901939379-143479.jpg,2964216376-294181.jpg,A26LH08CVCL8G6
421,1.0,left,left,1.0,2.9727,0.0,1.0,1.0,1.0,1.0,2898624426-291546.jpg,2964218432-369263.jpg,A26LH08CVCL8G6
422,3.0,right,right,1.0,1.731,0.0,2.0,2.0,2.0,1.0,2238480980-168129.jpg,2238560245-182099.jpg,A26LH08CVCL8G6
423,1.0,right,right,1.0,0.8715,0.0,3.0,3.0,3.0,1.0,2898626385-216899.jpg,2986451363-73599.jpg,A26LH08CVCL8G6
424,1.0,left,left,1.0,1.2791,0.0,4.0,4.0,4.0,1.0,2868475410-213219.jpg,2901946465-218350.jpg,A26LH08CVCL8G6
425,3.0,right,left,0.0,0.7355,0.0,5.0,5.0,5.0,1.0,2964217461-294238.jpg,2898634397-367080.jpg,A26LH08CVCL8G6
426,3.0,right,right,1.0,0.8582,0.0,6.0,6.0,6.0,1.0,2864903351-286874.jpg,2238572663-35822.jpg,A26LH08CVCL8G6
427,1.0,right,right,1.0,0.4418,0.0,7.0,7.0,7.0,1.0,2898631359-142721.jpg,2898618444-142233.jpg,A26LH08CVCL8G6
428,3.0,right,right,1.0,0.445,0.0,8.0,8.0,8.0,1.0,2964213381-294061.jpg,2964213381-294060.jpg,A26LH08CVCL8G6
429,1.0,right,right,1.0,1.0153,0.0,9.0,9.0,9.0,1.0,2864902304-137862.jpg,2864910426-287204.jpg,A26LH08CVCL8G6
430,2.0,left,right,0.0,0.415599999,0.0,10.0,10.0,10.0,1.0,2238481198-19822.jpg,2901946436-293242.jpg,A26LH08CVCL8G6
431,1.0,left,right,0.0,0.5683,0.0,11.0,11.0,11.0,1.0,2449442529-124445.jpg,2452380171-273112.jpg,A26LH08CVCL8G6
432,3.0,left,right,0.0,0.6991,0.0,12.0,12.0,12.0,1.0,2460547467-349422.jpg,2864909447-362146.jpg,A26LH08CVCL8G6
433,2.0,right,right,1.0,0.4245,0.0,13.0,13.0,13.0,1.0,2981243412-370222.jpg,2901941401-292798.jpg,A26LH08CVCL8G6
434,1.0,right,right,1.0,0.5805,0.0,14.0,14.0,14.0,1.0,2964218374-144968.jpg,2964218374-144967.jpg,A26LH08CVCL8G6
435,3.0,left,right,0.0,0.2907,0.0,15.0,15.0,15.0,1.0,2883268412-365898.jpg,2238436252-314037.jpg,A26LH08CVCL8G6
436,2.0,right,right,1.0,0.5778,0.0,16.0,16.0,16.0,1.0,2864900357-361688.jpg,2238481928-19949.jpg,A26LH08CVCL8G6
437,3.0,right,right,1.0,0.281700001,0.0,17.0,17.0,17.0,1.0,2427873848-47312.jpg,2981241414-145842.jpg,A26LH08CVCL8G6
438,3.0,right,right,1.0,0.2828,0.0,18.0,18.0,18.0,1.0,2901947323-70275.jpg,2874301407-363895.jpg,A26LH08CVCL8G6
439,1.0,right,right,1.0,0.005,0.0,19.0,19.0,19.0,1.0,2864907361-287062.jpg,2901952513-70703.jpg,A26LH08CVCL8G6
440,1.0,left,right,0.0,0.297099999,0.0,20.0,20.0,20.0,1.0,2512875899-126682.jpg,2460547536-274179.jpg,A26LH08CVCL8G6
441,2.0,left,right,0.0,0.0061,0.0,21.0,21.0,21.0,1.0,2592380177-354629.jpg,2579432534-130704.jpg,A26LH08CVCL8G6
442,2.0,left,right,0.0,0.2898,0.0,22.0,22.0,22.0,1.0,2868474407-362883.jpg,2981246400-220363.jpg,A26LH08CVCL8G6
443,1.0,right,right,1.0,0.0044,0.0,23.0,23.0,23.0,1.0,2883266388-67750.jpg,2874299429-139695.jpg,A26LH08CVCL8G6
444,2.0,right,right,1.0,0.005599999,0.0,24.0,24.0,24.0,1.0,2575118671-277663.jpg,2898633421-291973.jpg,A26LH08CVCL8G6
445,1.0,left,right,0.0,0.1503,0.0,25.0,25.0,25.0,1.0,2592379964-131054.jpg,2575963989-130576.jpg,A26LH08CVCL8G6
446,1.0,left,right,0.0,0.1468,0.0,26.0,26.0,26.0,1.0,2452381505-199546.jpg,2901938432-367627.jpg,A26LH08CVCL8G6
447,1.0,left,right,0.0,0.2906,0.0,27.0,27.0,27.0,1.0,2883256307-365057.jpg,2611628310-206388.jpg,A26LH08CVCL8G6
448,2.0,left,right,0.0,0.156400001,0.0,28.0,28.0,28.0,1.0,2898635427-367120.jpg,2868479517-363220.jpg,A26LH08CVCL8G6
449,3.0,left,right,0.0,0.1518,0.0,29.0,29.0,29.0,1.0,2446759803-49249.jpg,2901951392-368654.jpg,A26LH08CVCL8G6
450,3.0,left,right,0.0,0.1487,0.0,30.0,30.0,30.0,1.0,2446758985-197609.jpg,2898624426-291544.jpg,A26LH08CVCL8G6
451,3.0,right,right,1.0,0.151599999,0.0,31.0,31.0,31.0,1.0,2898633480-217190.jpg,2238425482-313537.jpg,A26LH08CVCL8G6
452,2.0,right,right,1.0,0.1477,0.0,32.0,32.0,32.0,1.0,2864900319-137787.jpg,2964216465-219242.jpg,A26LH08CVCL8G6
453,3.0,right,right,1.0,0.0073,0.0,33.0,33.0,33.0,1.0,2986408339-146952.jpg,2238428357-313623.jpg,A26LH08CVCL8G6
454,1.0,left,right,0.0,0.1661,0.0,34.0,34.0,34.0,1.0,2874303365-214262.jpg,2274829821-263682.jpg,A26LH08CVCL8G6
455,2.0,right,right,1.0,0.005,0.0,35.0,35.0,35.0,1.0,2901933382-367209.jpg,2964222378-71332.jpg,A26LH08CVCL8G6
456,3.0,right,right,1.0,0.437599999,0.0,36.0,36.0,36.0,1.0,2883266367-365742.jpg,2874299429-139694.jpg,A26LH08CVCL8G6
457,1.0,left,right,0.0,0.004799999,0.0,37.0,37.0,37.0,1.0,2238480677-317399.jpg,2238481630-168218.jpg,A26LH08CVCL8G6
458,2.0,right,right,1.0,0.0064,0.0,38.0,38.0,38.0,1.0,2238481198-19823.jpg,2874302418-65978.jpg,A26LH08CVCL8G6
459,2.0,right,right,1.0,0.1488,0.0,39.0,39.0,39.0,1.0,2981229442-369621.jpg,2901939379-143480.jpg,A26LH08CVCL8G6
460,2.0,left,right,0.0,0.0053,0.0,40.0,40.0,40.0,1.0,2238580740-186218.jpg,2238521193-26285.jpg,A26LH08CVCL8G6
461,2.0,left,right,0.0,0.0065,0.0,41.0,41.0,41.0,1.0,2460547508-51571.jpg,2981232437-369759.jpg,A26LH08CVCL8G6
462,3.0,right,right,1.0,0.2972,0.0,42.0,42.0,42.0,1.0,2238577590-185467.jpg,2901947423-70311.jpg,A26LH08CVCL8G6
463,3.0,left,right,0.0,0.156,0.0,43.0,43.0,43.0,1.0,2883273443-68193.jpg,2898627427-366763.jpg,A26LH08CVCL8G6
464,1.0,left,right,0.0,0.0054,0.0,44.0,44.0,44.0,1.0,2964223381-294447.jpg,2427874231-269884.jpg,A26LH08CVCL8G6
465,2.0,left,right,0.0,0.0061,0.0,45.0,45.0,45.0,1.0,2898635428-69104.jpg,2901943411-292945.jpg,A26LH08CVCL8G6
466,3.0,left,right,0.0,0.0057,0.0,46.0,46.0,46.0,1.0,2575120738-55529.jpg,2238531493-28260.jpg,A26LH08CVCL8G6
467,2.0,left,right,0.0,0.1561,0.0,47.0,47.0,47.0,1.0,2874307433-66280.jpg,2981246400-220365.jpg,A26LH08CVCL8G6
468,2.0,right,right,1.0,0.0049,0.0,48.0,48.0,48.0,1.0,2460547536-274181.jpg,2449442529-124446.jpg,A26LH08CVCL8G6
469,1.0,left,right,0.0,0.0057,0.0,49.0,49.0,49.0,1.0,2898617468-68274.jpg,2901946439-144040.jpg,A26LH08CVCL8G6
470,2.0,left,right,0.0,0.2911,0.0,50.0,50.0,50.0,1.0,2864907432-362042.jpg,2901947423-70310.jpg,A26LH08CVCL8G6
471,2.0,right,right,1.0,0.0057,0.0,51.0,51.0,51.0,1.0,2427874554-121863.jpg,2458347385-199723.jpg,A26LH08CVCL8G6
472,1.0,right,right,1.0,0.0048,0.0,52.0,52.0,52.0,1.0,2238576792-334659.jpg,2592380177-354626.jpg,A26LH08CVCL8G6
473,2.0,left,right,0.0,0.0057,0.0,53.0,53.0,53.0,1.0,2460547467-349421.jpg,2452380166-273110.jpg,A26LH08CVCL8G6
474,1.0,left,right,0.0,0.150299999,0.0,54.0,54.0,54.0,1.0,2883268471-290842.jpg,2883268471-290843.jpg,A26LH08CVCL8G6
475,3.0,left,right,0.0,0.0057,0.0,55.0,55.0,55.0,1.0,2874302418-65979.jpg,2238578544-111698.jpg,A26LH08CVCL8G6
476,2.0,left,right,0.0,0.005400001,0.0,56.0,56.0,56.0,1.0,2452380832-348593.jpg,2238481813-19930.jpg,A26LH08CVCL8G6
477,3.0,right,right,1.0,0.152400001,0.0,57.0,57.0,57.0,1.0,2427873763-47290.jpg,2981231403-71642.jpg,A26LH08CVCL8G6
478,3.0,left,right,0.0,0.0053,0.0,58.0,58.0,58.0,1.0,2898618390-216538.jpg,2575120609-129862.jpg,A26LH08CVCL8G6
479,1.0,right,right,1.0,0.291700001,0.0,59.0,59.0,59.0,1.0,2237857458-1324.jpg,2986451363-73598.jpg,A26LH08CVCL8G6
480,1.0,right,left,0.0,1.6151,0.0,0.0,0.0,0.0,1.0,2446759803-49250.jpg,2898635428-69104.jpg,ALYR5CI2SM2JC
481,2.0,left,left,1.0,1.8475,0.0,1.0,1.0,1.0,1.0,2238425482-313537.jpg,2238436322-314047.jpg,ALYR5CI2SM2JC
482,2.0,left,right,0.0,2.3144,0.0,2.0,2.0,2.0,1.0,2575120738-55529.jpg,2575120738-55528.jpg,ALYR5CI2SM2JC
483,3.0,left,left,1.0,1.7384,0.0,3.0,3.0,3.0,1.0,2238560245-182099.jpg,2238480980-168129.jpg,ALYR5CI2SM2JC
484,3.0,right,right,1.0,2.6335,0.0,4.0,4.0,4.0,1.0,2458347252-348911.jpg,2458347385-199723.jpg,ALYR5CI2SM2JC
485,2.0,left,left,1.0,1.4985,0.0,5.0,5.0,5.0,1.0,2460547467-349422.jpg,2868487415-213924.jpg,ALYR5CI2SM2JC
486,1.0,right,right,1.0,1.6035,0.0,6.0,6.0,6.0,1.0,2452380166-273109.jpg,2460547508-51571.jpg,ALYR5CI2SM2JC
487,2.0,right,right,1.0,2.1823,0.0,7.0,7.0,7.0,1.0,2238480803-19739.jpg,2868475410-213219.jpg,ALYR5CI2SM2JC
488,2.0,right,right,1.0,2.0784,0.0,8.0,8.0,8.0,1.0,2874301404-139813.jpg,2981241414-145842.jpg,ALYR5CI2SM2JC
489,1.0,left,left,1.0,1.4778,0.0,9.0,9.0,9.0,1.0,2986451363-73598.jpg,2237857458-1324.jpg,ALYR5CI2SM2JC
490,3.0,left,left,1.0,1.3884,0.0,10.0,10.0,10.0,1.0,2592380177-354626.jpg,2238117096-228518.jpg,ALYR5CI2SM2JC
491,3.0,right,right,1.0,1.9767,0.0,11.0,11.0,11.0,1.0,2981231422-369714.jpg,2874307433-66280.jpg,ALYR5CI2SM2JC
492,2.0,right,right,1.0,1.7885,0.0,12.0,12.0,12.0,1.0,2238480648-19714.jpg,2874302418-65979.jpg,ALYR5CI2SM2JC
493,2.0,left,left,1.0,1.9485,0.0,13.0,13.0,13.0,1.0,2592380177-354629.jpg,2579432534-130704.jpg,ALYR5CI2SM2JC
494,3.0,left,right,0.0,1.2942,0.0,14.0,14.0,14.0,1.0,2864910426-287204.jpg,2901939433-69672.jpg,ALYR5CI2SM2JC
495,3.0,right,right,1.0,1.8982,0.0,15.0,15.0,15.0,1.0,2898633321-291943.jpg,2874302418-65978.jpg,ALYR5CI2SM2JC
496,2.0,right,left,0.0,1.5433,0.0,16.0,16.0,16.0,1.0,2883255450-215310.jpg,2883268471-290842.jpg,ALYR5CI2SM2JC
497,2.0,left,right,0.0,3.4785,0.0,17.0,17.0,17.0,1.0,2964223381-294447.jpg,2901941438-69836.jpg,ALYR5CI2SM2JC
498,2.0,right,right,1.0,1.8552,0.0,18.0,18.0,18.0,1.0,2901942443-69923.jpg,2874299429-139695.jpg,ALYR5CI2SM2JC
499,2.0,right,right,1.0,1.3409,0.0,19.0,19.0,19.0,1.0,2898632385-217138.jpg,2452381505-199546.jpg,ALYR5CI2SM2JC
500,1.0,left,left,1.0,1.6193,0.0,20.0,20.0,20.0,1.0,2446759803-49249.jpg,2446760601-272099.jpg,ALYR5CI2SM2JC
501,1.0,left,left,1.0,0.9892,0.0,21.0,21.0,21.0,1.0,2238428357-313623.jpg,2238499057-320266.jpg,ALYR5CI2SM2JC
502,3.0,left,left,1.0,1.1457,0.0,22.0,22.0,22.0,1.0,2901939379-143479.jpg,2964216376-294181.jpg,ALYR5CI2SM2JC
503,1.0,right,left,0.0,2.4981,0.0,23.0,23.0,23.0,1.0,2238328478-11678.jpg,2452380832-348593.jpg,ALYR5CI2SM2JC
504,3.0,right,right,1.0,1.0494,0.0,24.0,24.0,24.0,1.0,2898632385-217137.jpg,2449442529-124445.jpg,ALYR5CI2SM2JC
505,2.0,right,left,0.0,1.0712,0.0,25.0,25.0,25.0,1.0,2964210336-293945.jpg,2883256307-365057.jpg,ALYR5CI2SM2JC
506,1.0,right,right,1.0,1.4453,0.0,26.0,26.0,26.0,1.0,2274829821-263682.jpg,2874303365-214262.jpg,ALYR5CI2SM2JC
507,1.0,right,right,1.0,0.9874,0.0,27.0,27.0,27.0,1.0,2238544191-252422.jpg,2964216465-219242.jpg,ALYR5CI2SM2JC
508,1.0,left,right,0.0,2.2264,0.0,28.0,28.0,28.0,1.0,2964213381-294060.jpg,2981244394-145974.jpg,ALYR5CI2SM2JC
509,1.0,right,right,1.0,1.8388,0.0,29.0,29.0,29.0,1.0,2579432519-130698.jpg,2981231403-71642.jpg,ALYR5CI2SM2JC
510,1.0,left,left,1.0,1.1472,0.0,30.0,30.0,30.0,1.0,2864907432-362042.jpg,2864901420-212147.jpg,ALYR5CI2SM2JC
511,2.0,right,right,1.0,1.6994,0.0,31.0,31.0,31.0,1.0,2238571930-184143.jpg,2238572663-35822.jpg,ALYR5CI2SM2JC
512,3.0,right,right,1.0,1.3745,0.0,32.0,32.0,32.0,1.0,2981235446-294901.jpg,2460547467-349421.jpg,ALYR5CI2SM2JC
513,1.0,left,left,1.0,1.0469,0.0,33.0,33.0,33.0,1.0,2446758985-197609.jpg,2981240424-145795.jpg,ALYR5CI2SM2JC
514,1.0,right,right,1.0,1.5631,0.0,34.0,34.0,34.0,1.0,2864907361-287062.jpg,2901952513-70703.jpg,ALYR5CI2SM2JC
515,1.0,right,right,1.0,1.0212,0.0,35.0,35.0,35.0,1.0,2446759803-49251.jpg,2449442529-124446.jpg,ALYR5CI2SM2JC
516,3.0,left,left,1.0,1.166,0.0,36.0,36.0,36.0,1.0,2964218374-144967.jpg,2981231446-294732.jpg,ALYR5CI2SM2JC
517,3.0,left,left,1.0,1.4145,0.0,37.0,37.0,37.0,1.0,2901941401-292798.jpg,2898631468-68931.jpg,ALYR5CI2SM2JC
518,3.0,right,left,0.0,1.2659,0.0,38.0,38.0,38.0,1.0,2238434559-90406.jpg,2986451363-73599.jpg,ALYR5CI2SM2JC
519,1.0,left,right,0.0,2.0646,0.0,39.0,39.0,39.0,1.0,2964222378-71332.jpg,2981240424-145794.jpg,ALYR5CI2SM2JC
520,2.0,right,left,0.0,2.1772,0.0,40.0,40.0,40.0,1.0,2984615361-295510.jpg,2883268412-365898.jpg,ALYR5CI2SM2JC
521,1.0,right,right,1.0,2.8458,0.0,41.0,41.0,41.0,1.0,2862691449-137104.jpg,2238481198-19822.jpg,ALYR5CI2SM2JC
522,2.0,left,left,1.0,2.2921,0.0,42.0,42.0,42.0,1.0,2874301407-363895.jpg,2986397322-371109.jpg,ALYR5CI2SM2JC
523,2.0,left,left,1.0,3.4813,0.0,43.0,43.0,43.0,1.0,2901947423-70311.jpg,2238573447-333826.jpg,ALYR5CI2SM2JC
524,3.0,right,left,0.0,4.1546,0.0,44.0,44.0,44.0,1.0,2238550049-105691.jpg,2898633421-291973.jpg,ALYR5CI2SM2JC
525,2.0,left,left,1.0,1.0775,0.0,45.0,45.0,45.0,1.0,2592379964-131054.jpg,2238479053-19457.jpg,ALYR5CI2SM2JC
526,3.0,right,right,1.0,2.2607,0.0,46.0,46.0,46.0,1.0,2575120609-129862.jpg,2898618390-216538.jpg,ALYR5CI2SM2JC
527,3.0,left,left,1.0,2.1674,0.0,47.0,47.0,47.0,1.0,2898624426-291546.jpg,2981235446-294900.jpg,ALYR5CI2SM2JC
528,1.0,left,left,1.0,4.4671,0.0,48.0,48.0,48.0,1.0,2874299429-139694.jpg,2986447306-296584.jpg,ALYR5CI2SM2JC
529,2.0,left,left,1.0,5.9704,0.0,49.0,49.0,49.0,1.0,2898618444-142233.jpg,2238555262-330312.jpg,ALYR5CI2SM2JC
530,3.0,left,left,1.0,1.6248,0.0,50.0,50.0,50.0,1.0,2898635427-367120.jpg,2898621427-366486.jpg,ALYR5CI2SM2JC
531,1.0,left,left,1.0,2.2769,0.0,51.0,51.0,51.0,1.0,2883273443-68193.jpg,2883254439-140940.jpg,ALYR5CI2SM2JC
532,3.0,left,left,1.0,2.1565,0.0,52.0,52.0,52.0,1.0,2512875899-126682.jpg,2986447332-371497.jpg,ALYR5CI2SM2JC
533,1.0,right,left,0.0,1.0255,0.0,53.0,53.0,53.0,1.0,2901942428-69919.jpg,2901939379-143480.jpg,ALYR5CI2SM2JC
534,3.0,right,left,0.0,0.8921,0.0,54.0,54.0,54.0,1.0,2964207374-144577.jpg,2898617468-68274.jpg,ALYR5CI2SM2JC
535,3.0,left,left,1.0,3.3591,0.0,55.0,55.0,55.0,1.0,2238481928-19949.jpg,2981241419-145844.jpg,ALYR5CI2SM2JC
536,2.0,left,left,1.0,1.3389,0.0,56.0,56.0,56.0,1.0,2898634397-367080.jpg,2901934408-69289.jpg,ALYR5CI2SM2JC
537,3.0,right,right,1.0,1.274,0.0,57.0,57.0,57.0,1.0,2238480278-19661.jpg,2238480677-317399.jpg,ALYR5CI2SM2JC
538,2.0,right,right,1.0,1.865,0.0,58.0,58.0,58.0,1.0,2238521193-26285.jpg,2238580740-186218.jpg,ALYR5CI2SM2JC
539,1.0,left,left,1.0,0.9005,0.0,59.0,59.0,59.0,1.0,2868474407-362883.jpg,2460547732-349518.jpg,ALYR5CI2SM2JC
540,3.0,left,left,1.0,3.2672,0.0,0.0,0.0,0.0,1.0,2238560245-182099.jpg,2238480980-168129.jpg,A3REPTAHMY4QO
541,1.0,left,left,1.0,5.5163,0.0,1.0,1.0,1.0,1.0,2986451363-73598.jpg,2237857458-1324.jpg,A3REPTAHMY4QO
542,2.0,right,right,1.0,13.9342,0.0,2.0,2.0,2.0,1.0,2238571930-184143.jpg,2238572663-35822.jpg,A3REPTAHMY4QO
543,2.0,left,right,0.0,2.0913,0.0,3.0,3.0,3.0,1.0,2446759803-49249.jpg,2898618440-216547.jpg,A3REPTAHMY4QO
544,3.0,left,left,1.0,1.7135,0.0,4.0,4.0,4.0,1.0,2964216465-219242.jpg,2898619327-366362.jpg,A3REPTAHMY4QO
545,1.0,left,right,0.0,2.3088,0.0,5.0,5.0,5.0,1.0,2238481928-19949.jpg,2883264367-365620.jpg,A3REPTAHMY4QO
546,1.0,left,left,1.0,1.8162,0.0,6.0,6.0,6.0,1.0,2460547467-349422.jpg,2898618440-216545.jpg,A3REPTAHMY4QO
547,2.0,left,right,0.0,1.6065,0.0,7.0,7.0,7.0,1.0,2901941401-292798.jpg,2981243412-370222.jpg,A3REPTAHMY4QO
548,3.0,left,left,1.0,1.5098,0.0,8.0,8.0,8.0,1.0,2592380177-354629.jpg,2512875587-350044.jpg,A3REPTAHMY4QO
549,2.0,left,left,1.0,1.3262,0.0,9.0,9.0,9.0,1.0,2592380177-354626.jpg,2864901386-286797.jpg,A3REPTAHMY4QO
550,2.0,left,right,0.0,2.1413,0.0,10.0,10.0,10.0,1.0,2238425482-313537.jpg,2238436322-314047.jpg,A3REPTAHMY4QO
551,1.0,right,right,1.0,1.647,0.0,11.0,11.0,11.0,1.0,2864907361-287062.jpg,2901952513-70703.jpg,A3REPTAHMY4QO
552,2.0,left,left,1.0,1.6829,0.0,12.0,12.0,12.0,1.0,2964213381-294060.jpg,2458348012-349114.jpg,A3REPTAHMY4QO
553,3.0,right,right,1.0,1.2203,0.0,13.0,13.0,13.0,1.0,2898632385-217137.jpg,2449442529-124445.jpg,A3REPTAHMY4QO
554,3.0,right,right,1.0,1.5192,0.0,14.0,14.0,14.0,1.0,2898618444-142232.jpg,2898618444-142233.jpg,A3REPTAHMY4QO
555,3.0,right,left,0.0,1.6611,0.0,15.0,15.0,15.0,1.0,2994401319-148290.jpg,2452381505-199546.jpg,A3REPTAHMY4QO
556,3.0,left,left,1.0,1.5024,0.0,16.0,16.0,16.0,1.0,2901939379-143479.jpg,2964216376-294181.jpg,A3REPTAHMY4QO
557,1.0,left,left,1.0,1.2834,0.0,17.0,17.0,17.0,1.0,2883273443-68193.jpg,2883254439-140940.jpg,A3REPTAHMY4QO
558,1.0,left,left,1.0,1.5107,0.0,18.0,18.0,18.0,1.0,2575120738-55529.jpg,2864906345-212360.jpg,A3REPTAHMY4QO
559,3.0,left,right,0.0,1.5942,0.0,19.0,19.0,19.0,1.0,2874302418-65979.jpg,2238578544-111698.jpg,A3REPTAHMY4QO
560,1.0,right,left,0.0,1.744,0.0,20.0,20.0,20.0,1.0,2984626312-370849.jpg,2883268412-365898.jpg,A3REPTAHMY4QO
561,3.0,left,left,1.0,1.2362,0.0,21.0,21.0,21.0,1.0,2238428357-313623.jpg,2986408339-146952.jpg,A3REPTAHMY4QO
562,2.0,right,right,1.0,1.577,0.0,22.0,22.0,22.0,1.0,2238479053-19457.jpg,2592379964-131054.jpg,A3REPTAHMY4QO
563,1.0,right,right,1.0,1.6287,0.0,23.0,23.0,23.0,1.0,2238481630-168218.jpg,2238480677-317399.jpg,A3REPTAHMY4QO
564,2.0,right,right,1.0,1.7909,0.0,24.0,24.0,24.0,1.0,2986397322-371109.jpg,2874301407-363895.jpg,A3REPTAHMY4QO
565,1.0,right,left,0.0,1.0433,0.0,25.0,25.0,25.0,1.0,2964218374-144968.jpg,2964218374-144967.jpg,A3REPTAHMY4QO
566,3.0,left,right,0.0,0.9882,0.0,26.0,26.0,26.0,1.0,2238580740-186218.jpg,2964220333-71258.jpg,A3REPTAHMY4QO
567,1.0,left,right,0.0,1.4695,0.0,27.0,27.0,27.0,1.0,2868474407-362883.jpg,2460547732-349518.jpg,A3REPTAHMY4QO
568,3.0,right,left,0.0,1.1734,0.0,28.0,28.0,28.0,1.0,2898621427-366486.jpg,2898635427-367120.jpg,A3REPTAHMY4QO
569,2.0,left,left,1.0,1.3342,0.0,29.0,29.0,29.0,1.0,2238481198-19822.jpg,2901946436-293242.jpg,A3REPTAHMY4QO
570,2.0,left,right,0.0,0.6863,0.0,30.0,30.0,30.0,1.0,2898633421-291973.jpg,2575118671-277663.jpg,A3REPTAHMY4QO
571,3.0,left,right,0.0,1.0909,0.0,31.0,31.0,31.0,1.0,2449442529-124446.jpg,2460547536-274178.jpg,A3REPTAHMY4QO
572,2.0,left,left,1.0,1.3921,0.0,32.0,32.0,32.0,1.0,2460547508-51571.jpg,2981232437-369759.jpg,A3REPTAHMY4QO
573,3.0,right,right,1.0,1.1908,0.0,33.0,33.0,33.0,1.0,2575120609-129862.jpg,2898618390-216538.jpg,A3REPTAHMY4QO
574,1.0,right,left,0.0,9.0767,0.0,34.0,34.0,34.0,1.0,2984615358-72439.jpg,2874307433-66280.jpg,A3REPTAHMY4QO
575,2.0,right,left,0.0,0.7526,0.0,35.0,35.0,35.0,1.0,2901933382-367209.jpg,2964222378-71332.jpg,A3REPTAHMY4QO
576,1.0,right,left,0.0,1.5754,0.0,36.0,36.0,36.0,1.0,2901946439-144040.jpg,2898617468-68274.jpg,A3REPTAHMY4QO
577,1.0,left,left,1.0,0.6167,0.0,37.0,37.0,37.0,1.0,2883256307-365057.jpg,2611628310-206388.jpg,A3REPTAHMY4QO
578,2.0,left,right,0.0,1.267,0.0,38.0,38.0,38.0,1.0,2460547467-349421.jpg,2452380166-273110.jpg,A3REPTAHMY4QO
579,2.0,left,right,0.0,0.9052,0.0,39.0,39.0,39.0,1.0,2874299429-139694.jpg,2981244403-72215.jpg,A3REPTAHMY4QO
580,2.0,left,right,0.0,0.8945,0.0,40.0,40.0,40.0,1.0,2898624426-291546.jpg,2981236443-71859.jpg,A3REPTAHMY4QO
581,2.0,right,right,1.0,0.9564,0.0,41.0,41.0,41.0,1.0,2883255450-215310.jpg,2883268471-290842.jpg,A3REPTAHMY4QO
582,1.0,left,right,0.0,0.9024,0.0,42.0,42.0,42.0,1.0,2898635428-69104.jpg,2446759803-49250.jpg,A3REPTAHMY4QO
583,2.0,left,left,1.0,1.1656,0.0,43.0,43.0,43.0,1.0,2986451363-73599.jpg,2860302315-210704.jpg,A3REPTAHMY4QO
584,1.0,right,left,0.0,1.2213,0.0,44.0,44.0,44.0,1.0,2901946465-218350.jpg,2868475410-213219.jpg,A3REPTAHMY4QO
585,1.0,left,left,1.0,0.9832,0.0,45.0,45.0,45.0,1.0,2446758985-197609.jpg,2981240424-145795.jpg,A3REPTAHMY4QO
586,1.0,left,right,0.0,1.4037,0.0,46.0,46.0,46.0,1.0,2864907432-362042.jpg,2864901420-212147.jpg,A3REPTAHMY4QO
587,3.0,right,left,0.0,1.2942,0.0,47.0,47.0,47.0,1.0,2238577590-185467.jpg,2901947423-70311.jpg,A3REPTAHMY4QO
588,1.0,right,left,0.0,1.7289,0.0,48.0,48.0,48.0,1.0,2427874231-269884.jpg,2964223381-294447.jpg,A3REPTAHMY4QO
589,2.0,right,left,0.0,1.401,0.0,49.0,49.0,49.0,1.0,2238563377-332054.jpg,2874303365-214262.jpg,A3REPTAHMY4QO
590,3.0,left,left,1.0,2.0736,0.0,50.0,50.0,50.0,1.0,2512875899-126682.jpg,2986447332-371497.jpg,A3REPTAHMY4QO
591,1.0,left,left,1.0,1.7124,0.0,51.0,51.0,51.0,1.0,2898634397-367080.jpg,2237944827-301472.jpg,A3REPTAHMY4QO
592,3.0,right,left,0.0,0.986,0.0,52.0,52.0,52.0,1.0,2458347252-348911.jpg,2458347385-199723.jpg,A3REPTAHMY4QO
593,3.0,left,left,1.0,0.9927,0.0,53.0,53.0,53.0,1.0,2864910426-287204.jpg,2901939433-69672.jpg,A3REPTAHMY4QO
594,3.0,right,right,1.0,1.1822,0.0,54.0,54.0,54.0,1.0,2427873848-47312.jpg,2981241414-145842.jpg,A3REPTAHMY4QO
595,2.0,left,left,1.0,1.2631,0.0,55.0,55.0,55.0,1.0,2874302418-65978.jpg,2238481198-19823.jpg,A3REPTAHMY4QO
596,3.0,left,left,1.0,1.7415,0.0,56.0,56.0,56.0,1.0,2452380832-348593.jpg,2237858942-299356.jpg,A3REPTAHMY4QO
597,2.0,left,left,1.0,5.5956,0.0,57.0,57.0,57.0,1.0,2981231403-71642.jpg,2874305405-214397.jpg,A3REPTAHMY4QO
598,1.0,right,right,1.0,1.1684,0.0,58.0,58.0,58.0,1.0,2901942428-69919.jpg,2901939379-143480.jpg,A3REPTAHMY4QO
599,3.0,left,right,0.0,1.1006,0.0,59.0,59.0,59.0,1.0,2874299429-139695.jpg,2446760917-347439.jpg,A3REPTAHMY4QO
600,3.0,right,left,0.0,1.6432,0.0,0.0,0.0,0.0,1.0,2901942443-69925.jpg,2986451363-73598.jpg,A2NLR3S7WBULAK
601,2.0,right,right,1.0,0.6475,0.0,1.0,1.0,1.0,1.0,2446759306-271734.jpg,2964218374-144967.jpg,A2NLR3S7WBULAK
602,2.0,right,left,0.0,0.1675,0.0,2.0,2.0,2.0,1.0,2981229442-369621.jpg,2901939379-143480.jpg,A2NLR3S7WBULAK
603,2.0,left,left,1.0,1.8982,0.0,3.0,3.0,3.0,1.0,2460547508-51571.jpg,2981232437-369759.jpg,A2NLR3S7WBULAK
604,3.0,right,right,1.0,0.9661,0.0,4.0,4.0,4.0,1.0,2238550049-105691.jpg,2898633421-291973.jpg,A2NLR3S7WBULAK
605,1.0,right,right,1.0,1.7467,0.0,5.0,5.0,5.0,1.0,2238481630-168218.jpg,2238480677-317399.jpg,A2NLR3S7WBULAK
606,3.0,right,right,1.0,1.158,0.0,6.0,6.0,6.0,1.0,2901951392-368654.jpg,2446759803-49249.jpg,A2NLR3S7WBULAK
607,2.0,right,left,0.0,1.4384,0.0,7.0,7.0,7.0,1.0,2460547536-274181.jpg,2449442529-124446.jpg,A2NLR3S7WBULAK
608,3.0,right,right,1.0,1.0734,0.0,8.0,8.0,8.0,1.0,2458347252-348911.jpg,2458347385-199723.jpg,A2NLR3S7WBULAK
609,2.0,right,right,1.0,1.0414,0.0,9.0,9.0,9.0,1.0,2238480648-19714.jpg,2874302418-65979.jpg,A2NLR3S7WBULAK
610,3.0,right,right,1.0,1.7966,0.0,10.0,10.0,10.0,1.0,2898625336-291572.jpg,2898635428-69104.jpg,A2NLR3S7WBULAK
611,3.0,left,right,0.0,1.4657,0.0,11.0,11.0,11.0,1.0,2964223381-294447.jpg,2898628438-68785.jpg,A2NLR3S7WBULAK
612,3.0,left,left,1.0,1.9222,0.0,12.0,12.0,12.0,1.0,2592380177-354626.jpg,2238117096-228518.jpg,A2NLR3S7WBULAK
613,2.0,right,right,1.0,1.5552,0.0,13.0,13.0,13.0,1.0,2901943387-368037.jpg,2898617468-68274.jpg,A2NLR3S7WBULAK
614,3.0,left,left,1.0,2.2914,0.0,14.0,14.0,14.0,1.0,2238572663-35822.jpg,2864903351-286874.jpg,A2NLR3S7WBULAK
615,1.0,right,right,1.0,1.2497,0.0,15.0,15.0,15.0,1.0,2981244394-145974.jpg,2964213381-294060.jpg,A2NLR3S7WBULAK
616,2.0,right,right,1.0,1.0779,0.0,16.0,16.0,16.0,1.0,2238521193-26285.jpg,2238580740-186218.jpg,A2NLR3S7WBULAK
617,3.0,left,left,1.0,1.0057,0.0,17.0,17.0,17.0,1.0,2449442529-124445.jpg,2898632385-217137.jpg,A2NLR3S7WBULAK
618,3.0,right,right,1.0,1.4405,0.0,18.0,18.0,18.0,1.0,2964217461-294238.jpg,2898634397-367080.jpg,A2NLR3S7WBULAK
619,1.0,right,right,1.0,0.9952,0.0,19.0,19.0,19.0,1.0,2862691449-137104.jpg,2238481198-19822.jpg,A2NLR3S7WBULAK
620,1.0,right,right,1.0,1.2634,0.0,20.0,20.0,20.0,1.0,2238499057-320266.jpg,2238428357-313623.jpg,A2NLR3S7WBULAK
621,2.0,left,right,0.0,1.0169,0.0,21.0,21.0,21.0,1.0,2868474407-362883.jpg,2981246400-220363.jpg,A2NLR3S7WBULAK
622,2.0,left,right,0.0,1.3647,0.0,22.0,22.0,22.0,1.0,2238481928-19949.jpg,2864900357-361688.jpg,A2NLR3S7WBULAK
623,1.0,left,left,1.0,1.0419,0.0,23.0,23.0,23.0,1.0,2592380177-354629.jpg,2898633421-291974.jpg,A2NLR3S7WBULAK
624,3.0,right,left,0.0,1.3304,0.0,24.0,24.0,24.0,1.0,2427873763-47290.jpg,2981231403-71642.jpg,A2NLR3S7WBULAK
625,1.0,right,right,1.0,1.2085,0.0,25.0,25.0,25.0,1.0,2592380255-205553.jpg,2238560245-182099.jpg,A2NLR3S7WBULAK
626,2.0,left,right,0.0,1.3192,0.0,26.0,26.0,26.0,1.0,2883268412-365898.jpg,2984615361-295510.jpg,A2NLR3S7WBULAK
627,1.0,left,left,1.0,2.0276,0.0,27.0,27.0,27.0,1.0,2874299429-139695.jpg,2883266388-67750.jpg,A2NLR3S7WBULAK
628,1.0,left,right,0.0,1.2056,0.0,28.0,28.0,28.0,1.0,2981241414-145842.jpg,2238516618-25604.jpg,A2NLR3S7WBULAK
629,2.0,right,right,1.0,1.1005,0.0,29.0,29.0,29.0,1.0,2981236443-71859.jpg,2898624426-291546.jpg,A2NLR3S7WBULAK
630,1.0,left,left,1.0,1.9859,0.0,30.0,30.0,30.0,1.0,2452381505-199546.jpg,2901938432-367627.jpg,A2NLR3S7WBULAK
631,1.0,left,right,0.0,1.1429,0.0,31.0,31.0,31.0,1.0,2986451363-73599.jpg,2898626385-216899.jpg,A2NLR3S7WBULAK
632,3.0,right,right,1.0,2.319,0.0,32.0,32.0,32.0,1.0,2981235446-294901.jpg,2460547467-349421.jpg,A2NLR3S7WBULAK
633,2.0,left,left,1.0,1.1613,0.0,33.0,33.0,33.0,1.0,2238425482-313537.jpg,2238436322-314047.jpg,A2NLR3S7WBULAK
634,3.0,left,left,1.0,1.2933,0.0,34.0,34.0,34.0,1.0,2874302418-65978.jpg,2898633321-291943.jpg,A2NLR3S7WBULAK
635,1.0,left,left,1.0,1.4792,0.0,35.0,35.0,35.0,1.0,2901947423-70311.jpg,2860312398-62572.jpg,A2NLR3S7WBULAK
636,3.0,left,left,1.0,1.155,0.0,36.0,36.0,36.0,1.0,2901952513-70703.jpg,2238481198-19821.jpg,A2NLR3S7WBULAK
637,1.0,right,left,0.0,0.9896,0.0,37.0,37.0,37.0,1.0,2460547467-349423.jpg,2901939379-143479.jpg,A2NLR3S7WBULAK
638,1.0,left,left,1.0,0.9733,0.0,38.0,38.0,38.0,1.0,2964222378-71332.jpg,2981240424-145794.jpg,A2NLR3S7WBULAK
639,1.0,right,right,1.0,1.4191,0.0,39.0,39.0,39.0,1.0,2575963989-130576.jpg,2592379964-131054.jpg,A2NLR3S7WBULAK
640,1.0,right,left,0.0,1.5491,0.0,40.0,40.0,40.0,1.0,2964221435-219434.jpg,2898635427-367120.jpg,A2NLR3S7WBULAK
641,2.0,left,right,0.0,1.0334,0.0,41.0,41.0,41.0,1.0,2874303365-214262.jpg,2238563377-332054.jpg,A2NLR3S7WBULAK
642,3.0,right,right,1.0,1.339,0.0,42.0,42.0,42.0,1.0,2898631468-68931.jpg,2901941401-292798.jpg,A2NLR3S7WBULAK
643,1.0,left,right,0.0,1.1513,0.0,43.0,43.0,43.0,1.0,2883273443-68193.jpg,2883254439-140940.jpg,A2NLR3S7WBULAK
644,2.0,left,right,0.0,1.0935,0.0,44.0,44.0,44.0,1.0,2874301407-363895.jpg,2986397322-371109.jpg,A2NLR3S7WBULAK
645,2.0,left,right,0.0,1.6686,0.0,45.0,45.0,45.0,1.0,2898618444-142233.jpg,2238555262-330312.jpg,A2NLR3S7WBULAK
646,3.0,left,left,1.0,0.8224,0.0,46.0,46.0,46.0,1.0,2964216465-219242.jpg,2898619327-366362.jpg,A2NLR3S7WBULAK
647,2.0,left,right,0.0,1.3432,0.0,47.0,47.0,47.0,1.0,2452380832-348593.jpg,2238481813-19930.jpg,A2NLR3S7WBULAK
648,3.0,right,left,0.0,1.2202,0.0,48.0,48.0,48.0,1.0,2868474407-362885.jpg,2868475410-213219.jpg,A2NLR3S7WBULAK
649,2.0,left,left,1.0,1.3738,0.0,49.0,49.0,49.0,1.0,2874299429-139694.jpg,2981244403-72215.jpg,A2NLR3S7WBULAK
650,3.0,right,right,1.0,1.6176,0.0,50.0,50.0,50.0,1.0,2864909447-362146.jpg,2460547467-349422.jpg,A2NLR3S7WBULAK
651,3.0,left,left,1.0,1.0042,0.0,51.0,51.0,51.0,1.0,2575120738-55529.jpg,2238531493-28260.jpg,A2NLR3S7WBULAK
652,3.0,right,left,0.0,1.0177,0.0,52.0,52.0,52.0,1.0,2864904453-63933.jpg,2883256307-365057.jpg,A2NLR3S7WBULAK
653,1.0,right,left,0.0,1.4304,0.0,53.0,53.0,53.0,1.0,2864901420-212147.jpg,2864907432-362042.jpg,A2NLR3S7WBULAK
654,1.0,left,right,0.0,0.2094,0.0,54.0,54.0,54.0,1.0,2512875899-126682.jpg,2460547536-274179.jpg,A2NLR3S7WBULAK
655,1.0,right,right,1.0,1.7952,0.0,55.0,55.0,55.0,1.0,2883268471-290843.jpg,2883268471-290842.jpg,A2NLR3S7WBULAK
656,1.0,right,right,1.0,1.3114,0.0,56.0,56.0,56.0,1.0,2864902304-137862.jpg,2864910426-287204.jpg,A2NLR3S7WBULAK
657,2.0,right,left,0.0,1.0146,0.0,57.0,57.0,57.0,1.0,2901939327-367670.jpg,2898618390-216538.jpg,A2NLR3S7WBULAK
658,2.0,left,left,1.0,1.8562,0.0,58.0,58.0,58.0,1.0,2446758985-197609.jpg,2864909447-362144.jpg,A2NLR3S7WBULAK
659,2.0,left,right,0.0,2.1273,0.0,59.0,59.0,59.0,1.0,2874307433-66280.jpg,2981246400-220365.jpg,A2NLR3S7WBULAK
660,2.0,left,left,1.0,2.6385,0.0,0.0,0.0,0.0,1.0,2449442529-124445.jpg,2986408373-73286.jpg,A3MC0GSXYQ2P7A
661,2.0,left,left,1.0,2.171,0.0,1.0,1.0,1.0,1.0,2898624426-291546.jpg,2981236443-71859.jpg,A3MC0GSXYQ2P7A
662,2.0,left,left,1.0,2.0197,0.0,2.0,2.0,2.0,1.0,2898617468-68274.jpg,2901943387-368037.jpg,A3MC0GSXYQ2P7A
663,3.0,right,right,1.0,1.9051,0.0,3.0,3.0,3.0,1.0,2981231446-294732.jpg,2964218374-144967.jpg,A3MC0GSXYQ2P7A
664,3.0,right,right,1.0,1.7278,0.0,4.0,4.0,4.0,1.0,2901948383-70363.jpg,2868474407-362883.jpg,A3MC0GSXYQ2P7A
665,1.0,left,left,1.0,2.5251,0.0,5.0,5.0,5.0,1.0,2901941401-292798.jpg,2898618327-366317.jpg,A3MC0GSXYQ2P7A
666,1.0,left,left,1.0,1.6298,0.0,6.0,6.0,6.0,1.0,2964216465-219242.jpg,2238544191-252422.jpg,A3MC0GSXYQ2P7A
667,2.0,left,left,1.0,1.4732,0.0,7.0,7.0,7.0,1.0,2592379964-131054.jpg,2238479053-19457.jpg,A3MC0GSXYQ2P7A
668,2.0,right,right,1.0,1.6644,0.0,8.0,8.0,8.0,1.0,2868479517-363220.jpg,2898635427-367120.jpg,A3MC0GSXYQ2P7A
669,1.0,left,left,1.0,3.7064,0.0,9.0,9.0,9.0,1.0,2981231403-71642.jpg,2579432519-130698.jpg,A3MC0GSXYQ2P7A
670,3.0,right,right,1.0,2.3313,0.0,10.0,10.0,10.0,1.0,2898628438-68785.jpg,2964223381-294447.jpg,A3MC0GSXYQ2P7A
671,2.0,right,right,1.0,2.1618,0.0,11.0,11.0,11.0,1.0,2868487415-213924.jpg,2460547467-349422.jpg,A3MC0GSXYQ2P7A
672,3.0,left,right,0.0,2.2938,0.0,12.0,12.0,12.0,1.0,2238572663-35822.jpg,2864903351-286874.jpg,A3MC0GSXYQ2P7A
673,3.0,left,right,0.0,2.4389,0.0,13.0,13.0,13.0,1.0,2901939379-143480.jpg,2898632385-217139.jpg,A3MC0GSXYQ2P7A
674,2.0,right,right,1.0,2.3198,0.0,14.0,14.0,14.0,1.0,2575120738-55528.jpg,2575120738-55529.jpg,A3MC0GSXYQ2P7A
675,1.0,left,left,1.0,1.8492,0.0,15.0,15.0,15.0,1.0,2238425482-313537.jpg,2238471391-240918.jpg,A3MC0GSXYQ2P7A
676,3.0,right,left,0.0,4.0914,0.0,16.0,16.0,16.0,1.0,2981240427-370099.jpg,2964222378-71332.jpg,A3MC0GSXYQ2P7A
677,1.0,right,right,1.0,2.498,0.0,17.0,17.0,17.0,1.0,2460547467-349423.jpg,2901939379-143479.jpg,A3MC0GSXYQ2P7A
678,3.0,left,left,1.0,1.6352,0.0,18.0,18.0,18.0,1.0,2452380832-348593.jpg,2237858942-299356.jpg,A3MC0GSXYQ2P7A
679,2.0,right,right,1.0,3.5412,0.0,19.0,19.0,19.0,1.0,2460547536-274181.jpg,2449442529-124446.jpg,A3MC0GSXYQ2P7A
680,3.0,left,left,1.0,3.2477,0.0,20.0,20.0,20.0,1.0,2592380177-354629.jpg,2512875587-350044.jpg,A3MC0GSXYQ2P7A
681,3.0,left,left,1.0,3.977,0.0,21.0,21.0,21.0,1.0,2446758985-197609.jpg,2898624426-291544.jpg,A3MC0GSXYQ2P7A
682,2.0,left,left,1.0,1.7977,0.0,22.0,22.0,22.0,1.0,2883268471-290842.jpg,2883255450-215310.jpg,A3MC0GSXYQ2P7A
683,1.0,left,right,0.0,1.7662,0.0,23.0,23.0,23.0,1.0,2874302418-65979.jpg,2237857458-1325.jpg,A3MC0GSXYQ2P7A
684,3.0,right,left,0.0,9.6678,0.0,24.0,24.0,24.0,1.0,2898633321-291943.jpg,2874302418-65978.jpg,A3MC0GSXYQ2P7A
685,2.0,right,right,1.0,3.5994,0.0,25.0,25.0,25.0,1.0,2901943411-292945.jpg,2898635428-69104.jpg,A3MC0GSXYQ2P7A
686,1.0,right,right,1.0,4.1003,0.0,26.0,26.0,26.0,1.0,2898626385-216899.jpg,2986451363-73599.jpg,A3MC0GSXYQ2P7A
687,3.0,left,right,0.0,1.9939,0.0,27.0,27.0,27.0,1.0,2986451363-73598.jpg,2901942443-69925.jpg,A3MC0GSXYQ2P7A
688,3.0,left,left,1.0,1.1781,0.0,28.0,28.0,28.0,1.0,2981241414-145842.jpg,2427873848-47312.jpg,A3MC0GSXYQ2P7A
689,2.0,right,right,1.0,2.2274,0.0,29.0,29.0,29.0,1.0,2874314526-289684.jpg,2238560245-182099.jpg,A3MC0GSXYQ2P7A
690,3.0,right,right,1.0,1.2632,0.0,30.0,30.0,30.0,1.0,2238480278-19661.jpg,2238480677-317399.jpg,A3MC0GSXYQ2P7A
691,1.0,right,left,0.0,1.4656,0.0,31.0,31.0,31.0,1.0,2981244394-145974.jpg,2964213381-294060.jpg,A3MC0GSXYQ2P7A
692,2.0,right,right,1.0,2.8884,0.0,32.0,32.0,32.0,1.0,2981244403-72215.jpg,2874299429-139694.jpg,A3MC0GSXYQ2P7A
693,2.0,right,right,1.0,1.8067,0.0,33.0,33.0,33.0,1.0,2460547508-51572.jpg,2883273443-68193.jpg,A3MC0GSXYQ2P7A
694,1.0,left,right,0.0,1.1332,0.0,34.0,34.0,34.0,1.0,2460547508-51571.jpg,2452380166-273109.jpg,A3MC0GSXYQ2P7A
695,3.0,right,left,0.0,4.063,0.0,35.0,35.0,35.0,1.0,2238577590-185467.jpg,2901947423-70311.jpg,A3MC0GSXYQ2P7A
696,1.0,right,right,1.0,1.3676,0.0,36.0,36.0,36.0,1.0,2984615358-72439.jpg,2874307433-66280.jpg,A3MC0GSXYQ2P7A
697,2.0,left,right,0.0,1.6983,0.0,37.0,37.0,37.0,1.0,2238481928-19949.jpg,2864900357-361688.jpg,A3MC0GSXYQ2P7A
698,3.0,right,right,1.0,1.3687,0.0,38.0,38.0,38.0,1.0,2964217461-294238.jpg,2898634397-367080.jpg,A3MC0GSXYQ2P7A
699,1.0,left,left,1.0,2.5023,0.0,39.0,39.0,39.0,1.0,2874303365-214262.jpg,2274829821-263682.jpg,A3MC0GSXYQ2P7A
700,2.0,right,right,1.0,1.8438,0.0,40.0,40.0,40.0,1.0,2901942443-69923.jpg,2874299429-139695.jpg,A3MC0GSXYQ2P7A
701,3.0,left,right,0.0,2.8067,0.0,41.0,41.0,41.0,1.0,2883256307-365057.jpg,2864904453-63933.jpg,A3MC0GSXYQ2P7A
702,2.0,left,right,0.0,2.1012,0.0,42.0,42.0,42.0,1.0,2898618390-216538.jpg,2901939327-367670.jpg,A3MC0GSXYQ2P7A
703,1.0,left,left,1.0,1.3712,0.0,43.0,43.0,43.0,1.0,2592380177-354626.jpg,2238576792-334659.jpg,A3MC0GSXYQ2P7A
704,3.0,left,right,0.0,1.666,0.0,44.0,44.0,44.0,1.0,2898618444-142233.jpg,2898618444-142232.jpg,A3MC0GSXYQ2P7A
705,1.0,right,right,1.0,1.5058,0.0,45.0,45.0,45.0,1.0,2446760601-272099.jpg,2446759803-49249.jpg,A3MC0GSXYQ2P7A
706,1.0,right,right,1.0,3.2598,0.0,46.0,46.0,46.0,1.0,2864901420-212147.jpg,2864907432-362042.jpg,A3MC0GSXYQ2P7A
707,3.0,left,left,1.0,2.1123,0.0,47.0,47.0,47.0,1.0,2238428357-313623.jpg,2986408339-146952.jpg,A3MC0GSXYQ2P7A
708,1.0,left,left,1.0,1.6745,0.0,48.0,48.0,48.0,1.0,2460547467-349421.jpg,2898631394-142727.jpg,A3MC0GSXYQ2P7A
709,1.0,right,left,0.0,2.1559,0.0,49.0,49.0,49.0,1.0,2864902304-137862.jpg,2864910426-287204.jpg,A3MC0GSXYQ2P7A
710,3.0,left,left,1.0,0.9749,0.0,50.0,50.0,50.0,1.0,2868475410-213219.jpg,2868474407-362885.jpg,A3MC0GSXYQ2P7A
711,2.0,left,right,0.0,1.0593,0.0,51.0,51.0,51.0,1.0,2238481198-19822.jpg,2901946436-293242.jpg,A3MC0GSXYQ2P7A
712,1.0,left,left,1.0,5.423,0.0,52.0,52.0,52.0,1.0,2512875899-126682.jpg,2460547536-274179.jpg,A3MC0GSXYQ2P7A
713,1.0,right,right,1.0,1.358,0.0,53.0,53.0,53.0,1.0,2238480434-93829.jpg,2458347385-199723.jpg,A3MC0GSXYQ2P7A
714,2.0,left,right,0.0,1.3191,0.0,54.0,54.0,54.0,1.0,2901952513-70703.jpg,2868469411-287540.jpg,A3MC0GSXYQ2P7A
715,2.0,right,left,0.0,1.8815,0.0,55.0,55.0,55.0,1.0,2898632385-217138.jpg,2452381505-199546.jpg,A3MC0GSXYQ2P7A
716,2.0,right,right,1.0,0.7961,0.0,56.0,56.0,56.0,1.0,2984615361-295510.jpg,2883268412-365898.jpg,A3MC0GSXYQ2P7A
717,1.0,left,right,0.0,1.3053,0.0,57.0,57.0,57.0,1.0,2898633421-291973.jpg,2512876023-52283.jpg,A3MC0GSXYQ2P7A
718,1.0,right,left,0.0,2.3943,0.0,58.0,58.0,58.0,1.0,2238550816-254000.jpg,2238580740-186218.jpg,A3MC0GSXYQ2P7A
719,3.0,right,left,0.0,2.1189,0.0,59.0,59.0,59.0,1.0,2901947323-70275.jpg,2874301407-363895.jpg,A3MC0GSXYQ2P7A
720,1.0,right,right,1.0,13.5611,0.0,0.0,0.0,0.0,1.0,2864906345-212360.jpg,2575120738-55529.jpg,A2FAAOGWUTTTF5
721,3.0,left,right,0.0,2.424099999,0.0,1.0,1.0,1.0,1.0,2883273443-68193.jpg,2898627427-366763.jpg,A2FAAOGWUTTTF5
722,3.0,left,right,0.0,2.535099999,0.0,2.0,2.0,2.0,1.0,2883256307-365057.jpg,2864904453-63933.jpg,A2FAAOGWUTTTF5
723,1.0,left,left,1.0,3.526400001,0.0,3.0,3.0,3.0,1.0,2874299429-139694.jpg,2986447306-296584.jpg,A2FAAOGWUTTTF5
724,3.0,left,left,1.0,2.6823,0.0,4.0,4.0,4.0,1.0,2238481198-19822.jpg,2238480803-19737.jpg,A2FAAOGWUTTTF5
725,2.0,left,right,0.0,1.543099999,0.0,5.0,5.0,5.0,1.0,2864910426-287204.jpg,2883268412-365899.jpg,A2FAAOGWUTTTF5
726,3.0,right,right,1.0,1.2724,0.0,6.0,6.0,6.0,1.0,2964216376-294181.jpg,2901939379-143479.jpg,A2FAAOGWUTTTF5
727,1.0,right,right,1.0,2.150400001,0.0,7.0,7.0,7.0,1.0,2964221435-219434.jpg,2898635427-367120.jpg,A2FAAOGWUTTTF5
728,2.0,left,right,0.0,2.3358,0.0,8.0,8.0,8.0,1.0,2986451363-73599.jpg,2860302315-210704.jpg,A2FAAOGWUTTTF5
729,3.0,left,left,1.0,3.2368,0.0,9.0,9.0,9.0,1.0,2898618390-216538.jpg,2575120609-129862.jpg,A2FAAOGWUTTTF5
730,2.0,left,left,1.0,3.4416,0.0,10.0,10.0,10.0,1.0,2446758985-197609.jpg,2864909447-362144.jpg,A2FAAOGWUTTTF5
731,1.0,right,right,1.0,1.525299999,0.0,11.0,11.0,11.0,1.0,2984626312-370849.jpg,2883268412-365898.jpg,A2FAAOGWUTTTF5
732,3.0,left,left,1.0,1.800099999,0.0,12.0,12.0,12.0,1.0,2964216465-219242.jpg,2898619327-366362.jpg,A2FAAOGWUTTTF5
733,1.0,right,right,1.0,1.2897,0.0,13.0,13.0,13.0,1.0,2452380171-273112.jpg,2449442529-124445.jpg,A2FAAOGWUTTTF5
734,3.0,right,right,1.0,4.576400001,0.0,14.0,14.0,14.0,1.0,2986447332-371497.jpg,2512875899-126682.jpg,A2FAAOGWUTTTF5
735,3.0,right,right,1.0,2.0745,0.0,15.0,15.0,15.0,1.0,2238577590-185467.jpg,2901947423-70311.jpg,A2FAAOGWUTTTF5
736,1.0,right,right,1.0,1.929,0.0,16.0,16.0,16.0,1.0,2238499057-320266.jpg,2238428357-313623.jpg,A2FAAOGWUTTTF5
737,1.0,left,right,0.0,2.4141,0.0,17.0,17.0,17.0,1.0,2452381505-199546.jpg,2901938432-367627.jpg,A2FAAOGWUTTTF5
738,1.0,right,left,0.0,1.7135,0.0,18.0,18.0,18.0,1.0,2238516618-25604.jpg,2981241414-145842.jpg,A2FAAOGWUTTTF5
739,1.0,right,right,1.0,1.2722,0.0,19.0,19.0,19.0,1.0,2446761374-124213.jpg,2874301407-363895.jpg,A2FAAOGWUTTTF5
740,2.0,left,left,1.0,2.5684,0.0,20.0,20.0,20.0,1.0,2898617468-68274.jpg,2901943387-368037.jpg,A2FAAOGWUTTTF5
741,1.0,left,left,1.0,3.4337,0.0,21.0,21.0,21.0,1.0,2460547508-51571.jpg,2452380166-273109.jpg,A2FAAOGWUTTTF5
742,3.0,left,right,0.0,1.8548,0.0,22.0,22.0,22.0,1.0,2874302418-65978.jpg,2898633321-291943.jpg,A2FAAOGWUTTTF5
743,1.0,right,right,1.0,1.2842,0.0,23.0,23.0,23.0,1.0,2898633421-291974.jpg,2592380177-354629.jpg,A2FAAOGWUTTTF5
744,2.0,right,right,1.0,3.0945,0.0,24.0,24.0,24.0,1.0,2238480648-19714.jpg,2874302418-65979.jpg,A2FAAOGWUTTTF5
745,3.0,right,right,1.0,1.279599999,0.0,25.0,25.0,25.0,1.0,2237858942-299356.jpg,2452380832-348593.jpg,A2FAAOGWUTTTF5
746,3.0,left,left,1.0,2.294,0.0,26.0,26.0,26.0,1.0,2238560245-182099.jpg,2238480980-168129.jpg,A2FAAOGWUTTTF5
747,3.0,right,right,1.0,1.396099999,0.0,27.0,27.0,27.0,1.0,2898618444-142232.jpg,2898618444-142233.jpg,A2FAAOGWUTTTF5
748,3.0,right,right,1.0,2.2732,0.0,28.0,28.0,28.0,1.0,2898631468-68931.jpg,2901941401-292798.jpg,A2FAAOGWUTTTF5
749,1.0,left,left,1.0,2.292799999,0.0,29.0,29.0,29.0,1.0,2901952513-70703.jpg,2864907361-287062.jpg,A2FAAOGWUTTTF5
750,1.0,left,left,1.0,1.5511,0.0,30.0,30.0,30.0,1.0,2868475410-213219.jpg,2901946465-218350.jpg,A2FAAOGWUTTTF5
751,2.0,left,right,0.0,2.1888,0.0,31.0,31.0,31.0,1.0,2964222378-71332.jpg,2901933382-367209.jpg,A2FAAOGWUTTTF5
752,3.0,right,right,1.0,2.4343,0.0,32.0,32.0,32.0,1.0,2446760917-347439.jpg,2874299429-139695.jpg,A2FAAOGWUTTTF5
753,2.0,left,left,1.0,2.2988,0.0,33.0,33.0,33.0,1.0,2864907432-362042.jpg,2901947423-70310.jpg,A2FAAOGWUTTTF5
754,1.0,left,left,1.0,2.4926,0.0,34.0,34.0,34.0,1.0,2898624426-291546.jpg,2964218432-369263.jpg,A2FAAOGWUTTTF5
755,3.0,left,left,1.0,2.5283,0.0,35.0,35.0,35.0,1.0,2460547467-349421.jpg,2981235446-294901.jpg,A2FAAOGWUTTTF5
756,3.0,right,left,0.0,1.633900001,0.0,36.0,36.0,36.0,1.0,2964220333-71258.jpg,2238580740-186218.jpg,A2FAAOGWUTTTF5
757,2.0,right,right,1.0,1.530799999,0.0,37.0,37.0,37.0,1.0,2575118671-277663.jpg,2898633421-291973.jpg,A2FAAOGWUTTTF5
758,2.0,right,right,1.0,1.2778,0.0,38.0,38.0,38.0,1.0,2981246400-220365.jpg,2874307433-66280.jpg,A2FAAOGWUTTTF5
759,3.0,left,right,0.0,2.409900001,0.0,39.0,39.0,39.0,1.0,2898634397-367080.jpg,2964217461-294238.jpg,A2FAAOGWUTTTF5
760,1.0,left,left,1.0,2.3997,0.0,40.0,40.0,40.0,1.0,2449442529-124446.jpg,2446759803-49251.jpg,A2FAAOGWUTTTF5
761,2.0,right,right,1.0,1.0657,0.0,41.0,41.0,41.0,1.0,2446759306-271734.jpg,2964218374-144967.jpg,A2FAAOGWUTTTF5
762,3.0,left,right,0.0,2.782200001,0.0,42.0,42.0,42.0,1.0,2981231403-71642.jpg,2427873763-47290.jpg,A2FAAOGWUTTTF5
763,1.0,right,right,1.0,1.146200001,0.0,43.0,43.0,43.0,1.0,2238584894-113161.jpg,2238572663-35822.jpg,A2FAAOGWUTTTF5
764,2.0,left,left,1.0,1.5456,0.0,44.0,44.0,44.0,1.0,2901939379-143480.jpg,2981229442-369621.jpg,A2FAAOGWUTTTF5
765,2.0,left,left,1.0,1.285599999,0.0,45.0,45.0,45.0,1.0,2874303365-214262.jpg,2238563377-332054.jpg,A2FAAOGWUTTTF5
766,2.0,right,right,1.0,1.7984,0.0,46.0,46.0,46.0,1.0,2238436322-314047.jpg,2238425482-313537.jpg,A2FAAOGWUTTTF5
767,2.0,right,right,1.0,1.422,0.0,47.0,47.0,47.0,1.0,2898618440-216547.jpg,2446759803-49249.jpg,A2FAAOGWUTTTF5
768,2.0,right,right,1.0,2.833099999,0.0,48.0,48.0,48.0,1.0,2458348012-349114.jpg,2964213381-294060.jpg,A2FAAOGWUTTTF5
769,1.0,right,right,1.0,1.2878,0.0,49.0,49.0,49.0,1.0,2883268471-290843.jpg,2883268471-290842.jpg,A2FAAOGWUTTTF5
770,2.0,left,left,1.0,1.7504,0.0,50.0,50.0,50.0,1.0,2460547467-349422.jpg,2868487415-213924.jpg,A2FAAOGWUTTTF5
771,1.0,left,right,0.0,2.1523,0.0,51.0,51.0,51.0,1.0,2238481928-19949.jpg,2883264367-365620.jpg,A2FAAOGWUTTTF5
772,3.0,left,right,0.0,1.3602,0.0,52.0,52.0,52.0,1.0,2898635428-69104.jpg,2898625336-291572.jpg,A2FAAOGWUTTTF5
773,3.0,left,right,0.0,1.141299999,0.0,53.0,53.0,53.0,1.0,2868474407-362883.jpg,2901948383-70363.jpg,A2FAAOGWUTTTF5
774,1.0,left,left,1.0,1.4963,0.0,54.0,54.0,54.0,1.0,2592380177-354626.jpg,2238576792-334659.jpg,A2FAAOGWUTTTF5
775,2.0,left,right,0.0,1.4784,0.0,55.0,55.0,55.0,1.0,2986451363-73598.jpg,2984628361-295995.jpg,A2FAAOGWUTTTF5
776,2.0,right,right,1.0,1.145799999,0.0,56.0,56.0,56.0,1.0,2427874554-121863.jpg,2458347385-199723.jpg,A2FAAOGWUTTTF5
777,2.0,right,right,1.0,1.2775,0.0,57.0,57.0,57.0,1.0,2238573546-258454.jpg,2238480677-317399.jpg,A2FAAOGWUTTTF5
778,2.0,left,right,0.0,2.466099999,0.0,58.0,58.0,58.0,1.0,2964223381-294447.jpg,2901941438-69836.jpg,A2FAAOGWUTTTF5
779,1.0,right,right,1.0,1.1509,0.0,59.0,59.0,59.0,1.0,2575963989-130576.jpg,2592379964-131054.jpg,A2FAAOGWUTTTF5
780,1.0,left,right,0.0,4.4015,0.0,0.0,0.0,0.0,1.0,2238580740-186218.jpg,2238550816-254000.jpg,AG62J8MOAACK3
781,3.0,left,right,0.0,1.3542,0.0,1.0,1.0,1.0,1.0,2449442529-124445.jpg,2898632385-217137.jpg,AG62J8MOAACK3
782,2.0,left,right,0.0,1.0598,0.0,2.0,2.0,2.0,1.0,2898618390-216538.jpg,2901939327-367670.jpg,AG62J8MOAACK3
783,2.0,left,right,0.0,6.2671,0.0,3.0,3.0,3.0,1.0,2874302418-65979.jpg,2238480648-19714.jpg,AG62J8MOAACK3
784,2.0,left,right,0.0,0.5999,0.0,4.0,4.0,4.0,1.0,2981231403-71642.jpg,2874305405-214397.jpg,AG62J8MOAACK3
785,2.0,left,right,0.0,0.4514,0.0,5.0,5.0,5.0,1.0,2981241414-145842.jpg,2874301404-139813.jpg,AG62J8MOAACK3
786,1.0,left,right,0.0,0.155900001,0.0,6.0,6.0,6.0,1.0,2898635427-367120.jpg,2964221435-219434.jpg,AG62J8MOAACK3
787,1.0,right,right,1.0,0.1635,0.0,7.0,7.0,7.0,1.0,2898626385-216899.jpg,2986451363-73599.jpg,AG62J8MOAACK3
788,1.0,left,right,0.0,0.3195,0.0,8.0,8.0,8.0,1.0,2883273443-68193.jpg,2883254439-140940.jpg,AG62J8MOAACK3
789,2.0,left,right,0.0,0.1607,0.0,9.0,9.0,9.0,1.0,2883256307-365057.jpg,2964210336-293945.jpg,AG62J8MOAACK3
790,3.0,left,right,0.0,0.3082,0.0,10.0,10.0,10.0,1.0,2898634397-367080.jpg,2964217461-294238.jpg,AG62J8MOAACK3
791,2.0,right,right,1.0,0.327099999,0.0,11.0,11.0,11.0,1.0,2868487415-213924.jpg,2460547467-349422.jpg,AG62J8MOAACK3
792,2.0,right,right,1.0,0.0067,0.0,12.0,12.0,12.0,1.0,2883268412-365899.jpg,2864910426-287204.jpg,AG62J8MOAACK3
793,3.0,right,right,1.0,8.231599999,0.0,13.0,13.0,13.0,1.0,2237858942-299356.jpg,2452380832-348593.jpg,AG62J8MOAACK3
794,3.0,left,right,0.0,0.326900001,0.0,14.0,14.0,14.0,1.0,2901939379-143480.jpg,2898632385-217139.jpg,AG62J8MOAACK3
795,2.0,left,right,0.0,0.16,0.0,15.0,15.0,15.0,1.0,2964218374-144967.jpg,2446759306-271734.jpg,AG62J8MOAACK3
796,1.0,right,right,1.0,0.1579,0.0,16.0,16.0,16.0,1.0,2898618327-366317.jpg,2901941401-292798.jpg,AG62J8MOAACK3
797,3.0,right,right,1.0,0.159900001,0.0,17.0,17.0,17.0,1.0,2460547536-274178.jpg,2449442529-124446.jpg,AG62J8MOAACK3
798,3.0,right,right,1.0,0.1623,0.0,18.0,18.0,18.0,1.0,2964207374-144577.jpg,2898617468-68274.jpg,AG62J8MOAACK3
799,1.0,left,right,0.0,0.1645,0.0,19.0,19.0,19.0,1.0,2898635428-69104.jpg,2446759803-49250.jpg,AG62J8MOAACK3
800,1.0,right,right,1.0,0.1729,0.0,20.0,20.0,20.0,1.0,2592380255-205553.jpg,2238560245-182099.jpg,AG62J8MOAACK3
801,2.0,left,right,0.0,0.173099999,0.0,21.0,21.0,21.0,1.0,2898633421-291973.jpg,2575118671-277663.jpg,AG62J8MOAACK3
802,3.0,left,right,0.0,0.164400001,0.0,22.0,22.0,22.0,1.0,2964213381-294060.jpg,2964213381-294061.jpg,AG62J8MOAACK3
803,2.0,right,right,1.0,0.0076,0.0,23.0,23.0,23.0,1.0,2427874554-121863.jpg,2458347385-199723.jpg,AG62J8MOAACK3
804,2.0,left,right,0.0,0.166599999,0.0,24.0,24.0,24.0,1.0,2592380177-354626.jpg,2864901386-286797.jpg,AG62J8MOAACK3
805,1.0,left,right,0.0,0.165099999,0.0,25.0,25.0,25.0,1.0,2874303365-214262.jpg,2274829821-263682.jpg,AG62J8MOAACK3
806,2.0,right,right,1.0,0.1613,0.0,26.0,26.0,26.0,1.0,2238573546-258454.jpg,2238480677-317399.jpg,AG62J8MOAACK3
807,1.0,right,right,1.0,0.1598,0.0,27.0,27.0,27.0,1.0,2981240424-145794.jpg,2964222378-71332.jpg,AG62J8MOAACK3
808,3.0,right,right,1.0,0.1617,0.0,28.0,28.0,28.0,1.0,2883266367-365742.jpg,2874299429-139694.jpg,AG62J8MOAACK3
809,3.0,right,right,1.0,0.1605,0.0,29.0,29.0,29.0,1.0,2238436252-314037.jpg,2883268412-365898.jpg,AG62J8MOAACK3
810,1.0,left,right,0.0,0.0053,0.0,30.0,30.0,30.0,1.0,2238428357-313623.jpg,2238499057-320266.jpg,AG62J8MOAACK3
811,1.0,left,right,0.0,0.162,0.0,31.0,31.0,31.0,1.0,2898618444-142233.jpg,2898631359-142721.jpg,AG62J8MOAACK3
812,3.0,right,right,1.0,0.005,0.0,32.0,32.0,32.0,1.0,2868474407-362885.jpg,2868475410-213219.jpg,AG62J8MOAACK3
813,1.0,right,right,1.0,0.0054,0.0,33.0,33.0,33.0,1.0,2984615358-72439.jpg,2874307433-66280.jpg,AG62J8MOAACK3
814,3.0,left,right,0.0,0.1611,0.0,34.0,34.0,34.0,1.0,2592379964-131054.jpg,2592380272-354673.jpg,AG62J8MOAACK3
815,1.0,left,right,0.0,0.0055,0.0,35.0,35.0,35.0,1.0,2460547508-51571.jpg,2452380166-273109.jpg,AG62J8MOAACK3
816,1.0,left,right,0.0,0.166,0.0,36.0,36.0,36.0,1.0,2964223381-294447.jpg,2427874231-269884.jpg,AG62J8MOAACK3
817,2.0,right,right,1.0,0.0055,0.0,37.0,37.0,37.0,1.0,2238571930-184143.jpg,2238572663-35822.jpg,AG62J8MOAACK3
818,2.0,right,right,1.0,0.0069,0.0,38.0,38.0,38.0,1.0,2981236443-71859.jpg,2898624426-291546.jpg,AG62J8MOAACK3
819,3.0,left,right,0.0,0.1674,0.0,39.0,39.0,39.0,1.0,2901947423-70311.jpg,2238577590-185467.jpg,AG62J8MOAACK3
820,3.0,left,right,0.0,0.163099999,0.0,40.0,40.0,40.0,1.0,2446759803-49249.jpg,2901951392-368654.jpg,AG62J8MOAACK3
821,1.0,left,right,0.0,0.0059,0.0,41.0,41.0,41.0,1.0,2238425482-313537.jpg,2238471391-240918.jpg,AG62J8MOAACK3
822,2.0,left,right,0.0,0.316,0.0,42.0,42.0,42.0,1.0,2238481928-19949.jpg,2864900357-361688.jpg,AG62J8MOAACK3
823,3.0,right,right,1.0,0.006,0.0,43.0,43.0,43.0,1.0,2446760917-347439.jpg,2874299429-139695.jpg,AG62J8MOAACK3
824,2.0,right,right,1.0,0.0106,0.0,44.0,44.0,44.0,1.0,2446758985-197610.jpg,2901939379-143479.jpg,AG62J8MOAACK3
825,3.0,right,right,1.0,0.171799999,0.0,45.0,45.0,45.0,1.0,2901947448-70314.jpg,2883268471-290842.jpg,AG62J8MOAACK3
826,1.0,right,right,1.0,0.0045,0.0,46.0,46.0,46.0,1.0,2981240424-145795.jpg,2446758985-197609.jpg,AG62J8MOAACK3
827,2.0,right,right,1.0,0.0057,0.0,47.0,47.0,47.0,1.0,2898632385-217138.jpg,2452381505-199546.jpg,AG62J8MOAACK3
828,3.0,left,right,0.0,0.1537,0.0,48.0,48.0,48.0,1.0,2986451363-73598.jpg,2901942443-69925.jpg,AG62J8MOAACK3
829,1.0,right,right,1.0,0.0056,0.0,49.0,49.0,49.0,1.0,2864907361-287062.jpg,2901952513-70703.jpg,AG62J8MOAACK3
830,2.0,right,right,1.0,0.1568,0.0,50.0,50.0,50.0,1.0,2575120738-55528.jpg,2575120738-55529.jpg,AG62J8MOAACK3
831,3.0,left,right,0.0,0.0063,0.0,51.0,51.0,51.0,1.0,2868474407-362883.jpg,2901948383-70363.jpg,AG62J8MOAACK3
832,3.0,right,right,1.0,0.1648,0.0,52.0,52.0,52.0,1.0,2989726338-74002.jpg,2864907432-362042.jpg,AG62J8MOAACK3
833,3.0,right,right,1.0,0.1628,0.0,53.0,53.0,53.0,1.0,2898619327-366362.jpg,2964216465-219242.jpg,AG62J8MOAACK3
834,1.0,left,right,0.0,0.0042,0.0,54.0,54.0,54.0,1.0,2874301407-363895.jpg,2446761374-124213.jpg,AG62J8MOAACK3
835,1.0,left,right,0.0,0.156400001,0.0,55.0,55.0,55.0,1.0,2238481198-19822.jpg,2862691449-137104.jpg,AG62J8MOAACK3
836,3.0,left,right,0.0,0.1575,0.0,56.0,56.0,56.0,1.0,2460547467-349421.jpg,2981235446-294901.jpg,AG62J8MOAACK3
837,1.0,left,right,0.0,0.1565,0.0,57.0,57.0,57.0,1.0,2592380177-354629.jpg,2898633421-291974.jpg,AG62J8MOAACK3
838,2.0,left,right,0.0,0.3072,0.0,58.0,58.0,58.0,1.0,2874302418-65978.jpg,2238481198-19823.jpg,AG62J8MOAACK3
839,2.0,left,right,0.0,0.1576,0.0,59.0,59.0,59.0,1.0,2512875899-126682.jpg,2592380177-354628.jpg,AG62J8MOAACK3
840,1.0,left,left,1.0,1.97,0.0,0.0,0.0,0.0,1.0,2964223381-294447.jpg,2427874231-269884.jpg,A1BH4K9Z8JWLZ1
841,3.0,left,left,1.0,1.1943,0.0,1.0,1.0,1.0,1.0,2238481198-19822.jpg,2238480803-19737.jpg,A1BH4K9Z8JWLZ1
842,1.0,left,left,1.0,1.4722,0.0,2.0,2.0,2.0,1.0,2883256307-365057.jpg,2611628310-206388.jpg,A1BH4K9Z8JWLZ1
843,1.0,right,right,1.0,1.9117,0.0,3.0,3.0,3.0,1.0,2452380171-273112.jpg,2449442529-124445.jpg,A1BH4K9Z8JWLZ1
844,2.0,right,left,0.0,1.3198,0.0,4.0,4.0,4.0,1.0,2981244403-72215.jpg,2874299429-139694.jpg,A1BH4K9Z8JWLZ1
845,2.0,right,right,1.0,1.2181,0.0,5.0,5.0,5.0,1.0,2868479517-363220.jpg,2898635427-367120.jpg,A1BH4K9Z8JWLZ1
846,2.0,right,left,0.0,6.8432,0.0,6.0,6.0,6.0,1.0,2874314526-289684.jpg,2238560245-182099.jpg,A1BH4K9Z8JWLZ1
847,1.0,right,right,1.0,1.4802,0.0,7.0,7.0,7.0,1.0,2901946465-218350.jpg,2868475410-213219.jpg,A1BH4K9Z8JWLZ1
848,1.0,right,right,1.0,1.4902,0.0,8.0,8.0,8.0,1.0,2512876023-52283.jpg,2898633421-291973.jpg,A1BH4K9Z8JWLZ1
849,3.0,left,left,1.0,1.72,0.0,9.0,9.0,9.0,1.0,2874307433-66280.jpg,2981231422-369714.jpg,A1BH4K9Z8JWLZ1
850,1.0,left,left,1.0,3.7939,0.0,10.0,10.0,10.0,1.0,2901939379-143480.jpg,2901942428-69919.jpg,A1BH4K9Z8JWLZ1
851,1.0,left,left,1.0,1.7013,0.0,11.0,11.0,11.0,1.0,2874302418-65978.jpg,2964224310-219528.jpg,A1BH4K9Z8JWLZ1
852,3.0,left,left,1.0,2.0111,0.0,12.0,12.0,12.0,1.0,2901941401-292798.jpg,2898631468-68931.jpg,A1BH4K9Z8JWLZ1
853,1.0,right,right,1.0,4.2646,0.0,13.0,13.0,13.0,1.0,2575963989-130576.jpg,2592379964-131054.jpg,A1BH4K9Z8JWLZ1
854,3.0,right,left,0.0,1.2057,0.0,14.0,14.0,14.0,1.0,2901947448-70314.jpg,2883268471-290842.jpg,A1BH4K9Z8JWLZ1
855,1.0,right,right,1.0,2.5603,0.0,15.0,15.0,15.0,1.0,2446759803-49251.jpg,2449442529-124446.jpg,A1BH4K9Z8JWLZ1
856,2.0,left,left,1.0,1.0564,0.0,16.0,16.0,16.0,1.0,2898618444-142233.jpg,2238555262-330312.jpg,A1BH4K9Z8JWLZ1
857,2.0,left,left,1.0,2.8376,0.0,17.0,17.0,17.0,1.0,2592380177-354629.jpg,2579432534-130704.jpg,A1BH4K9Z8JWLZ1
858,3.0,right,left,0.0,0.8755,0.0,18.0,18.0,18.0,1.0,2898619327-366362.jpg,2964216465-219242.jpg,A1BH4K9Z8JWLZ1
859,2.0,left,left,1.0,1.3097,0.0,19.0,19.0,19.0,1.0,2981241414-145842.jpg,2874301404-139813.jpg,A1BH4K9Z8JWLZ1
860,3.0,right,left,0.0,3.3223,0.0,20.0,20.0,20.0,1.0,2864909447-362146.jpg,2460547467-349422.jpg,A1BH4K9Z8JWLZ1
861,2.0,right,left,0.0,1.4854,0.0,21.0,21.0,21.0,1.0,2883268412-365899.jpg,2864910426-287204.jpg,A1BH4K9Z8JWLZ1
862,3.0,left,left,1.0,1.4129,0.0,22.0,22.0,22.0,1.0,2874302418-65979.jpg,2238578544-111698.jpg,A1BH4K9Z8JWLZ1
863,2.0,left,left,1.0,6.1819,0.0,23.0,23.0,23.0,1.0,2964213381-294060.jpg,2458348012-349114.jpg,A1BH4K9Z8JWLZ1
864,1.0,left,left,1.0,2.8581,0.0,24.0,24.0,24.0,1.0,2898635428-69104.jpg,2446759803-49250.jpg,A1BH4K9Z8JWLZ1
865,1.0,right,left,0.0,1.248,0.0,25.0,25.0,25.0,1.0,2964218374-144968.jpg,2964218374-144967.jpg,A1BH4K9Z8JWLZ1
866,1.0,left,left,1.0,0.8041,0.0,26.0,26.0,26.0,1.0,2452380832-348593.jpg,2238328478-11678.jpg,A1BH4K9Z8JWLZ1
867,2.0,right,left,0.0,4.3187,0.0,27.0,27.0,27.0,1.0,2446758985-197610.jpg,2901939379-143479.jpg,A1BH4K9Z8JWLZ1
868,3.0,left,left,1.0,1.2522,0.0,28.0,28.0,28.0,1.0,2901947423-70311.jpg,2238577590-185467.jpg,A1BH4K9Z8JWLZ1
869,2.0,right,left,0.0,11.6938,0.0,29.0,29.0,29.0,1.0,2898632385-217138.jpg,2452381505-199546.jpg,A1BH4K9Z8JWLZ1
870,3.0,left,left,1.0,0.9904,0.0,30.0,30.0,30.0,1.0,2883273443-68193.jpg,2898627427-366763.jpg,A1BH4K9Z8JWLZ1
871,3.0,right,left,0.0,1.6934,0.0,31.0,31.0,31.0,1.0,2964220333-71258.jpg,2238580740-186218.jpg,A1BH4K9Z8JWLZ1
872,1.0,left,left,1.0,0.7507,0.0,32.0,32.0,32.0,1.0,2460547467-349421.jpg,2898631394-142727.jpg,A1BH4K9Z8JWLZ1
873,3.0,left,left,1.0,1.0663,0.0,33.0,33.0,33.0,1.0,2874301407-363895.jpg,2901947323-70275.jpg,A1BH4K9Z8JWLZ1
874,2.0,left,left,1.0,1.1504,0.0,34.0,34.0,34.0,1.0,2512875899-126682.jpg,2592380177-354628.jpg,A1BH4K9Z8JWLZ1
875,1.0,right,right,1.0,1.4325,0.0,35.0,35.0,35.0,1.0,2898626385-216899.jpg,2986451363-73599.jpg,A1BH4K9Z8JWLZ1
876,2.0,left,left,1.0,3.7021,0.0,36.0,36.0,36.0,1.0,2446758985-197609.jpg,2864909447-362144.jpg,A1BH4K9Z8JWLZ1
877,2.0,right,left,0.0,1.0078,0.0,37.0,37.0,37.0,1.0,2981236443-71859.jpg,2898624426-291546.jpg,A1BH4K9Z8JWLZ1
878,3.0,left,right,0.0,1.451,0.0,38.0,38.0,38.0,1.0,2238572663-35822.jpg,2864903351-286874.jpg,A1BH4K9Z8JWLZ1
879,2.0,left,left,1.0,1.1599,0.0,39.0,39.0,39.0,1.0,2238480677-317399.jpg,2238573546-258454.jpg,A1BH4K9Z8JWLZ1
880,2.0,left,left,1.0,4.1646,0.0,40.0,40.0,40.0,1.0,2898618390-216538.jpg,2901939327-367670.jpg,A1BH4K9Z8JWLZ1
881,3.0,right,left,0.0,1.9668,0.0,41.0,41.0,41.0,1.0,2964207374-144577.jpg,2898617468-68274.jpg,A1BH4K9Z8JWLZ1
882,1.0,right,left,0.0,0.8543,0.0,42.0,42.0,42.0,1.0,2981240424-145794.jpg,2964222378-71332.jpg,A1BH4K9Z8JWLZ1
883,1.0,left,left,1.0,0.8483,0.0,43.0,43.0,43.0,1.0,2874303365-214262.jpg,2274829821-263682.jpg,A1BH4K9Z8JWLZ1
884,2.0,right,right,1.0,1.1504,0.0,44.0,44.0,44.0,1.0,2901942443-69923.jpg,2874299429-139695.jpg,A1BH4K9Z8JWLZ1
885,2.0,left,left,1.0,1.0184,0.0,45.0,45.0,45.0,1.0,2868474407-362883.jpg,2981246400-220363.jpg,A1BH4K9Z8JWLZ1
886,3.0,right,left,0.0,0.9198,0.0,46.0,46.0,46.0,1.0,2901942443-69925.jpg,2986451363-73598.jpg,A1BH4K9Z8JWLZ1
887,3.0,right,right,1.0,1.1563,0.0,47.0,47.0,47.0,1.0,2238531493-28260.jpg,2575120738-55529.jpg,A1BH4K9Z8JWLZ1
888,2.0,right,left,0.0,1.0549,0.0,48.0,48.0,48.0,1.0,2864901386-286797.jpg,2592380177-354626.jpg,A1BH4K9Z8JWLZ1
889,3.0,right,left,0.0,2.2669,0.0,49.0,49.0,49.0,1.0,2238481198-19821.jpg,2901952513-70703.jpg,A1BH4K9Z8JWLZ1
890,3.0,left,left,1.0,1.7662,0.0,50.0,50.0,50.0,1.0,2864907432-362042.jpg,2989726338-74002.jpg,A1BH4K9Z8JWLZ1
891,1.0,right,right,1.0,7.8173,0.0,51.0,51.0,51.0,1.0,2237944827-301472.jpg,2898634397-367080.jpg,A1BH4K9Z8JWLZ1
892,1.0,left,right,0.0,2.1553,0.0,52.0,52.0,52.0,1.0,2458347385-199723.jpg,2238480434-93829.jpg,A1BH4K9Z8JWLZ1
893,3.0,right,left,0.0,2.6611,0.0,53.0,53.0,53.0,1.0,2901941438-69835.jpg,2460547508-51571.jpg,A1BH4K9Z8JWLZ1
894,1.0,right,right,1.0,1.0499,0.0,54.0,54.0,54.0,1.0,2238471391-240918.jpg,2238425482-313537.jpg,A1BH4K9Z8JWLZ1
895,3.0,right,right,1.0,1.3529,0.0,55.0,55.0,55.0,1.0,2901951392-368654.jpg,2446759803-49249.jpg,A1BH4K9Z8JWLZ1
896,2.0,left,left,1.0,0.871,0.0,56.0,56.0,56.0,1.0,2238428357-313623.jpg,2984615361-295509.jpg,A1BH4K9Z8JWLZ1
897,2.0,right,right,1.0,2.1726,0.0,57.0,57.0,57.0,1.0,2864900357-361688.jpg,2238481928-19949.jpg,A1BH4K9Z8JWLZ1
898,1.0,left,left,1.0,2.1326,0.0,58.0,58.0,58.0,1.0,2981231403-71642.jpg,2579432519-130698.jpg,A1BH4K9Z8JWLZ1
899,3.0,right,left,0.0,2.1215,0.0,59.0,59.0,59.0,1.0,2238436252-314037.jpg,2883268412-365898.jpg,A1BH4K9Z8JWLZ1
900,1.0,left,left,1.0,3.1578,0.0,0.0,0.0,0.0,1.0,2898635427-367120.jpg,2964221435-219434.jpg,AIB8QLWO1TVS
901,1.0,left,left,1.0,2.7109,0.0,1.0,1.0,1.0,1.0,2986451363-73599.jpg,2898626385-216899.jpg,AIB8QLWO1TVS
