,index,demo_encoding_loop.thisTrialN,DemoImage,DemoCorrect,demo_encoding_response.rt,demo_encoding_response.keys,index,demo_test_response.keys,demo_test_response.corr,demo_test_response.rt,demo_test_loop.thisTrialN,DemoImage1,DemoImage2,DemoCorrectTest,subject
0,4,0.0,flower1.jpg,,,,12.0,right,0.0,2.4523,0.0,flower1.jpg,flower1_pair.jpg,left,A3SSIUMI7ONK5W_2022-09-25_04h10.26.271.csv
1,5,1.0,flower2.jpg,,,,13.0,left,0.0,0.9823,1.0,flower2_pair.jpg,flower2.jpg,right,A3SSIUMI7ONK5W_2022-09-25_04h10.26.271.csv
2,6,2.0,left.jpg,left,,,14.0,left,1.0,1.3826,2.0,flower3.jpg,flower3_pair.jpg,left,A3SSIUMI7ONK5W_2022-09-25_04h10.26.271.csv
3,7,3.0,flower3.jpg,,,,15.0,right,0.0,1.4789,3.0,flower4.jpg,flower4_pair.jpg,left,A3SSIUMI7ONK5W_2022-09-25_04h10.26.271.csv
4,8,4.0,flower4.jpg,,,,16.0,left,0.0,1.0754,4.0,flower5_pair.jpg,flower5.jpg,right,A3SSIUMI7ONK5W_2022-09-25_04h10.26.271.csv
5,9,5.0,flower5.jpg,,,,17.0,right,0.0,0.9845,5.0,flower6.jpg,flower6_pair.jpg,left,A3SSIUMI7ONK5W_2022-09-25_04h10.26.271.csv
6,10,6.0,flower6.jpg,,,,,,,,,,,,A3SSIUMI7ONK5W_2022-09-25_04h10.26.271.csv
7,4,0.0,flower1.jpg,,,,12.0,left,1.0,2.8512,0.0,flower1.jpg,flower1_pair.jpg,left,A2LMSIDVE4E4IO_2022-09-25_06h14.30.418.csv
8,5,1.0,flower2.jpg,,,,13.0,left,0.0,1.369,1.0,flower2_pair.jpg,flower2.jpg,right,A2LMSIDVE4E4IO_2022-09-25_06h14.30.418.csv
9,6,2.0,left.jpg,left,1.9058,left,14.0,left,1.0,2.3436,2.0,flower3.jpg,flower3_pair.jpg,left,A2LMSIDVE4E4IO_2022-09-25_06h14.30.418.csv
10,7,3.0,flower3.jpg,,,,15.0,right,0.0,1.0746,3.0,flower4.jpg,flower4_pair.jpg,left,A2LMSIDVE4E4IO_2022-09-25_06h14.30.418.csv
11,8,4.0,flower4.jpg,,,,16.0,left,0.0,1.494,4.0,flower5_pair.jpg,flower5.jpg,right,A2LMSIDVE4E4IO_2022-09-25_06h14.30.418.csv
12,9,5.0,flower5.jpg,,,,17.0,right,0.0,2.1315,5.0,flower6.jpg,flower6_pair.jpg,left,A2LMSIDVE4E4IO_2022-09-25_06h14.30.418.csv
13,10,6.0,flower6.jpg,,,,,,,,,,,,A2LMSIDVE4E4IO_2022-09-25_06h14.30.418.csv
14,4,0.0,flower1.jpg,,,,12.0,left,1.0,175.0845,0.0,flower1.jpg,flower1_pair.jpg,left,A2TI9ZTXN1GNTV_2022-09-25_06h13.01.777.csv
15,5,1.0,flower2.jpg,,,,13.0,right,1.0,0.1624,1.0,flower2_pair.jpg,flower2.jpg,right,A2TI9ZTXN1GNTV_2022-09-25_06h13.01.777.csv
16,6,2.0,left.jpg,left,,,14.0,right,0.0,1.014,2.0,flower3.jpg,flower3_pair.jpg,left,A2TI9ZTXN1GNTV_2022-09-25_06h13.01.777.csv
17,7,3.0,flower3.jpg,,,,15.0,right,0.0,1.488,3.0,flower4.jpg,flower4_pair.jpg,left,A2TI9ZTXN1GNTV_2022-09-25_06h13.01.777.csv
18,8,4.0,flower4.jpg,,,,16.0,left,0.0,0.3189,4.0,flower5_pair.jpg,flower5.jpg,right,A2TI9ZTXN1GNTV_2022-09-25_06h13.01.777.csv
19,9,5.0,flower5.jpg,,,,17.0,right,0.0,0.1603,5.0,flower6.jpg,flower6_pair.jpg,left,A2TI9ZTXN1GNTV_2022-09-25_06h13.01.777.csv
20,10,6.0,flower6.jpg,,,,,,,,,,,,A2TI9ZTXN1GNTV_2022-09-25_06h13.01.777.csv
21,4,0.0,flower1.jpg,,,,12.0,left,1.0,6.3239,0.0,flower1.jpg,flower1_pair.jpg,left,A3DFUI6OKBNNGI_2022-09-25_06h15.18.506.csv
22,5,1.0,flower2.jpg,,,,13.0,left,0.0,3.355,1.0,flower2_pair.jpg,flower2.jpg,right,A3DFUI6OKBNNGI_2022-09-25_06h15.18.506.csv
23,6,2.0,left.jpg,left,1.7772,right,14.0,left,1.0,2.6832,2.0,flower3.jpg,flower3_pair.jpg,left,A3DFUI6OKBNNGI_2022-09-25_06h15.18.506.csv
24,7,3.0,flower3.jpg,,,,15.0,left,1.0,1.6835,3.0,flower4.jpg,flower4_pair.jpg,left,A3DFUI6OKBNNGI_2022-09-25_06h15.18.506.csv
25,8,4.0,flower4.jpg,,,,16.0,right,1.0,1.9664,4.0,flower5_pair.jpg,flower5.jpg,right,A3DFUI6OKBNNGI_2022-09-25_06h15.18.506.csv
26,9,5.0,flower5.jpg,,,,17.0,left,1.0,1.3269,5.0,flower6.jpg,flower6_pair.jpg,left,A3DFUI6OKBNNGI_2022-09-25_06h15.18.506.csv
27,10,6.0,flower6.jpg,,,,,,,,,,,,A3DFUI6OKBNNGI_2022-09-25_06h15.18.506.csv
28,4,0.0,flower1.jpg,,,,12.0,right,0.0,2.5066,0.0,flower1.jpg,flower1_pair.jpg,left,A1DEYILIW8BKPC_2022-09-25_06h18.06.761.csv
29,5,1.0,flower2.jpg,,,,13.0,left,0.0,1.0591,1.0,flower2_pair.jpg,flower2.jpg,right,A1DEYILIW8BKPC_2022-09-25_06h18.06.761.csv
30,6,2.0,left.jpg,left,1.79,left,14.0,right,0.0,0.7678,2.0,flower3.jpg,flower3_pair.jpg,left,A1DEYILIW8BKPC_2022-09-25_06h18.06.761.csv
31,7,3.0,flower3.jpg,,,,15.0,left,1.0,0.7715,3.0,flower4.jpg,flower4_pair.jpg,left,A1DEYILIW8BKPC_2022-09-25_06h18.06.761.csv
32,8,4.0,flower4.jpg,,,,16.0,right,1.0,1.4385,4.0,flower5_pair.jpg,flower5.jpg,right,A1DEYILIW8BKPC_2022-09-25_06h18.06.761.csv
33,9,5.0,flower5.jpg,,,,17.0,left,1.0,0.7765,5.0,flower6.jpg,flower6_pair.jpg,left,A1DEYILIW8BKPC_2022-09-25_06h18.06.761.csv
34,10,6.0,flower6.jpg,,,,,,,,,,,,A1DEYILIW8BKPC_2022-09-25_06h18.06.761.csv
35,4,0.0,flower1.jpg,,,,12.0,left,1.0,6.528,0.0,flower1.jpg,flower1_pair.jpg,left,A5JUTCI1XLTTD_2022-09-25_06h12.28.721.csv
36,5,1.0,flower2.jpg,,,,13.0,left,0.0,13.2811,1.0,flower2_pair.jpg,flower2.jpg,right,A5JUTCI1XLTTD_2022-09-25_06h12.28.721.csv
37,6,2.0,left.jpg,left,,,14.0,left,1.0,2.4895,2.0,flower3.jpg,flower3_pair.jpg,left,A5JUTCI1XLTTD_2022-09-25_06h12.28.721.csv
38,7,3.0,flower3.jpg,,,,15.0,left,1.0,2.4697,3.0,flower4.jpg,flower4_pair.jpg,left,A5JUTCI1XLTTD_2022-09-25_06h12.28.721.csv
39,8,4.0,flower4.jpg,,,,16.0,right,1.0,2.9901,4.0,flower5_pair.jpg,flower5.jpg,right,A5JUTCI1XLTTD_2022-09-25_06h12.28.721.csv
40,9,5.0,flower5.jpg,,,,17.0,left,1.0,2.3009,5.0,flower6.jpg,flower6_pair.jpg,left,A5JUTCI1XLTTD_2022-09-25_06h12.28.721.csv
41,10,6.0,flower6.jpg,,,,,,,,,,,,A5JUTCI1XLTTD_2022-09-25_06h12.28.721.csv
42,4,0.0,flower1.jpg,,,,12.0,left,1.0,2.9413,0.0,flower1.jpg,flower1_pair.jpg,left,A1LSSI3O205X7F_2022-09-25_06h19.10.605.csv
43,5,1.0,flower2.jpg,,,,13.0,right,1.0,2.9422,1.0,flower2_pair.jpg,flower2.jpg,right,A1LSSI3O205X7F_2022-09-25_06h19.10.605.csv
44,6,2.0,left.jpg,left,,,14.0,left,1.0,1.2306,2.0,flower3.jpg,flower3_pair.jpg,left,A1LSSI3O205X7F_2022-09-25_06h19.10.605.csv
45,7,3.0,flower3.jpg,,,,15.0,right,0.0,1.3467,3.0,flower4.jpg,flower4_pair.jpg,left,A1LSSI3O205X7F_2022-09-25_06h19.10.605.csv
46,8,4.0,flower4.jpg,,,,16.0,right,1.0,1.9802,4.0,flower5_pair.jpg,flower5.jpg,right,A1LSSI3O205X7F_2022-09-25_06h19.10.605.csv
47,9,5.0,flower5.jpg,,,,17.0,left,1.0,2.4553,5.0,flower6.jpg,flower6_pair.jpg,left,A1LSSI3O205X7F_2022-09-25_06h19.10.605.csv
48,10,6.0,flower6.jpg,,,,,,,,,,,,A1LSSI3O205X7F_2022-09-25_06h19.10.605.csv
49,4,0.0,flower1.jpg,,,,12.0,right,0.0,3.4882,0.0,flower1.jpg,flower1_pair.jpg,left,A17JUIY13I7RL8_2022-09-25_06h11.23.223.csv
50,5,1.0,flower2.jpg,,,,13.0,left,0.0,1.3417,1.0,flower2_pair.jpg,flower2.jpg,right,A17JUIY13I7RL8_2022-09-25_06h11.23.223.csv
51,6,2.0,left.jpg,left,1.5821,left,14.0,left,1.0,1.5222,2.0,flower3.jpg,flower3_pair.jpg,left,A17JUIY13I7RL8_2022-09-25_06h11.23.223.csv
52,7,3.0,flower3.jpg,,,,15.0,right,0.0,1.4924,3.0,flower4.jpg,flower4_pair.jpg,left,A17JUIY13I7RL8_2022-09-25_06h11.23.223.csv
53,8,4.0,flower4.jpg,,,,16.0,left,0.0,1.7034,4.0,flower5_pair.jpg,flower5.jpg,right,A17JUIY13I7RL8_2022-09-25_06h11.23.223.csv
54,9,5.0,flower5.jpg,,,,17.0,right,0.0,1.7002,5.0,flower6.jpg,flower6_pair.jpg,left,A17JUIY13I7RL8_2022-09-25_06h11.23.223.csv
55,10,6.0,flower6.jpg,,,,,,,,,,,,A17JUIY13I7RL8_2022-09-25_06h11.23.223.csv
56,4,0.0,flower1.jpg,,,,12.0,right,0.0,4.1846,0.0,flower1.jpg,flower1_pair.jpg,left,A344BXT88DM2ZH_2022-09-25_06h13.49.540.csv
57,5,1.0,flower2.jpg,,,,13.0,left,0.0,1.8431,1.0,flower2_pair.jpg,flower2.jpg,right,A344BXT88DM2ZH_2022-09-25_06h13.49.540.csv
58,6,2.0,left.jpg,left,1.874,left,14.0,left,1.0,1.6587,2.0,flower3.jpg,flower3_pair.jpg,left,A344BXT88DM2ZH_2022-09-25_06h13.49.540.csv
59,7,3.0,flower3.jpg,,,,15.0,right,0.0,1.3052,3.0,flower4.jpg,flower4_pair.jpg,left,A344BXT88DM2ZH_2022-09-25_06h13.49.540.csv
60,8,4.0,flower4.jpg,,,,16.0,right,1.0,2.0514,4.0,flower5_pair.jpg,flower5.jpg,right,A344BXT88DM2ZH_2022-09-25_06h13.49.540.csv
61,9,5.0,flower5.jpg,,,,17.0,left,1.0,1.669,5.0,flower6.jpg,flower6_pair.jpg,left,A344BXT88DM2ZH_2022-09-25_06h13.49.540.csv
62,10,6.0,flower6.jpg,,,,,,,,,,,,A344BXT88DM2ZH_2022-09-25_06h13.49.540.csv
63,4,0.0,flower1.jpg,,,,12.0,right,0.0,1.7033,0.0,flower1.jpg,flower1_pair.jpg,left,A3E0IFFHYQPLFE_2022-09-25_06h24.41.936.csv
64,5,1.0,flower2.jpg,,,,13.0,left,0.0,0.1863,1.0,flower2_pair.jpg,flower2.jpg,right,A3E0IFFHYQPLFE_2022-09-25_06h24.41.936.csv
65,6,2.0,left.jpg,left,0.007,right,14.0,right,0.0,0.0963,2.0,flower3.jpg,flower3_pair.jpg,left,A3E0IFFHYQPLFE_2022-09-25_06h24.41.936.csv
66,7,3.0,flower3.jpg,,,,15.0,left,1.0,0.0071,3.0,flower4.jpg,flower4_pair.jpg,left,A3E0IFFHYQPLFE_2022-09-25_06h24.41.936.csv
67,8,4.0,flower4.jpg,,,,16.0,right,1.0,0.0963,4.0,flower5_pair.jpg,flower5.jpg,right,A3E0IFFHYQPLFE_2022-09-25_06h24.41.936.csv
68,9,5.0,flower5.jpg,,,,17.0,right,0.0,0.1858,5.0,flower6.jpg,flower6_pair.jpg,left,A3E0IFFHYQPLFE_2022-09-25_06h24.41.936.csv
69,10,6.0,flower6.jpg,,,,,,,,,,,,A3E0IFFHYQPLFE_2022-09-25_06h24.41.936.csv
70,4,0.0,flower1.jpg,,,,12.0,left,1.0,2.5253,0.0,flower1.jpg,flower1_pair.jpg,left,A3JQOR9SGS3YFS_2022-09-25_06h14.37.633.csv
71,5,1.0,flower2.jpg,,,,13.0,right,1.0,1.5622,1.0,flower2_pair.jpg,flower2.jpg,right,A3JQOR9SGS3YFS_2022-09-25_06h14.37.633.csv
72,6,2.0,left.jpg,left,1.9364,left,14.0,left,1.0,1.2186,2.0,flower3.jpg,flower3_pair.jpg,left,A3JQOR9SGS3YFS_2022-09-25_06h14.37.633.csv
73,7,3.0,flower3.jpg,,,,15.0,right,0.0,1.2104,3.0,flower4.jpg,flower4_pair.jpg,left,A3JQOR9SGS3YFS_2022-09-25_06h14.37.633.csv
74,8,4.0,flower4.jpg,,,,16.0,right,1.0,2.1502,4.0,flower5_pair.jpg,flower5.jpg,right,A3JQOR9SGS3YFS_2022-09-25_06h14.37.633.csv
75,9,5.0,flower5.jpg,,,,17.0,right,0.0,1.4707,5.0,flower6.jpg,flower6_pair.jpg,left,A3JQOR9SGS3YFS_2022-09-25_06h14.37.633.csv
76,10,6.0,flower6.jpg,,,,,,,,,,,,A3JQOR9SGS3YFS_2022-09-25_06h14.37.633.csv
77,4,0.0,flower1.jpg,,,,12.0,right,0.0,1.9472,0.0,flower1.jpg,flower1_pair.jpg,left,A1KR5B9ABZ7U4O_2022-09-25_06h17.10.359.csv
78,5,1.0,flower2.jpg,,,,13.0,left,0.0,0.1472,1.0,flower2_pair.jpg,flower2.jpg,right,A1KR5B9ABZ7U4O_2022-09-25_06h17.10.359.csv
79,6,2.0,left.jpg,left,0.0078,right,14.0,left,1.0,0.2535,2.0,flower3.jpg,flower3_pair.jpg,left,A1KR5B9ABZ7U4O_2022-09-25_06h17.10.359.csv
80,7,3.0,flower3.jpg,,,,15.0,left,1.0,0.1364,3.0,flower4.jpg,flower4_pair.jpg,left,A1KR5B9ABZ7U4O_2022-09-25_06h17.10.359.csv
81,8,4.0,flower4.jpg,,,,16.0,left,0.0,0.135,4.0,flower5_pair.jpg,flower5.jpg,right,A1KR5B9ABZ7U4O_2022-09-25_06h17.10.359.csv
82,9,5.0,flower5.jpg,,,,17.0,left,1.0,0.1252,5.0,flower6.jpg,flower6_pair.jpg,left,A1KR5B9ABZ7U4O_2022-09-25_06h17.10.359.csv
83,10,6.0,flower6.jpg,,,,,,,,,,,,A1KR5B9ABZ7U4O_2022-09-25_06h17.10.359.csv
84,4,0.0,flower1.jpg,,,,12.0,left,1.0,2.513,0.0,flower1.jpg,flower1_pair.jpg,left,A38L8T6E70LVYE_2022-09-25_06h23.23.531.csv
85,5,1.0,flower2.jpg,,,,13.0,left,0.0,2.1972,1.0,flower2_pair.jpg,flower2.jpg,right,A38L8T6E70LVYE_2022-09-25_06h23.23.531.csv
86,6,2.0,left.jpg,left,1.8574,left,14.0,left,1.0,2.2666,2.0,flower3.jpg,flower3_pair.jpg,left,A38L8T6E70LVYE_2022-09-25_06h23.23.531.csv
87,7,3.0,flower3.jpg,,,,15.0,left,1.0,1.8991,3.0,flower4.jpg,flower4_pair.jpg,left,A38L8T6E70LVYE_2022-09-25_06h23.23.531.csv
88,8,4.0,flower4.jpg,,,,16.0,right,1.0,2.1257,4.0,flower5_pair.jpg,flower5.jpg,right,A38L8T6E70LVYE_2022-09-25_06h23.23.531.csv
89,9,5.0,flower5.jpg,,,,17.0,left,1.0,1.3928,5.0,flower6.jpg,flower6_pair.jpg,left,A38L8T6E70LVYE_2022-09-25_06h23.23.531.csv
90,10,6.0,flower6.jpg,,,,,,,,,,,,A38L8T6E70LVYE_2022-09-25_06h23.23.531.csv
91,4,0.0,flower1.jpg,,,,12.0,left,1.0,3.4683,0.0,flower1.jpg,flower1_pair.jpg,left,ATOUNVWV5W8W2_2022-09-25_06h19.29.701.csv
92,5,1.0,flower2.jpg,,,,13.0,right,1.0,1.7633,1.0,flower2_pair.jpg,flower2.jpg,right,ATOUNVWV5W8W2_2022-09-25_06h19.29.701.csv
93,6,2.0,left.jpg,left,,,14.0,left,1.0,1.3404,2.0,flower3.jpg,flower3_pair.jpg,left,ATOUNVWV5W8W2_2022-09-25_06h19.29.701.csv
94,7,3.0,flower3.jpg,,,,15.0,right,0.0,1.2593,3.0,flower4.jpg,flower4_pair.jpg,left,ATOUNVWV5W8W2_2022-09-25_06h19.29.701.csv
95,8,4.0,flower4.jpg,,,,16.0,left,0.0,1.9997,4.0,flower5_pair.jpg,flower5.jpg,right,ATOUNVWV5W8W2_2022-09-25_06h19.29.701.csv
96,9,5.0,flower5.jpg,,,,17.0,left,1.0,1.4492,5.0,flower6.jpg,flower6_pair.jpg,left,ATOUNVWV5W8W2_2022-09-25_06h19.29.701.csv
97,10,6.0,flower6.jpg,,,,,,,,,,,,ATOUNVWV5W8W2_2022-09-25_06h19.29.701.csv
98,4,0.0,flower1.jpg,,,,12.0,left,1.0,6.111,0.0,flower1.jpg,flower1_pair.jpg,left,A2YIOEOXTOWKMK_2022-09-25_06h15.56.225.csv
99,5,1.0,flower2.jpg,,,,13.0,left,0.0,7.17,1.0,flower2_pair.jpg,flower2.jpg,right,A2YIOEOXTOWKMK_2022-09-25_06h15.56.225.csv
100,6,2.0,left.jpg,left,,,14.0,left,1.0,38.733,2.0,flower3.jpg,flower3_pair.jpg,left,A2YIOEOXTOWKMK_2022-09-25_06h15.56.225.csv
101,7,3.0,flower3.jpg,,,,15.0,right,0.0,7.985,3.0,flower4.jpg,flower4_pair.jpg,left,A2YIOEOXTOWKMK_2022-09-25_06h15.56.225.csv
102,8,4.0,flower4.jpg,,,,16.0,left,0.0,8.507,4.0,flower5_pair.jpg,flower5.jpg,right,A2YIOEOXTOWKMK_2022-09-25_06h15.56.225.csv
103,9,5.0,flower5.jpg,,,,17.0,left,1.0,3.516,5.0,flower6.jpg,flower6_pair.jpg,left,A2YIOEOXTOWKMK_2022-09-25_06h15.56.225.csv
104,10,6.0,flower6.jpg,,,,,,,,,,,,A2YIOEOXTOWKMK_2022-09-25_06h15.56.225.csv
105,4,0.0,flower1.jpg,,,,12.0,right,0.0,2.5506,0.0,flower1.jpg,flower1_pair.jpg,left,AS66AO98XNCUP_2022-09-25_06h15.28.229.csv
106,5,1.0,flower2.jpg,,,,13.0,right,1.0,2.0749,1.0,flower2_pair.jpg,flower2.jpg,right,AS66AO98XNCUP_2022-09-25_06h15.28.229.csv
107,6,2.0,left.jpg,left,0.1013,right,14.0,right,0.0,2.65,2.0,flower3.jpg,flower3_pair.jpg,left,AS66AO98XNCUP_2022-09-25_06h15.28.229.csv
108,7,3.0,flower3.jpg,,,,15.0,right,0.0,1.6551,3.0,flower4.jpg,flower4_pair.jpg,left,AS66AO98XNCUP_2022-09-25_06h15.28.229.csv
109,8,4.0,flower4.jpg,,,,16.0,right,1.0,2.1605,4.0,flower5_pair.jpg,flower5.jpg,right,AS66AO98XNCUP_2022-09-25_06h15.28.229.csv
110,9,5.0,flower5.jpg,,,,17.0,right,0.0,1.1475,5.0,flower6.jpg,flower6_pair.jpg,left,AS66AO98XNCUP_2022-09-25_06h15.28.229.csv
111,10,6.0,flower6.jpg,,,,,,,,,,,,AS66AO98XNCUP_2022-09-25_06h15.28.229.csv
112,4,0.0,flower1.jpg,,,,12.0,right,0.0,523.7711,0.0,flower1.jpg,flower1_pair.jpg,left,A1G75OL3VL0RPJ_2022-09-25_06h12.40.678.csv
113,5,1.0,flower2.jpg,,,,13.0,right,1.0,17.392,1.0,flower2_pair.jpg,flower2.jpg,right,A1G75OL3VL0RPJ_2022-09-25_06h12.40.678.csv
114,6,2.0,left.jpg,left,,,14.0,right,0.0,3.1687,2.0,flower3.jpg,flower3_pair.jpg,left,A1G75OL3VL0RPJ_2022-09-25_06h12.40.678.csv
115,7,3.0,flower3.jpg,,,,15.0,right,0.0,4.0672,3.0,flower4.jpg,flower4_pair.jpg,left,A1G75OL3VL0RPJ_2022-09-25_06h12.40.678.csv
116,8,4.0,flower4.jpg,,,,16.0,right,1.0,4.9735,4.0,flower5_pair.jpg,flower5.jpg,right,A1G75OL3VL0RPJ_2022-09-25_06h12.40.678.csv
117,9,5.0,flower5.jpg,,,,17.0,right,0.0,13.1563,5.0,flower6.jpg,flower6_pair.jpg,left,A1G75OL3VL0RPJ_2022-09-25_06h12.40.678.csv
118,10,6.0,flower6.jpg,,,,,,,,,,,,A1G75OL3VL0RPJ_2022-09-25_06h12.40.678.csv
119,4,0.0,flower1.jpg,,,,12.0,left,1.0,6.5182,0.0,flower1.jpg,flower1_pair.jpg,left,A1F2APQMJSQVFK_2022-09-25_05h28.15.707.csv
120,5,1.0,flower2.jpg,,,,13.0,left,0.0,6.2563,1.0,flower2_pair.jpg,flower2.jpg,right,A1F2APQMJSQVFK_2022-09-25_05h28.15.707.csv
121,6,2.0,left.jpg,left,2.6012,left,14.0,left,1.0,3.3538,2.0,flower3.jpg,flower3_pair.jpg,left,A1F2APQMJSQVFK_2022-09-25_05h28.15.707.csv
122,7,3.0,flower3.jpg,,,,15.0,right,0.0,2.6897,3.0,flower4.jpg,flower4_pair.jpg,left,A1F2APQMJSQVFK_2022-09-25_05h28.15.707.csv
123,8,4.0,flower4.jpg,,,,16.0,left,0.0,4.2971,4.0,flower5_pair.jpg,flower5.jpg,right,A1F2APQMJSQVFK_2022-09-25_05h28.15.707.csv
124,9,5.0,flower5.jpg,,,,17.0,right,0.0,3.7912,5.0,flower6.jpg,flower6_pair.jpg,left,A1F2APQMJSQVFK_2022-09-25_05h28.15.707.csv
125,10,6.0,flower6.jpg,,,,,,,,,,,,A1F2APQMJSQVFK_2022-09-25_05h28.15.707.csv
126,4,0.0,flower1.jpg,,,,12.0,left,1.0,3.6903,0.0,flower1.jpg,flower1_pair.jpg,left,A2Z9PNETGAD9MS_2022-09-25_06h20.38.032.csv
127,5,1.0,flower2.jpg,,,,13.0,right,1.0,3.451,1.0,flower2_pair.jpg,flower2.jpg,right,A2Z9PNETGAD9MS_2022-09-25_06h20.38.032.csv
128,6,2.0,left.jpg,left,1.4877,left,14.0,left,1.0,2.0027,2.0,flower3.jpg,flower3_pair.jpg,left,A2Z9PNETGAD9MS_2022-09-25_06h20.38.032.csv
129,7,3.0,flower3.jpg,,,,15.0,left,1.0,2.7881,3.0,flower4.jpg,flower4_pair.jpg,left,A2Z9PNETGAD9MS_2022-09-25_06h20.38.032.csv
130,8,4.0,flower4.jpg,,,,16.0,right,1.0,2.7808,4.0,flower5_pair.jpg,flower5.jpg,right,A2Z9PNETGAD9MS_2022-09-25_06h20.38.032.csv
131,9,5.0,flower5.jpg,,,,17.0,left,1.0,2.0982,5.0,flower6.jpg,flower6_pair.jpg,left,A2Z9PNETGAD9MS_2022-09-25_06h20.38.032.csv
132,10,6.0,flower6.jpg,,,,,,,,,,,,A2Z9PNETGAD9MS_2022-09-25_06h20.38.032.csv
133,4,0.0,flower1.jpg,,,,12.0,right,0.0,3.05,0.0,flower1.jpg,flower1_pair.jpg,left,A2N8PVHOT7XR1W_2022-09-25_06h34.23.376.csv
134,5,1.0,flower2.jpg,,,,13.0,right,1.0,0.3976,1.0,flower2_pair.jpg,flower2.jpg,right,A2N8PVHOT7XR1W_2022-09-25_06h34.23.376.csv
135,6,2.0,left.jpg,left,0.0072,right,14.0,left,1.0,0.0082,2.0,flower3.jpg,flower3_pair.jpg,left,A2N8PVHOT7XR1W_2022-09-25_06h34.23.376.csv
136,7,3.0,flower3.jpg,,,,15.0,right,0.0,0.1031,3.0,flower4.jpg,flower4_pair.jpg,left,A2N8PVHOT7XR1W_2022-09-25_06h34.23.376.csv
137,8,4.0,flower4.jpg,,,,16.0,left,0.0,0.1069,4.0,flower5_pair.jpg,flower5.jpg,right,A2N8PVHOT7XR1W_2022-09-25_06h34.23.376.csv
138,9,5.0,flower5.jpg,,,,17.0,right,0.0,0.0084,5.0,flower6.jpg,flower6_pair.jpg,left,A2N8PVHOT7XR1W_2022-09-25_06h34.23.376.csv
139,10,6.0,flower6.jpg,,,,,,,,,,,,A2N8PVHOT7XR1W_2022-09-25_06h34.23.376.csv
140,4,0.0,flower1.jpg,,,,12.0,left,1.0,6.9538,0.0,flower1.jpg,flower1_pair.jpg,left,A39Z3FVA8SIQFE_2022-09-25_06h31.33.884.csv
141,5,1.0,flower2.jpg,,,,13.0,right,1.0,3.2436,1.0,flower2_pair.jpg,flower2.jpg,right,A39Z3FVA8SIQFE_2022-09-25_06h31.33.884.csv
142,6,2.0,left.jpg,left,,,14.0,left,1.0,1.7427,2.0,flower3.jpg,flower3_pair.jpg,left,A39Z3FVA8SIQFE_2022-09-25_06h31.33.884.csv
143,7,3.0,flower3.jpg,,,,15.0,left,1.0,2.1524,3.0,flower4.jpg,flower4_pair.jpg,left,A39Z3FVA8SIQFE_2022-09-25_06h31.33.884.csv
144,8,4.0,flower4.jpg,,,,16.0,right,1.0,25.4942,4.0,flower5_pair.jpg,flower5.jpg,right,A39Z3FVA8SIQFE_2022-09-25_06h31.33.884.csv
145,9,5.0,flower5.jpg,,,,17.0,left,1.0,5.2038,5.0,flower6.jpg,flower6_pair.jpg,left,A39Z3FVA8SIQFE_2022-09-25_06h31.33.884.csv
146,10,6.0,flower6.jpg,,,,,,,,,,,,A39Z3FVA8SIQFE_2022-09-25_06h31.33.884.csv
147,4,0.0,flower1.jpg,,,,12.0,left,1.0,1.5234,0.0,flower1.jpg,flower1_pair.jpg,left,A2QGCZDG0PIFEL_2022-09-25_04h17.38.834.csv
148,5,1.0,flower2.jpg,,,,13.0,right,1.0,2.503,1.0,flower2_pair.jpg,flower2.jpg,right,A2QGCZDG0PIFEL_2022-09-25_04h17.38.834.csv
149,6,2.0,left.jpg,left,1.1775,left,14.0,left,1.0,1.5379,2.0,flower3.jpg,flower3_pair.jpg,left,A2QGCZDG0PIFEL_2022-09-25_04h17.38.834.csv
150,7,3.0,flower3.jpg,,,,15.0,right,0.0,2.0677,3.0,flower4.jpg,flower4_pair.jpg,left,A2QGCZDG0PIFEL_2022-09-25_04h17.38.834.csv
151,8,4.0,flower4.jpg,,,,16.0,right,1.0,2.478,4.0,flower5_pair.jpg,flower5.jpg,right,A2QGCZDG0PIFEL_2022-09-25_04h17.38.834.csv
152,9,5.0,flower5.jpg,,,,17.0,left,1.0,1.5269,5.0,flower6.jpg,flower6_pair.jpg,left,A2QGCZDG0PIFEL_2022-09-25_04h17.38.834.csv
153,10,6.0,flower6.jpg,,,,,,,,,,,,A2QGCZDG0PIFEL_2022-09-25_04h17.38.834.csv
154,4,0.0,flower1.jpg,,,,12.0,left,1.0,2.5565,0.0,flower1.jpg,flower1_pair.jpg,left,A2LB6A57BDB1X0_2022-09-25_06h29.55.822.csv
155,5,1.0,flower2.jpg,,,,13.0,left,0.0,2.9536,1.0,flower2_pair.jpg,flower2.jpg,right,A2LB6A57BDB1X0_2022-09-25_06h29.55.822.csv
156,6,2.0,left.jpg,left,1.5094,left,14.0,left,1.0,1.7735,2.0,flower3.jpg,flower3_pair.jpg,left,A2LB6A57BDB1X0_2022-09-25_06h29.55.822.csv
157,7,3.0,flower3.jpg,,,,15.0,right,0.0,2.2144,3.0,flower4.jpg,flower4_pair.jpg,left,A2LB6A57BDB1X0_2022-09-25_06h29.55.822.csv
158,8,4.0,flower4.jpg,,,,16.0,right,1.0,1.6385,4.0,flower5_pair.jpg,flower5.jpg,right,A2LB6A57BDB1X0_2022-09-25_06h29.55.822.csv
159,9,5.0,flower5.jpg,,,,17.0,left,1.0,1.7614,5.0,flower6.jpg,flower6_pair.jpg,left,A2LB6A57BDB1X0_2022-09-25_06h29.55.822.csv
160,10,6.0,flower6.jpg,,,,,,,,,,,,A2LB6A57BDB1X0_2022-09-25_06h29.55.822.csv
161,4,0.0,flower1.jpg,,,,12.0,left,1.0,1.5458,0.0,flower1.jpg,flower1_pair.jpg,left,ACXPNVY0QDNHR_2022-09-25_06h00.21.717.csv
162,5,1.0,flower2.jpg,,,,13.0,right,1.0,2.0419,1.0,flower2_pair.jpg,flower2.jpg,right,ACXPNVY0QDNHR_2022-09-25_06h00.21.717.csv
163,6,2.0,left.jpg,left,0.7555,left,14.0,left,1.0,1.1483,2.0,flower3.jpg,flower3_pair.jpg,left,ACXPNVY0QDNHR_2022-09-25_06h00.21.717.csv
164,7,3.0,flower3.jpg,,,,15.0,left,1.0,1.4893,3.0,flower4.jpg,flower4_pair.jpg,left,ACXPNVY0QDNHR_2022-09-25_06h00.21.717.csv
165,8,4.0,flower4.jpg,,,,16.0,right,1.0,1.7182,4.0,flower5_pair.jpg,flower5.jpg,right,ACXPNVY0QDNHR_2022-09-25_06h00.21.717.csv
166,9,5.0,flower5.jpg,,,,17.0,left,1.0,2.3218,5.0,flower6.jpg,flower6_pair.jpg,left,ACXPNVY0QDNHR_2022-09-25_06h00.21.717.csv
167,10,6.0,flower6.jpg,,,,,,,,,,,,ACXPNVY0QDNHR_2022-09-25_06h00.21.717.csv
168,4,0.0,flower1.jpg,,,,12.0,right,0.0,3.4473,0.0,flower1.jpg,flower1_pair.jpg,left,ACNQDKXV6Z7DD_2022-09-25_05h12.20.632.csv
169,5,1.0,flower2.jpg,,,,13.0,right,1.0,0.2947,1.0,flower2_pair.jpg,flower2.jpg,right,ACNQDKXV6Z7DD_2022-09-25_05h12.20.632.csv
170,6,2.0,left.jpg,left,1.4044,left,14.0,right,0.0,0.1027,2.0,flower3.jpg,flower3_pair.jpg,left,ACNQDKXV6Z7DD_2022-09-25_05h12.20.632.csv
171,7,3.0,flower3.jpg,,,,15.0,right,0.0,0.4025,3.0,flower4.jpg,flower4_pair.jpg,left,ACNQDKXV6Z7DD_2022-09-25_05h12.20.632.csv
172,8,4.0,flower4.jpg,,,,16.0,right,1.0,0.2025,4.0,flower5_pair.jpg,flower5.jpg,right,ACNQDKXV6Z7DD_2022-09-25_05h12.20.632.csv
173,9,5.0,flower5.jpg,,,,17.0,right,0.0,0.1029,5.0,flower6.jpg,flower6_pair.jpg,left,ACNQDKXV6Z7DD_2022-09-25_05h12.20.632.csv
174,10,6.0,flower6.jpg,,,,,,,,,,,,ACNQDKXV6Z7DD_2022-09-25_05h12.20.632.csv
175,4,0.0,flower1.jpg,,,,12.0,right,0.0,4.588,0.0,flower1.jpg,flower1_pair.jpg,left,AJY73B73U0TG6_2022-09-25_07h14.39.959.csv
176,5,1.0,flower2.jpg,,,,13.0,right,1.0,1.986,1.0,flower2_pair.jpg,flower2.jpg,right,AJY73B73U0TG6_2022-09-25_07h14.39.959.csv
177,6,2.0,left.jpg,left,2.523,left,14.0,left,1.0,1.657,2.0,flower3.jpg,flower3_pair.jpg,left,AJY73B73U0TG6_2022-09-25_07h14.39.959.csv
178,7,3.0,flower3.jpg,,,,15.0,right,0.0,1.966,3.0,flower4.jpg,flower4_pair.jpg,left,AJY73B73U0TG6_2022-09-25_07h14.39.959.csv
179,8,4.0,flower4.jpg,,,,16.0,left,0.0,3.056,4.0,flower5_pair.jpg,flower5.jpg,right,AJY73B73U0TG6_2022-09-25_07h14.39.959.csv
180,9,5.0,flower5.jpg,,,,17.0,left,1.0,2.386,5.0,flower6.jpg,flower6_pair.jpg,left,AJY73B73U0TG6_2022-09-25_07h14.39.959.csv
181,10,6.0,flower6.jpg,,,,,,,,,,,,AJY73B73U0TG6_2022-09-25_07h14.39.959.csv
182,4,0.0,flower1.jpg,,,,12.0,left,1.0,2.9235,0.0,flower1.jpg,flower1_pair.jpg,left,A1AC4JQFYLQFHV_2022-09-25_07h30.51.911.csv
183,5,1.0,flower2.jpg,,,,13.0,left,0.0,1.5106,1.0,flower2_pair.jpg,flower2.jpg,right,A1AC4JQFYLQFHV_2022-09-25_07h30.51.911.csv
184,6,2.0,left.jpg,left,,,14.0,left,1.0,2.3039,2.0,flower3.jpg,flower3_pair.jpg,left,A1AC4JQFYLQFHV_2022-09-25_07h30.51.911.csv
185,7,3.0,flower3.jpg,,,,15.0,right,0.0,1.5106,3.0,flower4.jpg,flower4_pair.jpg,left,A1AC4JQFYLQFHV_2022-09-25_07h30.51.911.csv
186,8,4.0,flower4.jpg,,,,16.0,left,0.0,1.2919,4.0,flower5_pair.jpg,flower5.jpg,right,A1AC4JQFYLQFHV_2022-09-25_07h30.51.911.csv
187,9,5.0,flower5.jpg,,,,17.0,left,1.0,1.4219,5.0,flower6.jpg,flower6_pair.jpg,left,A1AC4JQFYLQFHV_2022-09-25_07h30.51.911.csv
188,10,6.0,flower6.jpg,,,,,,,,,,,,A1AC4JQFYLQFHV_2022-09-25_07h30.51.911.csv
189,4,0.0,flower1.jpg,,,,12.0,left,1.0,5.543,0.0,flower1.jpg,flower1_pair.jpg,left,A165ZC634AIYVY_2022-09-25_07h39.12.562.csv
190,5,1.0,flower2.jpg,,,,13.0,right,1.0,4.37,1.0,flower2_pair.jpg,flower2.jpg,right,A165ZC634AIYVY_2022-09-25_07h39.12.562.csv
191,6,2.0,left.jpg,left,,,14.0,left,1.0,11.564,2.0,flower3.jpg,flower3_pair.jpg,left,A165ZC634AIYVY_2022-09-25_07h39.12.562.csv
192,7,3.0,flower3.jpg,,,,15.0,right,0.0,3.282,3.0,flower4.jpg,flower4_pair.jpg,left,A165ZC634AIYVY_2022-09-25_07h39.12.562.csv
193,8,4.0,flower4.jpg,,,,16.0,right,1.0,2.175,4.0,flower5_pair.jpg,flower5.jpg,right,A165ZC634AIYVY_2022-09-25_07h39.12.562.csv
194,9,5.0,flower5.jpg,,,,17.0,left,1.0,1.75,5.0,flower6.jpg,flower6_pair.jpg,left,A165ZC634AIYVY_2022-09-25_07h39.12.562.csv
195,10,6.0,flower6.jpg,,,,,,,,,,,,A165ZC634AIYVY_2022-09-25_07h39.12.562.csv
196,4,0.0,flower1.jpg,,,,12.0,right,0.0,4.477,0.0,flower1.jpg,flower1_pair.jpg,left,A1CA2CKNFKL1H5_2022-09-25_07h44.18.926.csv
197,5,1.0,flower2.jpg,,,,13.0,right,1.0,2.759,1.0,flower2_pair.jpg,flower2.jpg,right,A1CA2CKNFKL1H5_2022-09-25_07h44.18.926.csv
198,6,2.0,left.jpg,left,,,14.0,right,0.0,2.776,2.0,flower3.jpg,flower3_pair.jpg,left,A1CA2CKNFKL1H5_2022-09-25_07h44.18.926.csv
199,7,3.0,flower3.jpg,,,,15.0,right,0.0,1.389,3.0,flower4.jpg,flower4_pair.jpg,left,A1CA2CKNFKL1H5_2022-09-25_07h44.18.926.csv
200,8,4.0,flower4.jpg,,,,16.0,left,0.0,2.004,4.0,flower5_pair.jpg,flower5.jpg,right,A1CA2CKNFKL1H5_2022-09-25_07h44.18.926.csv
201,9,5.0,flower5.jpg,,,,17.0,right,0.0,2.165,5.0,flower6.jpg,flower6_pair.jpg,left,A1CA2CKNFKL1H5_2022-09-25_07h44.18.926.csv
202,10,6.0,flower6.jpg,,,,,,,,,,,,A1CA2CKNFKL1H5_2022-09-25_07h44.18.926.csv
203,4,0.0,flower1.jpg,,,,12.0,right,0.0,43.2839,0.0,flower1.jpg,flower1_pair.jpg,left,AE2VPQ86DH4W5_2022-09-25_08h52.36.841.csv
204,5,1.0,flower2.jpg,,,,13.0,right,1.0,0.1071,1.0,flower2_pair.jpg,flower2.jpg,right,AE2VPQ86DH4W5_2022-09-25_08h52.36.841.csv
205,6,2.0,left.jpg,left,,,14.0,right,0.0,0.2133,2.0,flower3.jpg,flower3_pair.jpg,left,AE2VPQ86DH4W5_2022-09-25_08h52.36.841.csv
206,7,3.0,flower3.jpg,,,,15.0,right,0.0,0.1085,3.0,flower4.jpg,flower4_pair.jpg,left,AE2VPQ86DH4W5_2022-09-25_08h52.36.841.csv
207,8,4.0,flower4.jpg,,,,16.0,right,1.0,0.4101,4.0,flower5_pair.jpg,flower5.jpg,right,AE2VPQ86DH4W5_2022-09-25_08h52.36.841.csv
208,9,5.0,flower5.jpg,,,,17.0,right,0.0,0.1109,5.0,flower6.jpg,flower6_pair.jpg,left,AE2VPQ86DH4W5_2022-09-25_08h52.36.841.csv
209,10,6.0,flower6.jpg,,,,,,,,,,,,AE2VPQ86DH4W5_2022-09-25_08h52.36.841.csv
