,layer,correct,test_test_response.keys,test_test_response.corr,test_test_response.rt,trials_2.thisRepN,trials_2.thisTrialN,trials_2.thisN,trials_2.thisIndex,trials_2.ran,image1,image2,subject
0,1.0,right,right,1.0,3.7335,0.0,0.0,0.0,0.0,1.0,2864902304-137862.jpg,2864910426-287204.jpg,A3SSIUMI7ONK5W_2022-09-18_07h12.45.775.csv
1,1.0,left,left,1.0,1.4449,0.0,1.0,1.0,1.0,1.0,2868474407-362883.jpg,2460547732-349518.jpg,A3SSIUMI7ONK5W_2022-09-18_07h12.45.775.csv
2,1.0,left,left,1.0,2.4611,0.0,2.0,2.0,2.0,1.0,2238572663-35822.jpg,2238584894-113161.jpg,A3SSIUMI7ONK5W_2022-09-18_07h12.45.775.csv
3,1.0,left,right,0.0,1.6786,0.0,3.0,3.0,3.0,1.0,2898635427-367120.jpg,2964221435-219434.jpg,A3SSIUMI7ONK5W_2022-09-18_07h12.45.775.csv
4,1.0,right,left,0.0,1.5932,0.0,4.0,4.0,4.0,1.0,2579432519-130698.jpg,2981231403-71642.jpg,A3SSIUMI7ONK5W_2022-09-18_07h12.45.775.csv
5,2.0,left,right,0.0,0.834,0.0,5.0,5.0,5.0,1.0,2964213381-294060.jpg,2458348012-349114.jpg,A3SSIUMI7ONK5W_2022-09-18_07h12.45.775.csv
6,3.0,left,left,1.0,1.6971,0.0,6.0,6.0,6.0,1.0,2874299429-139694.jpg,2883266367-365742.jpg,A3SSIUMI7ONK5W_2022-09-18_07h12.45.775.csv
7,2.0,left,right,0.0,0.9446,0.0,7.0,7.0,7.0,1.0,2452381505-199546.jpg,2898632385-217138.jpg,A3SSIUMI7ONK5W_2022-09-18_07h12.45.775.csv
8,1.0,left,left,1.0,1.889,0.0,8.0,8.0,8.0,1.0,2898618444-142233.jpg,2898631359-142721.jpg,A3SSIUMI7ONK5W_2022-09-18_07h12.45.775.csv
9,3.0,right,right,1.0,1.4327,0.0,9.0,9.0,9.0,1.0,2898625336-291572.jpg,2898635428-69104.jpg,A3SSIUMI7ONK5W_2022-09-18_07h12.45.775.csv
10,1.0,right,right,1.0,1.7974,0.0,10.0,10.0,10.0,1.0,2964218432-369263.jpg,2898624426-291546.jpg,A3SSIUMI7ONK5W_2022-09-18_07h12.45.775.csv
11,2.0,left,right,0.0,1.3203,0.0,11.0,11.0,11.0,1.0,2986451363-73598.jpg,2984628361-295995.jpg,A3SSIUMI7ONK5W_2022-09-18_07h12.45.775.csv
12,1.0,left,left,1.0,2.1726,0.0,12.0,12.0,12.0,1.0,2238428357-313623.jpg,2238499057-320266.jpg,A3SSIUMI7ONK5W_2022-09-18_07h12.45.775.csv
13,1.0,left,left,1.0,1.1062,0.0,13.0,13.0,13.0,1.0,2883268471-290842.jpg,2883268471-290843.jpg,A3SSIUMI7ONK5W_2022-09-18_07h12.45.775.csv
14,1.0,right,right,1.0,1.3798,0.0,14.0,14.0,14.0,1.0,2460547536-274179.jpg,2512875899-126682.jpg,A3SSIUMI7ONK5W_2022-09-18_07h12.45.775.csv
15,3.0,left,left,1.0,1.5357,0.0,15.0,15.0,15.0,1.0,2964222378-71332.jpg,2981240427-370099.jpg,A3SSIUMI7ONK5W_2022-09-18_07h12.45.775.csv
16,3.0,left,right,0.0,1.0754,0.0,16.0,16.0,16.0,1.0,2446759803-49249.jpg,2901951392-368654.jpg,A3SSIUMI7ONK5W_2022-09-18_07h12.45.775.csv
17,1.0,left,left,1.0,1.574,0.0,17.0,17.0,17.0,1.0,2238560245-182099.jpg,2592380255-205553.jpg,A3SSIUMI7ONK5W_2022-09-18_07h12.45.775.csv
18,2.0,left,right,0.0,0.9583,0.0,18.0,18.0,18.0,1.0,2460547467-349422.jpg,2868487415-213924.jpg,A3SSIUMI7ONK5W_2022-09-18_07h12.45.775.csv
19,1.0,left,left,1.0,1.3641,0.0,19.0,19.0,19.0,1.0,2238480677-317399.jpg,2238481630-168218.jpg,A3SSIUMI7ONK5W_2022-09-18_07h12.45.775.csv
20,3.0,right,right,1.0,1.4586,0.0,20.0,20.0,20.0,1.0,2981231446-294732.jpg,2964218374-144967.jpg,A3SSIUMI7ONK5W_2022-09-18_07h12.45.775.csv
21,3.0,right,left,0.0,1.2536,0.0,21.0,21.0,21.0,1.0,2238117096-228518.jpg,2592380177-354626.jpg,A3SSIUMI7ONK5W_2022-09-18_07h12.45.775.csv
22,2.0,left,right,0.0,1.5572,0.0,22.0,22.0,22.0,1.0,2460547467-349421.jpg,2452380166-273110.jpg,A3SSIUMI7ONK5W_2022-09-18_07h12.45.775.csv
23,3.0,right,left,0.0,1.3499,0.0,23.0,23.0,23.0,1.0,2981231422-369714.jpg,2874307433-66280.jpg,A3SSIUMI7ONK5W_2022-09-18_07h12.45.775.csv
24,3.0,right,right,1.0,0.9757,0.0,24.0,24.0,24.0,1.0,2898631468-68931.jpg,2901941401-292798.jpg,A3SSIUMI7ONK5W_2022-09-18_07h12.45.775.csv
25,1.0,right,left,0.0,1.3589,0.0,25.0,25.0,25.0,1.0,2238480434-93829.jpg,2458347385-199723.jpg,A3SSIUMI7ONK5W_2022-09-18_07h12.45.775.csv
26,3.0,left,right,0.0,1.1613,0.0,26.0,26.0,26.0,1.0,2883268412-365898.jpg,2238436252-314037.jpg,A3SSIUMI7ONK5W_2022-09-18_07h12.45.775.csv
27,2.0,left,left,1.0,1.2514,0.0,27.0,27.0,27.0,1.0,2449442529-124445.jpg,2986408373-73286.jpg,A3SSIUMI7ONK5W_2022-09-18_07h12.45.775.csv
28,2.0,right,right,1.0,1.1597,0.0,28.0,28.0,28.0,1.0,2901943387-368037.jpg,2898617468-68274.jpg,A3SSIUMI7ONK5W_2022-09-18_07h12.45.775.csv
29,1.0,right,left,0.0,1.0728,0.0,29.0,29.0,29.0,1.0,2237857458-1325.jpg,2874302418-65979.jpg,A3SSIUMI7ONK5W_2022-09-18_07h12.45.775.csv
30,3.0,left,right,0.0,0.8862,0.0,30.0,30.0,30.0,1.0,2238481928-19949.jpg,2981241419-145844.jpg,A3SSIUMI7ONK5W_2022-09-18_07h12.45.775.csv
31,2.0,right,left,0.0,1.8441,0.0,31.0,31.0,31.0,1.0,2981229442-369621.jpg,2901939379-143480.jpg,A3SSIUMI7ONK5W_2022-09-18_07h12.45.775.csv
32,3.0,right,right,1.0,1.1689,0.0,32.0,32.0,32.0,1.0,2238531493-28260.jpg,2575120738-55529.jpg,A3SSIUMI7ONK5W_2022-09-18_07h12.45.775.csv
33,3.0,left,left,1.0,1.0616,0.0,33.0,33.0,33.0,1.0,2874301407-363895.jpg,2901947323-70275.jpg,A3SSIUMI7ONK5W_2022-09-18_07h12.45.775.csv
34,3.0,left,left,1.0,1.1688,0.0,34.0,34.0,34.0,1.0,2864907432-362042.jpg,2989726338-74002.jpg,A3SSIUMI7ONK5W_2022-09-18_07h12.45.775.csv
35,1.0,left,right,0.0,1.2578,0.0,35.0,35.0,35.0,1.0,2964223381-294447.jpg,2427874231-269884.jpg,A3SSIUMI7ONK5W_2022-09-18_07h12.45.775.csv
36,2.0,right,left,0.0,1.4495,0.0,36.0,36.0,36.0,1.0,2575118671-277663.jpg,2898633421-291973.jpg,A3SSIUMI7ONK5W_2022-09-18_07h12.45.775.csv
37,2.0,left,left,1.0,1.7225,0.0,37.0,37.0,37.0,1.0,2874299429-139695.jpg,2901942443-69923.jpg,A3SSIUMI7ONK5W_2022-09-18_07h12.45.775.csv
38,1.0,left,right,0.0,0.7079,0.0,38.0,38.0,38.0,1.0,2986451363-73599.jpg,2898626385-216899.jpg,A3SSIUMI7ONK5W_2022-09-18_07h12.45.775.csv
39,3.0,left,right,0.0,0.8728,0.0,39.0,39.0,39.0,1.0,2868475410-213219.jpg,2868474407-362885.jpg,A3SSIUMI7ONK5W_2022-09-18_07h12.45.775.csv
40,2.0,right,right,1.0,0.8741,0.0,40.0,40.0,40.0,1.0,2901939327-367670.jpg,2898618390-216538.jpg,A3SSIUMI7ONK5W_2022-09-18_07h12.45.775.csv
41,1.0,right,left,0.0,0.3976,0.0,41.0,41.0,41.0,1.0,2860312398-62572.jpg,2901947423-70311.jpg,A3SSIUMI7ONK5W_2022-09-18_07h12.45.775.csv
42,3.0,right,right,1.0,1.2585,0.0,42.0,42.0,42.0,1.0,2898619327-366362.jpg,2964216465-219242.jpg,A3SSIUMI7ONK5W_2022-09-18_07h12.45.775.csv
43,2.0,left,left,1.0,0.8121,0.0,43.0,43.0,43.0,1.0,2449442529-124446.jpg,2460547536-274181.jpg,A3SSIUMI7ONK5W_2022-09-18_07h12.45.775.csv
44,2.0,right,right,1.0,1.1024,0.0,44.0,44.0,44.0,1.0,2579432534-130704.jpg,2592380177-354629.jpg,A3SSIUMI7ONK5W_2022-09-18_07h12.45.775.csv
45,3.0,left,left,1.0,0.4664,0.0,45.0,45.0,45.0,1.0,2883256307-365057.jpg,2864904453-63933.jpg,A3SSIUMI7ONK5W_2022-09-18_07h12.45.775.csv
46,1.0,left,right,0.0,0.9405,0.0,46.0,46.0,46.0,1.0,2460547508-51571.jpg,2452380166-273109.jpg,A3SSIUMI7ONK5W_2022-09-18_07h12.45.775.csv
47,3.0,left,left,1.0,0.493,0.0,47.0,47.0,47.0,1.0,2901952513-70703.jpg,2238481198-19821.jpg,A3SSIUMI7ONK5W_2022-09-18_07h12.45.775.csv
48,2.0,right,right,1.0,0.8502,0.0,48.0,48.0,48.0,1.0,2238479053-19457.jpg,2592379964-131054.jpg,A3SSIUMI7ONK5W_2022-09-18_07h12.45.775.csv
49,2.0,left,left,1.0,1.1249,0.0,49.0,49.0,49.0,1.0,2898634397-367080.jpg,2901934408-69289.jpg,A3SSIUMI7ONK5W_2022-09-18_07h12.45.775.csv
50,2.0,left,right,0.0,0.8522,0.0,50.0,50.0,50.0,1.0,2901939379-143479.jpg,2446758985-197610.jpg,A3SSIUMI7ONK5W_2022-09-18_07h12.45.775.csv
51,3.0,right,left,0.0,0.6131,0.0,51.0,51.0,51.0,1.0,2898624426-291544.jpg,2446758985-197609.jpg,A3SSIUMI7ONK5W_2022-09-18_07h12.45.775.csv
52,3.0,left,right,0.0,1.2032,0.0,52.0,52.0,52.0,1.0,2981241414-145842.jpg,2427873848-47312.jpg,A3SSIUMI7ONK5W_2022-09-18_07h12.45.775.csv
53,2.0,left,left,1.0,0.2424,0.0,53.0,53.0,53.0,1.0,2874303365-214262.jpg,2238563377-332054.jpg,A3SSIUMI7ONK5W_2022-09-18_07h12.45.775.csv
54,2.0,right,right,1.0,1.0731,0.0,54.0,54.0,54.0,1.0,2238481198-19823.jpg,2874302418-65978.jpg,A3SSIUMI7ONK5W_2022-09-18_07h12.45.775.csv
55,3.0,left,left,1.0,0.4741,0.0,55.0,55.0,55.0,1.0,2238580740-186218.jpg,2964220333-71258.jpg,A3SSIUMI7ONK5W_2022-09-18_07h12.45.775.csv
56,2.0,right,right,1.0,1.2067,0.0,56.0,56.0,56.0,1.0,2901946436-293242.jpg,2238481198-19822.jpg,A3SSIUMI7ONK5W_2022-09-18_07h12.45.775.csv
57,2.0,left,left,1.0,0.3688,0.0,57.0,57.0,57.0,1.0,2883273443-68193.jpg,2460547508-51572.jpg,A3SSIUMI7ONK5W_2022-09-18_07h12.45.775.csv
58,1.0,right,right,1.0,0.7265,0.0,58.0,58.0,58.0,1.0,2238328478-11678.jpg,2452380832-348593.jpg,A3SSIUMI7ONK5W_2022-09-18_07h12.45.775.csv
59,1.0,left,left,1.0,0.2588,0.0,59.0,59.0,59.0,1.0,2238425482-313537.jpg,2238471391-240918.jpg,A3SSIUMI7ONK5W_2022-09-18_07h12.45.775.csv
60,3.0,right,right,1.0,1.8993,0.0,0.0,0.0,0.0,1.0,2981235446-294901.jpg,2460547467-349421.jpg,A2NVX39CZ34V4E_2022-09-18_09h34.12.895.csv
61,2.0,left,left,1.0,0.6767,0.0,1.0,1.0,1.0,1.0,2964218374-144967.jpg,2446759306-271734.jpg,A2NVX39CZ34V4E_2022-09-18_09h34.12.895.csv
62,1.0,right,left,0.0,1.4795,0.0,2.0,2.0,2.0,1.0,2237857458-1325.jpg,2874302418-65979.jpg,A2NVX39CZ34V4E_2022-09-18_09h34.12.895.csv
63,2.0,left,right,0.0,0.855,0.0,3.0,3.0,3.0,1.0,2446758985-197609.jpg,2864909447-362144.jpg,A2NVX39CZ34V4E_2022-09-18_09h34.12.895.csv
64,3.0,right,right,1.0,1.8882,0.0,4.0,4.0,4.0,1.0,2427873763-47290.jpg,2981231403-71642.jpg,A2NVX39CZ34V4E_2022-09-18_09h34.12.895.csv
65,3.0,right,right,1.0,1.5136,0.0,5.0,5.0,5.0,1.0,2238480278-19661.jpg,2238480677-317399.jpg,A2NVX39CZ34V4E_2022-09-18_09h34.12.895.csv
66,1.0,left,right,0.0,2.1905,0.0,6.0,6.0,6.0,1.0,2874307433-66280.jpg,2984615358-72439.jpg,A2NVX39CZ34V4E_2022-09-18_09h34.12.895.csv
67,2.0,right,right,1.0,1.1358,0.0,7.0,7.0,7.0,1.0,2981229442-369621.jpg,2901939379-143480.jpg,A2NVX39CZ34V4E_2022-09-18_09h34.12.895.csv
68,3.0,right,right,1.0,1.2289,0.0,8.0,8.0,8.0,1.0,2864909447-362146.jpg,2460547467-349422.jpg,A2NVX39CZ34V4E_2022-09-18_09h34.12.895.csv
69,3.0,left,right,0.0,2.2121,0.0,9.0,9.0,9.0,1.0,2592379964-131054.jpg,2592380272-354673.jpg,A2NVX39CZ34V4E_2022-09-18_09h34.12.895.csv
70,1.0,left,left,1.0,2.4385,0.0,10.0,10.0,10.0,1.0,2898634397-367080.jpg,2237944827-301472.jpg,A2NVX39CZ34V4E_2022-09-18_09h34.12.895.csv
71,1.0,left,left,1.0,2.9307,0.0,11.0,11.0,11.0,1.0,2592380177-354629.jpg,2898633421-291974.jpg,A2NVX39CZ34V4E_2022-09-18_09h34.12.895.csv
72,3.0,left,left,1.0,1.4153,0.0,12.0,12.0,12.0,1.0,2874302418-65978.jpg,2898633321-291943.jpg,A2NVX39CZ34V4E_2022-09-18_09h34.12.895.csv
73,3.0,right,right,1.0,1.104,0.0,13.0,13.0,13.0,1.0,2994401319-148290.jpg,2452381505-199546.jpg,A2NVX39CZ34V4E_2022-09-18_09h34.12.895.csv
74,1.0,right,right,1.0,1.3235,0.0,14.0,14.0,14.0,1.0,2452380171-273112.jpg,2449442529-124445.jpg,A2NVX39CZ34V4E_2022-09-18_09h34.12.895.csv
75,1.0,right,right,1.0,1.9749,0.0,15.0,15.0,15.0,1.0,2274829821-263682.jpg,2874303365-214262.jpg,A2NVX39CZ34V4E_2022-09-18_09h34.12.895.csv
76,1.0,left,left,1.0,2.4475,0.0,16.0,16.0,16.0,1.0,2883268412-365898.jpg,2984626312-370849.jpg,A2NVX39CZ34V4E_2022-09-18_09h34.12.895.csv
77,2.0,right,left,0.0,1.0352,0.0,17.0,17.0,17.0,1.0,2238521193-26285.jpg,2238580740-186218.jpg,A2NVX39CZ34V4E_2022-09-18_09h34.12.895.csv
78,1.0,right,right,1.0,1.3275,0.0,18.0,18.0,18.0,1.0,2237856148-989.jpg,2898618390-216538.jpg,A2NVX39CZ34V4E_2022-09-18_09h34.12.895.csv
79,3.0,right,right,1.0,1.037,0.0,19.0,19.0,19.0,1.0,2901948383-70363.jpg,2868474407-362883.jpg,A2NVX39CZ34V4E_2022-09-18_09h34.12.895.csv
80,2.0,left,right,0.0,0.83,0.0,20.0,20.0,20.0,1.0,2874299429-139695.jpg,2901942443-69923.jpg,A2NVX39CZ34V4E_2022-09-18_09h34.12.895.csv
81,2.0,right,left,0.0,2.0608,0.0,21.0,21.0,21.0,1.0,2901947423-70310.jpg,2864907432-362042.jpg,A2NVX39CZ34V4E_2022-09-18_09h34.12.895.csv
82,1.0,left,left,1.0,0.9609,0.0,22.0,22.0,22.0,1.0,2238428357-313623.jpg,2238499057-320266.jpg,A2NVX39CZ34V4E_2022-09-18_09h34.12.895.csv
83,1.0,right,left,0.0,1.4225,0.0,23.0,23.0,23.0,1.0,2898631359-142721.jpg,2898618444-142233.jpg,A2NVX39CZ34V4E_2022-09-18_09h34.12.895.csv
84,2.0,right,left,0.0,1.136,0.0,24.0,24.0,24.0,1.0,2981244403-72215.jpg,2874299429-139694.jpg,A2NVX39CZ34V4E_2022-09-18_09h34.12.895.csv
85,3.0,left,right,0.0,0.8554,0.0,25.0,25.0,25.0,1.0,2964223381-294447.jpg,2898628438-68785.jpg,A2NVX39CZ34V4E_2022-09-18_09h34.12.895.csv
86,3.0,left,right,0.0,0.7695,0.0,26.0,26.0,26.0,1.0,2964222378-71332.jpg,2981240427-370099.jpg,A2NVX39CZ34V4E_2022-09-18_09h34.12.895.csv
87,1.0,left,left,1.0,1.139,0.0,27.0,27.0,27.0,1.0,2575120738-55529.jpg,2864906345-212360.jpg,A2NVX39CZ34V4E_2022-09-18_09h34.12.895.csv
88,3.0,right,right,1.0,0.6639,0.0,28.0,28.0,28.0,1.0,2238480980-168129.jpg,2238560245-182099.jpg,A2NVX39CZ34V4E_2022-09-18_09h34.12.895.csv
89,1.0,right,left,0.0,0.3823,0.0,29.0,29.0,29.0,1.0,2901946439-144040.jpg,2898617468-68274.jpg,A2NVX39CZ34V4E_2022-09-18_09h34.12.895.csv
90,2.0,left,right,0.0,0.3822,0.0,30.0,30.0,30.0,1.0,2883273443-68193.jpg,2460547508-51572.jpg,A2NVX39CZ34V4E_2022-09-18_09h34.12.895.csv
91,3.0,right,left,0.0,0.2889,0.0,31.0,31.0,31.0,1.0,2864903351-286874.jpg,2238572663-35822.jpg,A2NVX39CZ34V4E_2022-09-18_09h34.12.895.csv
92,1.0,left,right,0.0,0.2889,0.0,32.0,32.0,32.0,1.0,2512875899-126682.jpg,2460547536-274179.jpg,A2NVX39CZ34V4E_2022-09-18_09h34.12.895.csv
93,3.0,right,left,0.0,0.2921,0.0,33.0,33.0,33.0,1.0,2901941438-69835.jpg,2460547508-51571.jpg,A2NVX39CZ34V4E_2022-09-18_09h34.12.895.csv
94,2.0,left,right,0.0,0.4771,0.0,34.0,34.0,34.0,1.0,2452380832-348593.jpg,2238481813-19930.jpg,A2NVX39CZ34V4E_2022-09-18_09h34.12.895.csv
95,3.0,left,left,1.0,0.1986,0.0,35.0,35.0,35.0,1.0,2592380177-354626.jpg,2238117096-228518.jpg,A2NVX39CZ34V4E_2022-09-18_09h34.12.895.csv
96,2.0,right,right,1.0,0.1013,0.0,36.0,36.0,36.0,1.0,2883255450-215310.jpg,2883268471-290842.jpg,A2NVX39CZ34V4E_2022-09-18_09h34.12.895.csv
97,2.0,left,left,1.0,0.1039,0.0,37.0,37.0,37.0,1.0,2901941401-292798.jpg,2981243412-370222.jpg,A2NVX39CZ34V4E_2022-09-18_09h34.12.895.csv
98,3.0,right,right,1.0,0.667,0.0,38.0,38.0,38.0,1.0,2460547536-274178.jpg,2449442529-124446.jpg,A2NVX39CZ34V4E_2022-09-18_09h34.12.895.csv
99,2.0,left,left,1.0,0.1033,0.0,39.0,39.0,39.0,1.0,2868475410-213219.jpg,2238480803-19739.jpg,A2NVX39CZ34V4E_2022-09-18_09h34.12.895.csv
100,1.0,left,right,0.0,0.1066,0.0,40.0,40.0,40.0,1.0,2986451363-73598.jpg,2237857458-1324.jpg,A2NVX39CZ34V4E_2022-09-18_09h34.12.895.csv
101,3.0,left,left,1.0,0.1034,0.0,41.0,41.0,41.0,1.0,2238425482-313537.jpg,2898633480-217190.jpg,A2NVX39CZ34V4E_2022-09-18_09h34.12.895.csv
102,2.0,right,right,1.0,0.0078,0.0,42.0,42.0,42.0,1.0,2575118671-277663.jpg,2898633421-291973.jpg,A2NVX39CZ34V4E_2022-09-18_09h34.12.895.csv
103,1.0,left,left,1.0,0.0078,0.0,43.0,43.0,43.0,1.0,2986451363-73599.jpg,2898626385-216899.jpg,A2NVX39CZ34V4E_2022-09-18_09h34.12.895.csv
104,2.0,left,left,1.0,0.4837,0.0,44.0,44.0,44.0,1.0,2981241414-145842.jpg,2874301404-139813.jpg,A2NVX39CZ34V4E_2022-09-18_09h34.12.895.csv
105,1.0,left,right,0.0,0.1017,0.0,45.0,45.0,45.0,1.0,2898635428-69104.jpg,2446759803-49250.jpg,A2NVX39CZ34V4E_2022-09-18_09h34.12.895.csv
106,2.0,left,left,1.0,0.1015,0.0,46.0,46.0,46.0,1.0,2874301407-363895.jpg,2986397322-371109.jpg,A2NVX39CZ34V4E_2022-09-18_09h34.12.895.csv
107,1.0,right,right,1.0,0.1026,0.0,47.0,47.0,47.0,1.0,2864907361-287062.jpg,2901952513-70703.jpg,A2NVX39CZ34V4E_2022-09-18_09h34.12.895.csv
108,2.0,left,right,0.0,0.3824,0.0,48.0,48.0,48.0,1.0,2898635427-367120.jpg,2868479517-363220.jpg,A2NVX39CZ34V4E_2022-09-18_09h34.12.895.csv
109,3.0,right,right,1.0,0.8527,0.0,49.0,49.0,49.0,1.0,2964216376-294181.jpg,2901939379-143479.jpg,A2NVX39CZ34V4E_2022-09-18_09h34.12.895.csv
110,1.0,right,left,0.0,0.1951,0.0,50.0,50.0,50.0,1.0,2883264367-365620.jpg,2238481928-19949.jpg,A2NVX39CZ34V4E_2022-09-18_09h34.12.895.csv
111,1.0,left,left,1.0,0.1029,0.0,51.0,51.0,51.0,1.0,2238481198-19822.jpg,2862691449-137104.jpg,A2NVX39CZ34V4E_2022-09-18_09h34.12.895.csv
112,2.0,left,left,1.0,0.2886,0.0,52.0,52.0,52.0,1.0,2458347385-199723.jpg,2427874554-121863.jpg,A2NVX39CZ34V4E_2022-09-18_09h34.12.895.csv
113,3.0,right,left,0.0,0.2933,0.0,53.0,53.0,53.0,1.0,2898619327-366362.jpg,2964216465-219242.jpg,A2NVX39CZ34V4E_2022-09-18_09h34.12.895.csv
114,2.0,left,right,0.0,0.7298,0.0,54.0,54.0,54.0,1.0,2964213381-294060.jpg,2458348012-349114.jpg,A2NVX39CZ34V4E_2022-09-18_09h34.12.895.csv
115,3.0,left,left,1.0,0.8605,0.0,55.0,55.0,55.0,1.0,2898624426-291546.jpg,2981235446-294900.jpg,A2NVX39CZ34V4E_2022-09-18_09h34.12.895.csv
116,2.0,right,right,1.0,0.5746,0.0,56.0,56.0,56.0,1.0,2898618440-216547.jpg,2446759803-49249.jpg,A2NVX39CZ34V4E_2022-09-18_09h34.12.895.csv
117,1.0,right,right,1.0,0.3862,0.0,57.0,57.0,57.0,1.0,2864902304-137862.jpg,2864910426-287204.jpg,A2NVX39CZ34V4E_2022-09-18_09h34.12.895.csv
118,3.0,left,right,0.0,0.3892,0.0,58.0,58.0,58.0,1.0,2883256307-365057.jpg,2864904453-63933.jpg,A2NVX39CZ34V4E_2022-09-18_09h34.12.895.csv
119,2.0,left,left,1.0,0.4798,0.0,59.0,59.0,59.0,1.0,2901947423-70311.jpg,2238573447-333826.jpg,A2NVX39CZ34V4E_2022-09-18_09h34.12.895.csv
120,1.0,left,left,1.0,2.331,0.0,0.0,0.0,0.0,1.0,2575120738-55529.jpg,2864906345-212360.jpg,A28OD52SMLYQ16_2022-09-18_09h47.12.518.csv
121,1.0,left,left,1.0,2.216,0.0,1.0,1.0,1.0,1.0,2238425482-313537.jpg,2238471391-240918.jpg,A28OD52SMLYQ16_2022-09-18_09h47.12.518.csv
122,2.0,left,left,1.0,1.943,0.0,2.0,2.0,2.0,1.0,2238580740-186218.jpg,2238521193-26285.jpg,A28OD52SMLYQ16_2022-09-18_09h47.12.518.csv
123,3.0,left,left,1.0,1.325,0.0,3.0,3.0,3.0,1.0,2460547467-349422.jpg,2864909447-362146.jpg,A28OD52SMLYQ16_2022-09-18_09h47.12.518.csv
124,1.0,right,right,1.0,1.392,0.0,4.0,4.0,4.0,1.0,2238328478-11678.jpg,2452380832-348593.jpg,A28OD52SMLYQ16_2022-09-18_09h47.12.518.csv
125,2.0,left,right,0.0,2.875,0.0,5.0,5.0,5.0,1.0,2883268412-365898.jpg,2984615361-295510.jpg,A28OD52SMLYQ16_2022-09-18_09h47.12.518.csv
126,3.0,left,left,1.0,1.8,0.0,6.0,6.0,6.0,1.0,2449442529-124445.jpg,2898632385-217137.jpg,A28OD52SMLYQ16_2022-09-18_09h47.12.518.csv
127,3.0,left,left,1.0,2.335,0.0,7.0,7.0,7.0,1.0,2898624426-291546.jpg,2981235446-294900.jpg,A28OD52SMLYQ16_2022-09-18_09h47.12.518.csv
128,1.0,right,left,0.0,2.703,0.0,8.0,8.0,8.0,1.0,2898626385-216899.jpg,2986451363-73599.jpg,A28OD52SMLYQ16_2022-09-18_09h47.12.518.csv
129,2.0,left,left,1.0,1.535,0.0,9.0,9.0,9.0,1.0,2446758985-197609.jpg,2864909447-362144.jpg,A28OD52SMLYQ16_2022-09-18_09h47.12.518.csv
130,2.0,left,left,1.0,1.957,0.0,10.0,10.0,10.0,1.0,2901939379-143479.jpg,2446758985-197610.jpg,A28OD52SMLYQ16_2022-09-18_09h47.12.518.csv
131,1.0,left,left,1.0,1.503,0.0,11.0,11.0,11.0,1.0,2898633421-291973.jpg,2512876023-52283.jpg,A28OD52SMLYQ16_2022-09-18_09h47.12.518.csv
132,1.0,right,right,1.0,2.396,0.0,12.0,12.0,12.0,1.0,2898633421-291974.jpg,2592380177-354629.jpg,A28OD52SMLYQ16_2022-09-18_09h47.12.518.csv
133,2.0,left,left,1.0,2.075,0.0,13.0,13.0,13.0,1.0,2238428357-313623.jpg,2984615361-295509.jpg,A28OD52SMLYQ16_2022-09-18_09h47.12.518.csv
134,1.0,left,left,1.0,4.066,0.0,14.0,14.0,14.0,1.0,2964223381-294447.jpg,2427874231-269884.jpg,A28OD52SMLYQ16_2022-09-18_09h47.12.518.csv
135,3.0,right,right,1.0,2.326,0.0,15.0,15.0,15.0,1.0,2964213381-294061.jpg,2964213381-294060.jpg,A28OD52SMLYQ16_2022-09-18_09h47.12.518.csv
136,3.0,left,left,1.0,2.246,0.0,16.0,16.0,16.0,1.0,2898617468-68274.jpg,2964207374-144577.jpg,A28OD52SMLYQ16_2022-09-18_09h47.12.518.csv
137,3.0,left,left,1.0,2.455,0.0,17.0,17.0,17.0,1.0,2864907432-362042.jpg,2989726338-74002.jpg,A28OD52SMLYQ16_2022-09-18_09h47.12.518.csv
138,1.0,left,left,1.0,3.912,0.0,18.0,18.0,18.0,1.0,2901941401-292798.jpg,2898618327-366317.jpg,A28OD52SMLYQ16_2022-09-18_09h47.12.518.csv
139,1.0,right,right,1.0,2.143,0.0,19.0,19.0,19.0,1.0,2611628310-206388.jpg,2883256307-365057.jpg,A28OD52SMLYQ16_2022-09-18_09h47.12.518.csv
140,1.0,left,left,1.0,1.416,0.0,20.0,20.0,20.0,1.0,2592379964-131054.jpg,2575963989-130576.jpg,A28OD52SMLYQ16_2022-09-18_09h47.12.518.csv
141,3.0,right,left,0.0,1.907,0.0,21.0,21.0,21.0,1.0,2460547536-274178.jpg,2449442529-124446.jpg,A28OD52SMLYQ16_2022-09-18_09h47.12.518.csv
142,1.0,left,left,1.0,5.332,0.0,22.0,22.0,22.0,1.0,2898618444-142233.jpg,2898631359-142721.jpg,A28OD52SMLYQ16_2022-09-18_09h47.12.518.csv
143,1.0,left,left,1.0,2.138,0.0,23.0,23.0,23.0,1.0,2238572663-35822.jpg,2238584894-113161.jpg,A28OD52SMLYQ16_2022-09-18_09h47.12.518.csv
144,2.0,right,right,1.0,3.707,0.0,24.0,24.0,24.0,1.0,2981246400-220363.jpg,2868474407-362883.jpg,A28OD52SMLYQ16_2022-09-18_09h47.12.518.csv
145,2.0,right,right,1.0,2.355,0.0,25.0,25.0,25.0,1.0,2901943411-292945.jpg,2898635428-69104.jpg,A28OD52SMLYQ16_2022-09-18_09h47.12.518.csv
146,3.0,right,left,0.0,3.023,0.0,26.0,26.0,26.0,1.0,2981240427-370099.jpg,2964222378-71332.jpg,A28OD52SMLYQ16_2022-09-18_09h47.12.518.csv
147,3.0,right,left,0.0,2.366,0.0,27.0,27.0,27.0,1.0,2238481198-19821.jpg,2901952513-70703.jpg,A28OD52SMLYQ16_2022-09-18_09h47.12.518.csv
148,3.0,right,right,1.0,2.24,0.0,28.0,28.0,28.0,1.0,2238480803-19737.jpg,2238481198-19822.jpg,A28OD52SMLYQ16_2022-09-18_09h47.12.518.csv
149,1.0,left,left,1.0,1.277,0.0,29.0,29.0,29.0,1.0,2964218374-144967.jpg,2964218374-144968.jpg,A28OD52SMLYQ16_2022-09-18_09h47.12.518.csv
150,2.0,right,right,1.0,2.495,0.0,30.0,30.0,30.0,1.0,2238563377-332054.jpg,2874303365-214262.jpg,A28OD52SMLYQ16_2022-09-18_09h47.12.518.csv
151,3.0,left,right,0.0,2.543,0.0,31.0,31.0,31.0,1.0,2901947423-70311.jpg,2238577590-185467.jpg,A28OD52SMLYQ16_2022-09-18_09h47.12.518.csv
152,2.0,right,right,1.0,2.983,0.0,32.0,32.0,32.0,1.0,2981246400-220365.jpg,2874307433-66280.jpg,A28OD52SMLYQ16_2022-09-18_09h47.12.518.csv
153,1.0,left,left,1.0,1.573,0.0,33.0,33.0,33.0,1.0,2981231403-71642.jpg,2579432519-130698.jpg,A28OD52SMLYQ16_2022-09-18_09h47.12.518.csv
154,2.0,right,left,0.0,1.837,0.0,34.0,34.0,34.0,1.0,2864900357-361688.jpg,2238481928-19949.jpg,A28OD52SMLYQ16_2022-09-18_09h47.12.518.csv
155,3.0,right,left,0.0,1.867,0.0,35.0,35.0,35.0,1.0,2898621427-366486.jpg,2898635427-367120.jpg,A28OD52SMLYQ16_2022-09-18_09h47.12.518.csv
156,2.0,left,left,1.0,1.925,0.0,36.0,36.0,36.0,1.0,2898634397-367080.jpg,2901934408-69289.jpg,A28OD52SMLYQ16_2022-09-18_09h47.12.518.csv
157,2.0,right,right,1.0,1.97,0.0,37.0,37.0,37.0,1.0,2238480648-19714.jpg,2874302418-65979.jpg,A28OD52SMLYQ16_2022-09-18_09h47.12.518.csv
158,2.0,right,right,1.0,2.449,0.0,38.0,38.0,38.0,1.0,2986397322-371109.jpg,2874301407-363895.jpg,A28OD52SMLYQ16_2022-09-18_09h47.12.518.csv
159,2.0,right,left,0.0,1.147,0.0,39.0,39.0,39.0,1.0,2864900319-137787.jpg,2964216465-219242.jpg,A28OD52SMLYQ16_2022-09-18_09h47.12.518.csv
160,3.0,left,right,0.0,3.574,0.0,40.0,40.0,40.0,1.0,2452381505-199546.jpg,2994401319-148290.jpg,A28OD52SMLYQ16_2022-09-18_09h47.12.518.csv
161,3.0,right,right,1.0,1.721,0.0,41.0,41.0,41.0,1.0,2986447332-371497.jpg,2512875899-126682.jpg,A28OD52SMLYQ16_2022-09-18_09h47.12.518.csv
162,3.0,right,left,0.0,1.706,0.0,42.0,42.0,42.0,1.0,2868474407-362885.jpg,2868475410-213219.jpg,A28OD52SMLYQ16_2022-09-18_09h47.12.518.csv
163,3.0,left,left,1.0,1.793,0.0,43.0,43.0,43.0,1.0,2238480677-317399.jpg,2238480278-19661.jpg,A28OD52SMLYQ16_2022-09-18_09h47.12.518.csv
164,3.0,left,left,1.0,6.423,0.0,44.0,44.0,44.0,1.0,2458347385-199723.jpg,2458347252-348911.jpg,A28OD52SMLYQ16_2022-09-18_09h47.12.518.csv
165,2.0,left,left,1.0,4.883,0.0,45.0,45.0,45.0,1.0,2864910426-287204.jpg,2883268412-365899.jpg,A28OD52SMLYQ16_2022-09-18_09h47.12.518.csv
166,2.0,right,right,1.0,2.906,0.0,46.0,46.0,46.0,1.0,2864901386-286797.jpg,2592380177-354626.jpg,A28OD52SMLYQ16_2022-09-18_09h47.12.518.csv
167,3.0,right,left,0.0,1.606,0.0,47.0,47.0,47.0,1.0,2898627427-366763.jpg,2883273443-68193.jpg,A28OD52SMLYQ16_2022-09-18_09h47.12.518.csv
168,1.0,right,left,0.0,2.201,0.0,48.0,48.0,48.0,1.0,2446760601-272099.jpg,2446759803-49249.jpg,A28OD52SMLYQ16_2022-09-18_09h47.12.518.csv
169,1.0,right,right,1.0,1.307,0.0,49.0,49.0,49.0,1.0,2883268471-290843.jpg,2883268471-290842.jpg,A28OD52SMLYQ16_2022-09-18_09h47.12.518.csv
170,1.0,right,right,1.0,1.722,0.0,50.0,50.0,50.0,1.0,2901942428-69919.jpg,2901939379-143480.jpg,A28OD52SMLYQ16_2022-09-18_09h47.12.518.csv
171,2.0,left,right,0.0,1.429,0.0,51.0,51.0,51.0,1.0,2986451363-73598.jpg,2984628361-295995.jpg,A28OD52SMLYQ16_2022-09-18_09h47.12.518.csv
172,1.0,left,left,1.0,1.806,0.0,52.0,52.0,52.0,1.0,2898618390-216538.jpg,2237856148-989.jpg,A28OD52SMLYQ16_2022-09-18_09h47.12.518.csv
173,3.0,right,left,0.0,4.464,0.0,53.0,53.0,53.0,1.0,2427873848-47312.jpg,2981241414-145842.jpg,A28OD52SMLYQ16_2022-09-18_09h47.12.518.csv
174,2.0,right,left,0.0,1.254,0.0,54.0,54.0,54.0,1.0,2981244403-72215.jpg,2874299429-139694.jpg,A28OD52SMLYQ16_2022-09-18_09h47.12.518.csv
175,3.0,left,left,1.0,2.03,0.0,55.0,55.0,55.0,1.0,2460547508-51571.jpg,2901941438-69835.jpg,A28OD52SMLYQ16_2022-09-18_09h47.12.518.csv
176,2.0,right,left,0.0,1.029,0.0,56.0,56.0,56.0,1.0,2874314526-289684.jpg,2238560245-182099.jpg,A28OD52SMLYQ16_2022-09-18_09h47.12.518.csv
177,2.0,left,left,1.0,2.31,0.0,57.0,57.0,57.0,1.0,2874302418-65978.jpg,2238481198-19823.jpg,A28OD52SMLYQ16_2022-09-18_09h47.12.518.csv
178,1.0,left,right,0.0,1.983,0.0,58.0,58.0,58.0,1.0,2874299429-139695.jpg,2883266388-67750.jpg,A28OD52SMLYQ16_2022-09-18_09h47.12.518.csv
179,1.0,left,left,1.0,1.036,0.0,59.0,59.0,59.0,1.0,2460547467-349421.jpg,2898631394-142727.jpg,A28OD52SMLYQ16_2022-09-18_09h47.12.518.csv
180,1.0,right,right,1.0,2.3424,0.0,0.0,0.0,0.0,1.0,2864906345-212360.jpg,2575120738-55529.jpg,A344BXT88DM2ZH_2022-09-18_09h11.14.066.csv
181,3.0,left,right,0.0,2.0348,0.0,1.0,1.0,1.0,1.0,2883273443-68193.jpg,2898627427-366763.jpg,A344BXT88DM2ZH_2022-09-18_09h11.14.066.csv
182,3.0,left,left,1.0,1.5245,0.0,2.0,2.0,2.0,1.0,2883256307-365057.jpg,2864904453-63933.jpg,A344BXT88DM2ZH_2022-09-18_09h11.14.066.csv
183,1.0,left,left,1.0,1.6336,0.0,3.0,3.0,3.0,1.0,2874299429-139694.jpg,2986447306-296584.jpg,A344BXT88DM2ZH_2022-09-18_09h11.14.066.csv
184,3.0,left,left,1.0,1.7016,0.0,4.0,4.0,4.0,1.0,2238481198-19822.jpg,2238480803-19737.jpg,A344BXT88DM2ZH_2022-09-18_09h11.14.066.csv
185,2.0,left,right,0.0,2.2366,0.0,5.0,5.0,5.0,1.0,2864910426-287204.jpg,2883268412-365899.jpg,A344BXT88DM2ZH_2022-09-18_09h11.14.066.csv
186,3.0,right,right,1.0,1.111,0.0,6.0,6.0,6.0,1.0,2964216376-294181.jpg,2901939379-143479.jpg,A344BXT88DM2ZH_2022-09-18_09h11.14.066.csv
187,1.0,right,left,0.0,2.2394,0.0,7.0,7.0,7.0,1.0,2964221435-219434.jpg,2898635427-367120.jpg,A344BXT88DM2ZH_2022-09-18_09h11.14.066.csv
188,2.0,left,right,0.0,1.9234,0.0,8.0,8.0,8.0,1.0,2986451363-73599.jpg,2860302315-210704.jpg,A344BXT88DM2ZH_2022-09-18_09h11.14.066.csv
189,3.0,left,left,1.0,2.1303,0.0,9.0,9.0,9.0,1.0,2898618390-216538.jpg,2575120609-129862.jpg,A344BXT88DM2ZH_2022-09-18_09h11.14.066.csv
190,2.0,left,left,1.0,2.0178,0.0,10.0,10.0,10.0,1.0,2446758985-197609.jpg,2864909447-362144.jpg,A344BXT88DM2ZH_2022-09-18_09h11.14.066.csv
191,1.0,right,right,1.0,1.8147,0.0,11.0,11.0,11.0,1.0,2984626312-370849.jpg,2883268412-365898.jpg,A344BXT88DM2ZH_2022-09-18_09h11.14.066.csv
192,3.0,left,right,0.0,1.8966,0.0,12.0,12.0,12.0,1.0,2964216465-219242.jpg,2898619327-366362.jpg,A344BXT88DM2ZH_2022-09-18_09h11.14.066.csv
193,1.0,right,right,1.0,1.6195,0.0,13.0,13.0,13.0,1.0,2452380171-273112.jpg,2449442529-124445.jpg,A344BXT88DM2ZH_2022-09-18_09h11.14.066.csv
194,3.0,right,right,1.0,1.8159,0.0,14.0,14.0,14.0,1.0,2986447332-371497.jpg,2512875899-126682.jpg,A344BXT88DM2ZH_2022-09-18_09h11.14.066.csv
195,3.0,right,right,1.0,2.1142,0.0,15.0,15.0,15.0,1.0,2238577590-185467.jpg,2901947423-70311.jpg,A344BXT88DM2ZH_2022-09-18_09h11.14.066.csv
196,1.0,right,right,1.0,2.9183,0.0,16.0,16.0,16.0,1.0,2238499057-320266.jpg,2238428357-313623.jpg,A344BXT88DM2ZH_2022-09-18_09h11.14.066.csv
197,1.0,left,left,1.0,1.5195,0.0,17.0,17.0,17.0,1.0,2452381505-199546.jpg,2901938432-367627.jpg,A344BXT88DM2ZH_2022-09-18_09h11.14.066.csv
198,1.0,right,left,0.0,1.8049,0.0,18.0,18.0,18.0,1.0,2238516618-25604.jpg,2981241414-145842.jpg,A344BXT88DM2ZH_2022-09-18_09h11.14.066.csv
199,1.0,right,right,1.0,1.4265,0.0,19.0,19.0,19.0,1.0,2446761374-124213.jpg,2874301407-363895.jpg,A344BXT88DM2ZH_2022-09-18_09h11.14.066.csv
200,2.0,left,left,1.0,1.5167,0.0,20.0,20.0,20.0,1.0,2898617468-68274.jpg,2901943387-368037.jpg,A344BXT88DM2ZH_2022-09-18_09h11.14.066.csv
201,1.0,left,left,1.0,1.5069,0.0,21.0,21.0,21.0,1.0,2460547508-51571.jpg,2452380166-273109.jpg,A344BXT88DM2ZH_2022-09-18_09h11.14.066.csv
202,3.0,left,left,1.0,2.1259,0.0,22.0,22.0,22.0,1.0,2874302418-65978.jpg,2898633321-291943.jpg,A344BXT88DM2ZH_2022-09-18_09h11.14.066.csv
203,1.0,right,right,1.0,1.7288,0.0,23.0,23.0,23.0,1.0,2898633421-291974.jpg,2592380177-354629.jpg,A344BXT88DM2ZH_2022-09-18_09h11.14.066.csv
204,2.0,right,left,0.0,2.0179,0.0,24.0,24.0,24.0,1.0,2238480648-19714.jpg,2874302418-65979.jpg,A344BXT88DM2ZH_2022-09-18_09h11.14.066.csv
205,3.0,right,right,1.0,1.5066,0.0,25.0,25.0,25.0,1.0,2237858942-299356.jpg,2452380832-348593.jpg,A344BXT88DM2ZH_2022-09-18_09h11.14.066.csv
206,3.0,left,left,1.0,2.1268,0.0,26.0,26.0,26.0,1.0,2238560245-182099.jpg,2238480980-168129.jpg,A344BXT88DM2ZH_2022-09-18_09h11.14.066.csv
207,3.0,right,left,0.0,1.9086,0.0,27.0,27.0,27.0,1.0,2898618444-142232.jpg,2898618444-142233.jpg,A344BXT88DM2ZH_2022-09-18_09h11.14.066.csv
208,3.0,right,right,1.0,1.4179,0.0,28.0,28.0,28.0,1.0,2898631468-68931.jpg,2901941401-292798.jpg,A344BXT88DM2ZH_2022-09-18_09h11.14.066.csv
209,1.0,left,right,0.0,1.814,0.0,29.0,29.0,29.0,1.0,2901952513-70703.jpg,2864907361-287062.jpg,A344BXT88DM2ZH_2022-09-18_09h11.14.066.csv
210,1.0,left,right,0.0,1.2294,0.0,30.0,30.0,30.0,1.0,2868475410-213219.jpg,2901946465-218350.jpg,A344BXT88DM2ZH_2022-09-18_09h11.14.066.csv
211,2.0,left,right,0.0,1.8417,0.0,31.0,31.0,31.0,1.0,2964222378-71332.jpg,2901933382-367209.jpg,A344BXT88DM2ZH_2022-09-18_09h11.14.066.csv
212,3.0,right,left,0.0,1.81,0.0,32.0,32.0,32.0,1.0,2446760917-347439.jpg,2874299429-139695.jpg,A344BXT88DM2ZH_2022-09-18_09h11.14.066.csv
213,2.0,left,right,0.0,1.1033,0.0,33.0,33.0,33.0,1.0,2864907432-362042.jpg,2901947423-70310.jpg,A344BXT88DM2ZH_2022-09-18_09h11.14.066.csv
214,1.0,left,left,1.0,2.3974,0.0,34.0,34.0,34.0,1.0,2898624426-291546.jpg,2964218432-369263.jpg,A344BXT88DM2ZH_2022-09-18_09h11.14.066.csv
215,3.0,left,right,0.0,1.215,0.0,35.0,35.0,35.0,1.0,2460547467-349421.jpg,2981235446-294901.jpg,A344BXT88DM2ZH_2022-09-18_09h11.14.066.csv
216,3.0,right,right,1.0,1.9067,0.0,36.0,36.0,36.0,1.0,2964220333-71258.jpg,2238580740-186218.jpg,A344BXT88DM2ZH_2022-09-18_09h11.14.066.csv
217,2.0,right,right,1.0,1.7586,0.0,37.0,37.0,37.0,1.0,2575118671-277663.jpg,2898633421-291973.jpg,A344BXT88DM2ZH_2022-09-18_09h11.14.066.csv
218,2.0,right,left,0.0,1.0091,0.0,38.0,38.0,38.0,1.0,2981246400-220365.jpg,2874307433-66280.jpg,A344BXT88DM2ZH_2022-09-18_09h11.14.066.csv
219,3.0,left,left,1.0,1.1188,0.0,39.0,39.0,39.0,1.0,2898634397-367080.jpg,2964217461-294238.jpg,A344BXT88DM2ZH_2022-09-18_09h11.14.066.csv
220,1.0,left,left,1.0,1.5236,0.0,40.0,40.0,40.0,1.0,2449442529-124446.jpg,2446759803-49251.jpg,A344BXT88DM2ZH_2022-09-18_09h11.14.066.csv
221,2.0,right,right,1.0,1.217,0.0,41.0,41.0,41.0,1.0,2446759306-271734.jpg,2964218374-144967.jpg,A344BXT88DM2ZH_2022-09-18_09h11.14.066.csv
222,3.0,left,left,1.0,1.4297,0.0,42.0,42.0,42.0,1.0,2981231403-71642.jpg,2427873763-47290.jpg,A344BXT88DM2ZH_2022-09-18_09h11.14.066.csv
223,1.0,right,right,1.0,1.424,0.0,43.0,43.0,43.0,1.0,2238584894-113161.jpg,2238572663-35822.jpg,A344BXT88DM2ZH_2022-09-18_09h11.14.066.csv
224,2.0,left,right,0.0,1.4116,0.0,44.0,44.0,44.0,1.0,2901939379-143480.jpg,2981229442-369621.jpg,A344BXT88DM2ZH_2022-09-18_09h11.14.066.csv
225,2.0,left,left,1.0,2.3238,0.0,45.0,45.0,45.0,1.0,2874303365-214262.jpg,2238563377-332054.jpg,A344BXT88DM2ZH_2022-09-18_09h11.14.066.csv
226,2.0,right,right,1.0,2.509,0.0,46.0,46.0,46.0,1.0,2238436322-314047.jpg,2238425482-313537.jpg,A344BXT88DM2ZH_2022-09-18_09h11.14.066.csv
227,2.0,right,left,0.0,1.3917,0.0,47.0,47.0,47.0,1.0,2898618440-216547.jpg,2446759803-49249.jpg,A344BXT88DM2ZH_2022-09-18_09h11.14.066.csv
228,2.0,right,right,1.0,1.8309,0.0,48.0,48.0,48.0,1.0,2458348012-349114.jpg,2964213381-294060.jpg,A344BXT88DM2ZH_2022-09-18_09h11.14.066.csv
229,1.0,right,left,0.0,1.5204,0.0,49.0,49.0,49.0,1.0,2883268471-290843.jpg,2883268471-290842.jpg,A344BXT88DM2ZH_2022-09-18_09h11.14.066.csv
230,2.0,left,left,1.0,1.7102,0.0,50.0,50.0,50.0,1.0,2460547467-349422.jpg,2868487415-213924.jpg,A344BXT88DM2ZH_2022-09-18_09h11.14.066.csv
231,1.0,left,right,0.0,1.9272,0.0,51.0,51.0,51.0,1.0,2238481928-19949.jpg,2883264367-365620.jpg,A344BXT88DM2ZH_2022-09-18_09h11.14.066.csv
232,3.0,left,left,1.0,1.8202,0.0,52.0,52.0,52.0,1.0,2898635428-69104.jpg,2898625336-291572.jpg,A344BXT88DM2ZH_2022-09-18_09h11.14.066.csv
233,3.0,left,left,1.0,1.5129,0.0,53.0,53.0,53.0,1.0,2868474407-362883.jpg,2901948383-70363.jpg,A344BXT88DM2ZH_2022-09-18_09h11.14.066.csv
234,1.0,left,left,1.0,2.5084,0.0,54.0,54.0,54.0,1.0,2592380177-354626.jpg,2238576792-334659.jpg,A344BXT88DM2ZH_2022-09-18_09h11.14.066.csv
235,2.0,left,right,0.0,1.2194,0.0,55.0,55.0,55.0,1.0,2986451363-73598.jpg,2984628361-295995.jpg,A344BXT88DM2ZH_2022-09-18_09h11.14.066.csv
236,2.0,right,right,1.0,2.0161,0.0,56.0,56.0,56.0,1.0,2427874554-121863.jpg,2458347385-199723.jpg,A344BXT88DM2ZH_2022-09-18_09h11.14.066.csv
237,2.0,right,right,1.0,1.4133,0.0,57.0,57.0,57.0,1.0,2238573546-258454.jpg,2238480677-317399.jpg,A344BXT88DM2ZH_2022-09-18_09h11.14.066.csv
238,2.0,left,right,0.0,1.7874,0.0,58.0,58.0,58.0,1.0,2964223381-294447.jpg,2901941438-69836.jpg,A344BXT88DM2ZH_2022-09-18_09h11.14.066.csv
239,1.0,right,right,1.0,1.7116,0.0,59.0,59.0,59.0,1.0,2575963989-130576.jpg,2592379964-131054.jpg,A344BXT88DM2ZH_2022-09-18_09h11.14.066.csv
240,1.0,left,left,1.0,8.9508,0.0,0.0,0.0,0.0,1.0,2898635427-367120.jpg,2964221435-219434.jpg,A2MIFJZZPOCI6_2022-09-18_07h49.50.603.csv
241,1.0,left,left,1.0,5.6115,0.0,1.0,1.0,1.0,1.0,2986451363-73599.jpg,2898626385-216899.jpg,A2MIFJZZPOCI6_2022-09-18_07h49.50.603.csv
242,3.0,left,left,1.0,34.1567,0.0,2.0,2.0,2.0,1.0,2874299429-139695.jpg,2446760917-347439.jpg,A2MIFJZZPOCI6_2022-09-18_07h49.50.603.csv
243,1.0,right,right,1.0,2.0404,0.0,3.0,3.0,3.0,1.0,2238328478-11678.jpg,2452380832-348593.jpg,A2MIFJZZPOCI6_2022-09-18_07h49.50.603.csv
244,2.0,left,right,0.0,12.4693,0.0,4.0,4.0,4.0,1.0,2238481928-19949.jpg,2864900357-361688.jpg,A2MIFJZZPOCI6_2022-09-18_07h49.50.603.csv
245,3.0,right,right,1.0,3.776,0.0,5.0,5.0,5.0,1.0,2901939433-69672.jpg,2864910426-287204.jpg,A2MIFJZZPOCI6_2022-09-18_07h49.50.603.csv
246,2.0,left,left,1.0,7.0623,0.0,6.0,6.0,6.0,1.0,2446758985-197609.jpg,2864909447-362144.jpg,A2MIFJZZPOCI6_2022-09-18_07h49.50.603.csv
247,1.0,left,left,1.0,3.2266,0.0,7.0,7.0,7.0,1.0,2964216465-219242.jpg,2238544191-252422.jpg,A2MIFJZZPOCI6_2022-09-18_07h49.50.603.csv
248,1.0,right,right,1.0,2.373,0.0,8.0,8.0,8.0,1.0,2446761374-124213.jpg,2874301407-363895.jpg,A2MIFJZZPOCI6_2022-09-18_07h49.50.603.csv
249,2.0,left,left,1.0,5.1846,0.0,9.0,9.0,9.0,1.0,2460547467-349422.jpg,2868487415-213924.jpg,A2MIFJZZPOCI6_2022-09-18_07h49.50.603.csv
250,3.0,right,right,1.0,9.0972,0.0,10.0,10.0,10.0,1.0,2883266367-365742.jpg,2874299429-139694.jpg,A2MIFJZZPOCI6_2022-09-18_07h49.50.603.csv
251,3.0,left,left,1.0,9.947,0.0,11.0,11.0,11.0,1.0,2238480677-317399.jpg,2238480278-19661.jpg,A2MIFJZZPOCI6_2022-09-18_07h49.50.603.csv
252,1.0,left,left,1.0,5.824,0.0,12.0,12.0,12.0,1.0,2449442529-124446.jpg,2446759803-49251.jpg,A2MIFJZZPOCI6_2022-09-18_07h49.50.603.csv
253,3.0,right,right,1.0,36.1247,0.0,13.0,13.0,13.0,1.0,2981240427-370099.jpg,2964222378-71332.jpg,A2MIFJZZPOCI6_2022-09-18_07h49.50.603.csv
254,1.0,right,right,1.0,6.7621,0.0,14.0,14.0,14.0,1.0,2901938432-367627.jpg,2452381505-199546.jpg,A2MIFJZZPOCI6_2022-09-18_07h49.50.603.csv
255,2.0,left,left,1.0,1.8434,0.0,15.0,15.0,15.0,1.0,2898633421-291973.jpg,2575118671-277663.jpg,A2MIFJZZPOCI6_2022-09-18_07h49.50.603.csv
256,3.0,right,right,1.0,5.7819,0.0,16.0,16.0,16.0,1.0,2864904453-63933.jpg,2883256307-365057.jpg,A2MIFJZZPOCI6_2022-09-18_07h49.50.603.csv
257,2.0,left,left,1.0,5.528,0.0,17.0,17.0,17.0,1.0,2238481198-19822.jpg,2901946436-293242.jpg,A2MIFJZZPOCI6_2022-09-18_07h49.50.603.csv
258,2.0,right,right,1.0,1.4629,0.0,18.0,18.0,18.0,1.0,2579432534-130704.jpg,2592380177-354629.jpg,A2MIFJZZPOCI6_2022-09-18_07h49.50.603.csv
259,3.0,right,right,1.0,1.2042,0.0,19.0,19.0,19.0,1.0,2592380272-354673.jpg,2592379964-131054.jpg,A2MIFJZZPOCI6_2022-09-18_07h49.50.603.csv
260,3.0,right,right,1.0,3.1369,0.0,20.0,20.0,20.0,1.0,2901942443-69925.jpg,2986451363-73598.jpg,A2MIFJZZPOCI6_2022-09-18_07h49.50.603.csv
261,3.0,left,left,1.0,1.9188,0.0,21.0,21.0,21.0,1.0,2981231403-71642.jpg,2427873763-47290.jpg,A2MIFJZZPOCI6_2022-09-18_07h49.50.603.csv
262,1.0,left,left,1.0,2.5858,0.0,22.0,22.0,22.0,1.0,2874302418-65979.jpg,2237857458-1325.jpg,A2MIFJZZPOCI6_2022-09-18_07h49.50.603.csv
263,3.0,right,left,0.0,9.5914,0.0,23.0,23.0,23.0,1.0,2901947448-70314.jpg,2883268471-290842.jpg,A2MIFJZZPOCI6_2022-09-18_07h49.50.603.csv
264,1.0,right,right,1.0,6.4267,0.0,24.0,24.0,24.0,1.0,2864906345-212360.jpg,2575120738-55529.jpg,A2MIFJZZPOCI6_2022-09-18_07h49.50.603.csv
265,2.0,right,right,1.0,2.108,0.0,25.0,25.0,25.0,1.0,2238436322-314047.jpg,2238425482-313537.jpg,A2MIFJZZPOCI6_2022-09-18_07h49.50.603.csv
266,2.0,left,left,1.0,4.0031,0.0,26.0,26.0,26.0,1.0,2460547467-349421.jpg,2452380166-273110.jpg,A2MIFJZZPOCI6_2022-09-18_07h49.50.603.csv
267,2.0,right,left,0.0,8.8519,0.0,27.0,27.0,27.0,1.0,2901939327-367670.jpg,2898618390-216538.jpg,A2MIFJZZPOCI6_2022-09-18_07h49.50.603.csv
268,1.0,right,right,1.0,1.5139,0.0,28.0,28.0,28.0,1.0,2592380255-205553.jpg,2238560245-182099.jpg,A2MIFJZZPOCI6_2022-09-18_07h49.50.603.csv
269,2.0,left,left,1.0,5.8998,0.0,29.0,29.0,29.0,1.0,2238580740-186218.jpg,2238521193-26285.jpg,A2MIFJZZPOCI6_2022-09-18_07h49.50.603.csv
270,1.0,right,right,1.0,1.5392,0.0,30.0,30.0,30.0,1.0,2238576792-334659.jpg,2592380177-354626.jpg,A2MIFJZZPOCI6_2022-09-18_07h49.50.603.csv
271,2.0,left,left,1.0,6.1592,0.0,31.0,31.0,31.0,1.0,2868475410-213219.jpg,2238480803-19739.jpg,A2MIFJZZPOCI6_2022-09-18_07h49.50.603.csv
272,3.0,right,right,1.0,1.8517,0.0,32.0,32.0,32.0,1.0,2964217461-294238.jpg,2898634397-367080.jpg,A2MIFJZZPOCI6_2022-09-18_07h49.50.603.csv
273,1.0,right,right,1.0,1.4855,0.0,33.0,33.0,33.0,1.0,2964224310-219528.jpg,2874302418-65978.jpg,A2MIFJZZPOCI6_2022-09-18_07h49.50.603.csv
274,3.0,left,left,1.0,1.56,0.0,34.0,34.0,34.0,1.0,2901952513-70703.jpg,2238481198-19821.jpg,A2MIFJZZPOCI6_2022-09-18_07h49.50.603.csv
275,3.0,right,right,1.0,5.9256,0.0,35.0,35.0,35.0,1.0,2901951392-368654.jpg,2446759803-49249.jpg,A2MIFJZZPOCI6_2022-09-18_07h49.50.603.csv
276,1.0,left,left,1.0,3.2415,0.0,36.0,36.0,36.0,1.0,2981241414-145842.jpg,2238516618-25604.jpg,A2MIFJZZPOCI6_2022-09-18_07h49.50.603.csv
277,3.0,left,left,1.0,2.7575,0.0,37.0,37.0,37.0,1.0,2460547508-51571.jpg,2901941438-69835.jpg,A2MIFJZZPOCI6_2022-09-18_07h49.50.603.csv
278,1.0,right,right,1.0,5.8488,0.0,38.0,38.0,38.0,1.0,2883254439-140940.jpg,2883273443-68193.jpg,A2MIFJZZPOCI6_2022-09-18_07h49.50.603.csv
279,1.0,left,left,1.0,10.6489,0.0,39.0,39.0,39.0,1.0,2964218374-144967.jpg,2964218374-144968.jpg,A2MIFJZZPOCI6_2022-09-18_07h49.50.603.csv
280,1.0,right,right,1.0,2.149,0.0,40.0,40.0,40.0,1.0,2981244394-145974.jpg,2964213381-294060.jpg,A2MIFJZZPOCI6_2022-09-18_07h49.50.603.csv
281,3.0,left,left,1.0,3.241,0.0,41.0,41.0,41.0,1.0,2458347385-199723.jpg,2458347252-348911.jpg,A2MIFJZZPOCI6_2022-09-18_07h49.50.603.csv
282,2.0,left,right,0.0,4.0043,0.0,42.0,42.0,42.0,1.0,2238572663-35822.jpg,2238571930-184143.jpg,A2MIFJZZPOCI6_2022-09-18_07h49.50.603.csv
283,2.0,left,left,1.0,9.2378,0.0,43.0,43.0,43.0,1.0,2874307433-66280.jpg,2981246400-220365.jpg,A2MIFJZZPOCI6_2022-09-18_07h49.50.603.csv
284,3.0,left,left,1.0,10.6337,0.0,44.0,44.0,44.0,1.0,2864907432-362042.jpg,2989726338-74002.jpg,A2MIFJZZPOCI6_2022-09-18_07h49.50.603.csv
285,3.0,right,right,1.0,3.0898,0.0,45.0,45.0,45.0,1.0,2964207374-144577.jpg,2898617468-68274.jpg,A2MIFJZZPOCI6_2022-09-18_07h49.50.603.csv
286,1.0,right,right,1.0,1.8623,0.0,46.0,46.0,46.0,1.0,2860312398-62572.jpg,2901947423-70311.jpg,A2MIFJZZPOCI6_2022-09-18_07h49.50.603.csv
287,3.0,left,left,1.0,4.6721,0.0,47.0,47.0,47.0,1.0,2901939379-143479.jpg,2964216376-294181.jpg,A2MIFJZZPOCI6_2022-09-18_07h49.50.603.csv
288,2.0,left,left,1.0,1.3361,0.0,48.0,48.0,48.0,1.0,2238428357-313623.jpg,2984615361-295509.jpg,A2MIFJZZPOCI6_2022-09-18_07h49.50.603.csv
289,1.0,right,right,1.0,2.716,0.0,49.0,49.0,49.0,1.0,2898631359-142721.jpg,2898618444-142233.jpg,A2MIFJZZPOCI6_2022-09-18_07h49.50.603.csv
290,3.0,left,left,1.0,4.3133,0.0,50.0,50.0,50.0,1.0,2898624426-291546.jpg,2981235446-294900.jpg,A2MIFJZZPOCI6_2022-09-18_07h49.50.603.csv
291,2.0,left,left,1.0,3.157,0.0,51.0,51.0,51.0,1.0,2901941401-292798.jpg,2981243412-370222.jpg,A2MIFJZZPOCI6_2022-09-18_07h49.50.603.csv
292,2.0,right,right,1.0,2.9574,0.0,52.0,52.0,52.0,1.0,2984615361-295510.jpg,2883268412-365898.jpg,A2MIFJZZPOCI6_2022-09-18_07h49.50.603.csv
293,1.0,right,left,0.0,10.1852,0.0,53.0,53.0,53.0,1.0,2901942428-69919.jpg,2901939379-143480.jpg,A2MIFJZZPOCI6_2022-09-18_07h49.50.603.csv
294,3.0,left,left,1.0,6.4238,0.0,54.0,54.0,54.0,1.0,2898635428-69104.jpg,2898625336-291572.jpg,A2MIFJZZPOCI6_2022-09-18_07h49.50.603.csv
295,1.0,right,right,1.0,3.2345,0.0,55.0,55.0,55.0,1.0,2452380171-273112.jpg,2449442529-124445.jpg,A2MIFJZZPOCI6_2022-09-18_07h49.50.603.csv
296,2.0,left,left,1.0,4.8611,0.0,56.0,56.0,56.0,1.0,2874303365-214262.jpg,2238563377-332054.jpg,A2MIFJZZPOCI6_2022-09-18_07h49.50.603.csv
297,2.0,left,right,0.0,11.88,0.0,57.0,57.0,57.0,1.0,2868474407-362883.jpg,2981246400-220363.jpg,A2MIFJZZPOCI6_2022-09-18_07h49.50.603.csv
298,2.0,right,right,1.0,1.5457,0.0,58.0,58.0,58.0,1.0,2592380177-354628.jpg,2512875899-126682.jpg,A2MIFJZZPOCI6_2022-09-18_07h49.50.603.csv
299,2.0,right,right,1.0,1.7771,0.0,59.0,59.0,59.0,1.0,2901941438-69836.jpg,2964223381-294447.jpg,A2MIFJZZPOCI6_2022-09-18_07h49.50.603.csv
300,3.0,left,left,1.0,1.844,0.0,0.0,0.0,0.0,1.0,2449442529-124445.jpg,2898632385-217137.jpg,A3N5E6HZDBRFNC_2022-09-18_14h35.20.436.csv
301,3.0,left,left,1.0,2.244,0.0,1.0,1.0,1.0,1.0,2898618444-142233.jpg,2898618444-142232.jpg,A3N5E6HZDBRFNC_2022-09-18_14h35.20.436.csv
302,3.0,left,left,1.0,1.383,0.0,2.0,2.0,2.0,1.0,2446759803-49249.jpg,2901951392-368654.jpg,A3N5E6HZDBRFNC_2022-09-18_14h35.20.436.csv
303,2.0,left,left,1.0,1.484,0.0,3.0,3.0,3.0,1.0,2898635428-69104.jpg,2901943411-292945.jpg,A3N5E6HZDBRFNC_2022-09-18_14h35.20.436.csv
304,1.0,right,right,1.0,2.134,0.0,4.0,4.0,4.0,1.0,2460547536-274179.jpg,2512875899-126682.jpg,A3N5E6HZDBRFNC_2022-09-18_14h35.20.436.csv
305,2.0,right,left,0.0,2.811,0.0,5.0,5.0,5.0,1.0,2238573447-333826.jpg,2901947423-70311.jpg,A3N5E6HZDBRFNC_2022-09-18_14h35.20.436.csv
306,3.0,right,right,1.0,2.551,0.0,6.0,6.0,6.0,1.0,2864911457-362260.jpg,2874303365-214262.jpg,A3N5E6HZDBRFNC_2022-09-18_14h35.20.436.csv
307,2.0,left,left,1.0,1.89,0.0,7.0,7.0,7.0,1.0,2883268471-290842.jpg,2883255450-215310.jpg,A3N5E6HZDBRFNC_2022-09-18_14h35.20.436.csv
308,3.0,right,left,0.0,2.487,0.0,8.0,8.0,8.0,1.0,2898633480-217190.jpg,2238425482-313537.jpg,A3N5E6HZDBRFNC_2022-09-18_14h35.20.436.csv
309,2.0,left,left,1.0,3.463,0.0,9.0,9.0,9.0,1.0,2874302418-65979.jpg,2238480648-19714.jpg,A3N5E6HZDBRFNC_2022-09-18_14h35.20.436.csv
310,2.0,left,left,1.0,2.821,0.0,10.0,10.0,10.0,1.0,2901939379-143479.jpg,2446758985-197610.jpg,A3N5E6HZDBRFNC_2022-09-18_14h35.20.436.csv
311,1.0,left,left,1.0,1.873,0.0,11.0,11.0,11.0,1.0,2901941401-292798.jpg,2898618327-366317.jpg,A3N5E6HZDBRFNC_2022-09-18_14h35.20.436.csv
312,2.0,left,left,1.0,3.055,0.0,12.0,12.0,12.0,1.0,2901939379-143480.jpg,2981229442-369621.jpg,A3N5E6HZDBRFNC_2022-09-18_14h35.20.436.csv
313,1.0,right,left,0.0,6.32,0.0,13.0,13.0,13.0,1.0,2238550816-254000.jpg,2238580740-186218.jpg,A3N5E6HZDBRFNC_2022-09-18_14h35.20.436.csv
314,3.0,left,left,1.0,5.823,0.0,14.0,14.0,14.0,1.0,2901952513-70703.jpg,2238481198-19821.jpg,A3N5E6HZDBRFNC_2022-09-18_14h35.20.436.csv
315,2.0,right,right,1.0,1.64,0.0,15.0,15.0,15.0,1.0,2458348012-349114.jpg,2964213381-294060.jpg,A3N5E6HZDBRFNC_2022-09-18_14h35.20.436.csv
316,2.0,right,left,0.0,2.971,0.0,16.0,16.0,16.0,1.0,2864900319-137787.jpg,2964216465-219242.jpg,A3N5E6HZDBRFNC_2022-09-18_14h35.20.436.csv
317,1.0,left,right,0.0,3.108,0.0,17.0,17.0,17.0,1.0,2868475410-213219.jpg,2901946465-218350.jpg,A3N5E6HZDBRFNC_2022-09-18_14h35.20.436.csv
318,1.0,left,left,1.0,3.8,0.0,18.0,18.0,18.0,1.0,2981241414-145842.jpg,2238516618-25604.jpg,A3N5E6HZDBRFNC_2022-09-18_14h35.20.436.csv
319,3.0,right,right,1.0,3.637,0.0,19.0,19.0,19.0,1.0,2238436252-314037.jpg,2883268412-365898.jpg,A3N5E6HZDBRFNC_2022-09-18_14h35.20.436.csv
320,2.0,left,left,1.0,6.509,0.0,20.0,20.0,20.0,1.0,2460547467-349421.jpg,2452380166-273110.jpg,A3N5E6HZDBRFNC_2022-09-18_14h35.20.436.csv
321,1.0,right,right,1.0,1.53,0.0,21.0,21.0,21.0,1.0,2898618440-216545.jpg,2460547467-349422.jpg,A3N5E6HZDBRFNC_2022-09-18_14h35.20.436.csv
322,1.0,left,left,1.0,6.068,0.0,22.0,22.0,22.0,1.0,2864910426-287204.jpg,2864902304-137862.jpg,A3N5E6HZDBRFNC_2022-09-18_14h35.20.436.csv
323,1.0,left,left,1.0,2.403,0.0,23.0,23.0,23.0,1.0,2964218374-144967.jpg,2964218374-144968.jpg,A3N5E6HZDBRFNC_2022-09-18_14h35.20.436.csv
324,3.0,left,left,1.0,1.511,0.0,24.0,24.0,24.0,1.0,2898617468-68274.jpg,2964207374-144577.jpg,A3N5E6HZDBRFNC_2022-09-18_14h35.20.436.csv
325,3.0,right,left,0.0,1.78,0.0,25.0,25.0,25.0,1.0,2238480278-19661.jpg,2238480677-317399.jpg,A3N5E6HZDBRFNC_2022-09-18_14h35.20.436.csv
326,3.0,right,right,1.0,2.656,0.0,26.0,26.0,26.0,1.0,2575120609-129862.jpg,2898618390-216538.jpg,A3N5E6HZDBRFNC_2022-09-18_14h35.20.436.csv
327,1.0,left,left,1.0,1.877,0.0,27.0,27.0,27.0,1.0,2238572663-35822.jpg,2238584894-113161.jpg,A3N5E6HZDBRFNC_2022-09-18_14h35.20.436.csv
328,1.0,right,right,1.0,4.449,0.0,28.0,28.0,28.0,1.0,2237857458-1324.jpg,2986451363-73598.jpg,A3N5E6HZDBRFNC_2022-09-18_14h35.20.436.csv
329,2.0,right,left,0.0,2.078,0.0,29.0,29.0,29.0,1.0,2874314526-289684.jpg,2238560245-182099.jpg,A3N5E6HZDBRFNC_2022-09-18_14h35.20.436.csv
330,3.0,left,right,0.0,1.755,0.0,30.0,30.0,30.0,1.0,2874302418-65978.jpg,2898633321-291943.jpg,A3N5E6HZDBRFNC_2022-09-18_14h35.20.436.csv
331,1.0,left,left,1.0,2.302,0.0,31.0,31.0,31.0,1.0,2592380177-354626.jpg,2238576792-334659.jpg,A3N5E6HZDBRFNC_2022-09-18_14h35.20.436.csv
332,3.0,right,right,1.0,1.991,0.0,32.0,32.0,32.0,1.0,2981235446-294900.jpg,2898624426-291546.jpg,A3N5E6HZDBRFNC_2022-09-18_14h35.20.436.csv
333,1.0,right,right,1.0,1.984,0.0,33.0,33.0,33.0,1.0,2864901420-212147.jpg,2864907432-362042.jpg,A3N5E6HZDBRFNC_2022-09-18_14h35.20.436.csv
334,3.0,left,left,1.0,3.745,0.0,34.0,34.0,34.0,1.0,2452380832-348593.jpg,2237858942-299356.jpg,A3N5E6HZDBRFNC_2022-09-18_14h35.20.436.csv
335,2.0,left,left,1.0,2.475,0.0,35.0,35.0,35.0,1.0,2964222378-71332.jpg,2901933382-367209.jpg,A3N5E6HZDBRFNC_2022-09-18_14h35.20.436.csv
336,2.0,left,right,0.0,2.621,0.0,36.0,36.0,36.0,1.0,2898634397-367080.jpg,2901934408-69289.jpg,A3N5E6HZDBRFNC_2022-09-18_14h35.20.436.csv
337,1.0,right,left,0.0,5.388,0.0,37.0,37.0,37.0,1.0,2460547732-349518.jpg,2868474407-362883.jpg,A3N5E6HZDBRFNC_2022-09-18_14h35.20.436.csv
338,1.0,left,left,1.0,2.049,0.0,38.0,38.0,38.0,1.0,2575120738-55529.jpg,2864906345-212360.jpg,A3N5E6HZDBRFNC_2022-09-18_14h35.20.436.csv
339,3.0,left,left,1.0,3.714,0.0,39.0,39.0,39.0,1.0,2898633421-291973.jpg,2238550049-105691.jpg,A3N5E6HZDBRFNC_2022-09-18_14h35.20.436.csv
340,2.0,right,left,0.0,3.274,0.0,40.0,40.0,40.0,1.0,2964210336-293945.jpg,2883256307-365057.jpg,A3N5E6HZDBRFNC_2022-09-18_14h35.20.436.csv
341,1.0,left,left,1.0,1.995,0.0,41.0,41.0,41.0,1.0,2592379964-131054.jpg,2575963989-130576.jpg,A3N5E6HZDBRFNC_2022-09-18_14h35.20.436.csv
342,3.0,left,right,0.0,1.252,0.0,42.0,42.0,42.0,1.0,2964223381-294447.jpg,2898628438-68785.jpg,A3N5E6HZDBRFNC_2022-09-18_14h35.20.436.csv
343,2.0,right,left,0.0,1.496,0.0,43.0,43.0,43.0,1.0,2981232437-369759.jpg,2460547508-51571.jpg,A3N5E6HZDBRFNC_2022-09-18_14h35.20.436.csv
344,2.0,right,left,0.0,2.661,0.0,44.0,44.0,44.0,1.0,2864900357-361688.jpg,2238481928-19949.jpg,A3N5E6HZDBRFNC_2022-09-18_14h35.20.436.csv
345,2.0,left,left,1.0,3.569,0.0,45.0,45.0,45.0,1.0,2981231403-71642.jpg,2874305405-214397.jpg,A3N5E6HZDBRFNC_2022-09-18_14h35.20.436.csv
346,1.0,right,right,1.0,3.471,0.0,46.0,46.0,46.0,1.0,2898633421-291974.jpg,2592380177-354629.jpg,A3N5E6HZDBRFNC_2022-09-18_14h35.20.436.csv
347,1.0,left,left,1.0,4.672,0.0,47.0,47.0,47.0,1.0,2874299429-139694.jpg,2986447306-296584.jpg,A3N5E6HZDBRFNC_2022-09-18_14h35.20.436.csv
348,2.0,right,right,1.0,2.221,0.0,48.0,48.0,48.0,1.0,2864909447-362144.jpg,2446758985-197609.jpg,A3N5E6HZDBRFNC_2022-09-18_14h35.20.436.csv
349,3.0,left,left,1.0,2.869,0.0,49.0,49.0,49.0,1.0,2458347385-199723.jpg,2458347252-348911.jpg,A3N5E6HZDBRFNC_2022-09-18_14h35.20.436.csv
350,3.0,right,right,1.0,5.368,0.0,50.0,50.0,50.0,1.0,2898621427-366486.jpg,2898635427-367120.jpg,A3N5E6HZDBRFNC_2022-09-18_14h35.20.436.csv
351,2.0,right,right,1.0,1.812,0.0,51.0,51.0,51.0,1.0,2986397322-371109.jpg,2874301407-363895.jpg,A3N5E6HZDBRFNC_2022-09-18_14h35.20.436.csv
352,3.0,left,right,0.0,3.164,0.0,52.0,52.0,52.0,1.0,2986451363-73599.jpg,2238434559-90406.jpg,A3N5E6HZDBRFNC_2022-09-18_14h35.20.436.csv
353,3.0,right,right,1.0,1.399,0.0,53.0,53.0,53.0,1.0,2238480803-19737.jpg,2238481198-19822.jpg,A3N5E6HZDBRFNC_2022-09-18_14h35.20.436.csv
354,2.0,right,left,0.0,2.717,0.0,54.0,54.0,54.0,1.0,2981246400-220365.jpg,2874307433-66280.jpg,A3N5E6HZDBRFNC_2022-09-18_14h35.20.436.csv
355,3.0,right,left,0.0,2.794,0.0,55.0,55.0,55.0,1.0,2446760917-347439.jpg,2874299429-139695.jpg,A3N5E6HZDBRFNC_2022-09-18_14h35.20.436.csv
356,1.0,left,right,0.0,1.909,0.0,56.0,56.0,56.0,1.0,2883273443-68193.jpg,2883254439-140940.jpg,A3N5E6HZDBRFNC_2022-09-18_14h35.20.436.csv
357,1.0,left,right,0.0,2.847,0.0,57.0,57.0,57.0,1.0,2449442529-124446.jpg,2446759803-49251.jpg,A3N5E6HZDBRFNC_2022-09-18_14h35.20.436.csv
358,1.0,left,right,0.0,8.447,0.0,58.0,58.0,58.0,1.0,2238428357-313623.jpg,2238499057-320266.jpg,A3N5E6HZDBRFNC_2022-09-18_14h35.20.436.csv
359,2.0,left,right,0.0,3.78,0.0,59.0,59.0,59.0,1.0,2452381505-199546.jpg,2898632385-217138.jpg,A3N5E6HZDBRFNC_2022-09-18_14h35.20.436.csv
360,1.0,right,right,1.0,3.2626,0.0,0.0,0.0,0.0,1.0,2575963989-130576.jpg,2592379964-131054.jpg,A287I4G1Q0K003_2022-09-18_09h12.09.018.csv
361,3.0,right,right,1.0,2.6801,0.0,1.0,1.0,1.0,1.0,2238436252-314037.jpg,2883268412-365898.jpg,A287I4G1Q0K003_2022-09-18_09h12.09.018.csv
362,3.0,right,left,0.0,1.2166,0.0,2.0,2.0,2.0,1.0,2901939433-69672.jpg,2864910426-287204.jpg,A287I4G1Q0K003_2022-09-18_09h12.09.018.csv
363,3.0,right,right,1.0,0.8442,0.0,3.0,3.0,3.0,1.0,2512875587-350044.jpg,2592380177-354629.jpg,A287I4G1Q0K003_2022-09-18_09h12.09.018.csv
364,1.0,right,left,0.0,1.4091,0.0,4.0,4.0,4.0,1.0,2898618327-366317.jpg,2901941401-292798.jpg,A287I4G1Q0K003_2022-09-18_09h12.09.018.csv
365,1.0,right,right,1.0,1.0289,0.0,5.0,5.0,5.0,1.0,2460547467-349423.jpg,2901939379-143479.jpg,A287I4G1Q0K003_2022-09-18_09h12.09.018.csv
366,1.0,left,left,1.0,1.4964,0.0,6.0,6.0,6.0,1.0,2898635428-69104.jpg,2446759803-49250.jpg,A287I4G1Q0K003_2022-09-18_09h12.09.018.csv
367,2.0,right,left,0.0,1.3987,0.0,7.0,7.0,7.0,1.0,2901933382-367209.jpg,2964222378-71332.jpg,A287I4G1Q0K003_2022-09-18_09h12.09.018.csv
368,3.0,left,right,0.0,1.276,0.0,8.0,8.0,8.0,1.0,2874303365-214262.jpg,2864911457-362260.jpg,A287I4G1Q0K003_2022-09-18_09h12.09.018.csv
369,3.0,left,left,1.0,1.1024,0.0,9.0,9.0,9.0,1.0,2898635427-367120.jpg,2898621427-366486.jpg,A287I4G1Q0K003_2022-09-18_09h12.09.018.csv
370,2.0,right,right,1.0,1.0428,0.0,10.0,10.0,10.0,1.0,2901942443-69923.jpg,2874299429-139695.jpg,A287I4G1Q0K003_2022-09-18_09h12.09.018.csv
371,3.0,right,left,0.0,1.0305,0.0,11.0,11.0,11.0,1.0,2981241419-145844.jpg,2238481928-19949.jpg,A287I4G1Q0K003_2022-09-18_09h12.09.018.csv
372,1.0,left,left,1.0,1.4032,0.0,12.0,12.0,12.0,1.0,2238572663-35822.jpg,2238584894-113161.jpg,A287I4G1Q0K003_2022-09-18_09h12.09.018.csv
373,2.0,left,right,0.0,0.9363,0.0,13.0,13.0,13.0,1.0,2460547467-349422.jpg,2868487415-213924.jpg,A287I4G1Q0K003_2022-09-18_09h12.09.018.csv
374,3.0,left,left,1.0,0.7517,0.0,14.0,14.0,14.0,1.0,2964213381-294060.jpg,2964213381-294061.jpg,A287I4G1Q0K003_2022-09-18_09h12.09.018.csv
375,2.0,left,right,0.0,0.8412,0.0,15.0,15.0,15.0,1.0,2874299429-139694.jpg,2981244403-72215.jpg,A287I4G1Q0K003_2022-09-18_09h12.09.018.csv
376,3.0,right,left,0.0,0.4728,0.0,16.0,16.0,16.0,1.0,2864904453-63933.jpg,2883256307-365057.jpg,A287I4G1Q0K003_2022-09-18_09h12.09.018.csv
377,1.0,left,right,0.0,0.7501,0.0,17.0,17.0,17.0,1.0,2874301407-363895.jpg,2446761374-124213.jpg,A287I4G1Q0K003_2022-09-18_09h12.09.018.csv
378,1.0,right,left,0.0,0.9399,0.0,18.0,18.0,18.0,1.0,2981240424-145795.jpg,2446758985-197609.jpg,A287I4G1Q0K003_2022-09-18_09h12.09.018.csv
379,3.0,left,right,0.0,1.0273,0.0,19.0,19.0,19.0,1.0,2874302418-65978.jpg,2898633321-291943.jpg,A287I4G1Q0K003_2022-09-18_09h12.09.018.csv
380,1.0,left,left,1.0,0.6594,0.0,20.0,20.0,20.0,1.0,2238480677-317399.jpg,2238481630-168218.jpg,A287I4G1Q0K003_2022-09-18_09h12.09.018.csv
381,2.0,right,right,1.0,1.2171,0.0,21.0,21.0,21.0,1.0,2452380166-273110.jpg,2460547467-349421.jpg,A287I4G1Q0K003_2022-09-18_09h12.09.018.csv
382,2.0,right,right,1.0,1.1034,0.0,22.0,22.0,22.0,1.0,2238436322-314047.jpg,2238425482-313537.jpg,A287I4G1Q0K003_2022-09-18_09h12.09.018.csv
383,3.0,right,left,0.0,1.3016,0.0,23.0,23.0,23.0,1.0,2238531493-28260.jpg,2575120738-55529.jpg,A287I4G1Q0K003_2022-09-18_09h12.09.018.csv
384,2.0,left,left,1.0,1.5856,0.0,24.0,24.0,24.0,1.0,2981231403-71642.jpg,2874305405-214397.jpg,A287I4G1Q0K003_2022-09-18_09h12.09.018.csv
385,2.0,right,right,1.0,0.1003,0.0,25.0,25.0,25.0,1.0,2901934408-69289.jpg,2898634397-367080.jpg,A287I4G1Q0K003_2022-09-18_09h12.09.018.csv
386,2.0,left,left,1.0,1.4021,0.0,26.0,26.0,26.0,1.0,2874307433-66280.jpg,2981246400-220365.jpg,A287I4G1Q0K003_2022-09-18_09h12.09.018.csv
387,2.0,right,right,1.0,0.7305,0.0,27.0,27.0,27.0,1.0,2427874554-121863.jpg,2458347385-199723.jpg,A287I4G1Q0K003_2022-09-18_09h12.09.018.csv
388,3.0,right,left,0.0,1.4918,0.0,28.0,28.0,28.0,1.0,2901948383-70363.jpg,2868474407-362883.jpg,A287I4G1Q0K003_2022-09-18_09h12.09.018.csv
389,3.0,right,right,1.0,0.7534,0.0,29.0,29.0,29.0,1.0,2964207374-144577.jpg,2898617468-68274.jpg,A287I4G1Q0K003_2022-09-18_09h12.09.018.csv
390,2.0,left,left,1.0,0.4715,0.0,30.0,30.0,30.0,1.0,2238580740-186218.jpg,2238521193-26285.jpg,A287I4G1Q0K003_2022-09-18_09h12.09.018.csv
391,1.0,right,right,1.0,0.2884,0.0,31.0,31.0,31.0,1.0,2883268471-290843.jpg,2883268471-290842.jpg,A287I4G1Q0K003_2022-09-18_09h12.09.018.csv
392,3.0,left,left,1.0,0.659,0.0,32.0,32.0,32.0,1.0,2449442529-124446.jpg,2460547536-274178.jpg,A287I4G1Q0K003_2022-09-18_09h12.09.018.csv
393,1.0,left,right,0.0,0.2859,0.0,33.0,33.0,33.0,1.0,2898624426-291546.jpg,2964218432-369263.jpg,A287I4G1Q0K003_2022-09-18_09h12.09.018.csv
394,1.0,left,left,1.0,5.4406,0.0,34.0,34.0,34.0,1.0,2898618444-142233.jpg,2898631359-142721.jpg,A287I4G1Q0K003_2022-09-18_09h12.09.018.csv
395,1.0,left,right,0.0,2.9848,0.0,35.0,35.0,35.0,1.0,2898618390-216538.jpg,2237856148-989.jpg,A287I4G1Q0K003_2022-09-18_09h12.09.018.csv
396,2.0,left,right,0.0,2.805,0.0,36.0,36.0,36.0,1.0,2964216465-219242.jpg,2864900319-137787.jpg,A287I4G1Q0K003_2022-09-18_09h12.09.018.csv
397,1.0,left,left,1.0,0.4772,0.0,37.0,37.0,37.0,1.0,2446759803-49249.jpg,2446760601-272099.jpg,A287I4G1Q0K003_2022-09-18_09h12.09.018.csv
398,2.0,right,left,0.0,1.8475,0.0,38.0,38.0,38.0,1.0,2446759306-271734.jpg,2964218374-144967.jpg,A287I4G1Q0K003_2022-09-18_09h12.09.018.csv
399,2.0,left,left,1.0,1.1233,0.0,39.0,39.0,39.0,1.0,2874302418-65979.jpg,2238480648-19714.jpg,A287I4G1Q0K003_2022-09-18_09h12.09.018.csv
400,1.0,left,left,1.0,4.904,0.0,40.0,40.0,40.0,1.0,2238428357-313623.jpg,2238499057-320266.jpg,A287I4G1Q0K003_2022-09-18_09h12.09.018.csv
401,2.0,left,right,0.0,0.7207,0.0,41.0,41.0,41.0,1.0,2986451363-73598.jpg,2984628361-295995.jpg,A287I4G1Q0K003_2022-09-18_09h12.09.018.csv
402,1.0,right,right,1.0,3.7252,0.0,42.0,42.0,42.0,1.0,2238576792-334659.jpg,2592380177-354626.jpg,A287I4G1Q0K003_2022-09-18_09h12.09.018.csv
403,1.0,left,left,1.0,1.5919,0.0,43.0,43.0,43.0,1.0,2238481198-19822.jpg,2862691449-137104.jpg,A287I4G1Q0K003_2022-09-18_09h12.09.018.csv
404,3.0,left,left,1.0,1.1243,0.0,44.0,44.0,44.0,1.0,2452380832-348593.jpg,2237858942-299356.jpg,A287I4G1Q0K003_2022-09-18_09h12.09.018.csv
405,2.0,left,left,1.0,1.1254,0.0,45.0,45.0,45.0,1.0,2898633421-291973.jpg,2575118671-277663.jpg,A287I4G1Q0K003_2022-09-18_09h12.09.018.csv
406,3.0,right,left,0.0,2.7018,0.0,46.0,46.0,46.0,1.0,2994401319-148290.jpg,2452381505-199546.jpg,A287I4G1Q0K003_2022-09-18_09h12.09.018.csv
407,2.0,left,left,1.0,1.6821,0.0,47.0,47.0,47.0,1.0,2964223381-294447.jpg,2901941438-69836.jpg,A287I4G1Q0K003_2022-09-18_09h12.09.018.csv
408,2.0,right,left,0.0,0.3787,0.0,48.0,48.0,48.0,1.0,2868469411-287540.jpg,2901952513-70703.jpg,A287I4G1Q0K003_2022-09-18_09h12.09.018.csv
409,3.0,right,right,1.0,1.6823,0.0,49.0,49.0,49.0,1.0,2238480980-168129.jpg,2238560245-182099.jpg,A287I4G1Q0K003_2022-09-18_09h12.09.018.csv
410,2.0,right,right,1.0,1.2152,0.0,50.0,50.0,50.0,1.0,2238573447-333826.jpg,2901947423-70311.jpg,A287I4G1Q0K003_2022-09-18_09h12.09.018.csv
411,1.0,right,right,1.0,1.7564,0.0,51.0,51.0,51.0,1.0,2460547536-274179.jpg,2512875899-126682.jpg,A287I4G1Q0K003_2022-09-18_09h12.09.018.csv
412,2.0,left,left,1.0,1.2194,0.0,52.0,52.0,52.0,1.0,2449442529-124445.jpg,2986408373-73286.jpg,A287I4G1Q0K003_2022-09-18_09h12.09.018.csv
413,3.0,right,right,1.0,1.1016,0.0,53.0,53.0,53.0,1.0,2898632385-217139.jpg,2901939379-143480.jpg,A287I4G1Q0K003_2022-09-18_09h12.09.018.csv
414,1.0,right,right,1.0,1.4111,0.0,54.0,54.0,54.0,1.0,2864901420-212147.jpg,2864907432-362042.jpg,A287I4G1Q0K003_2022-09-18_09h12.09.018.csv
415,1.0,left,right,0.0,2.0569,0.0,55.0,55.0,55.0,1.0,2868475410-213219.jpg,2901946465-218350.jpg,A287I4G1Q0K003_2022-09-18_09h12.09.018.csv
416,3.0,left,left,1.0,0.7535,0.0,56.0,56.0,56.0,1.0,2460547508-51571.jpg,2901941438-69835.jpg,A287I4G1Q0K003_2022-09-18_09h12.09.018.csv
417,1.0,right,right,1.0,0.7532,0.0,57.0,57.0,57.0,1.0,2898626385-216899.jpg,2986451363-73599.jpg,A287I4G1Q0K003_2022-09-18_09h12.09.018.csv
418,3.0,left,right,0.0,1.2193,0.0,58.0,58.0,58.0,1.0,2883273443-68193.jpg,2898627427-366763.jpg,A287I4G1Q0K003_2022-09-18_09h12.09.018.csv
419,3.0,right,right,1.0,2.5178,0.0,59.0,59.0,59.0,1.0,2427873848-47312.jpg,2981241414-145842.jpg,A287I4G1Q0K003_2022-09-18_09h12.09.018.csv
420,1.0,left,right,0.0,3.078,0.0,0.0,0.0,0.0,1.0,2238580740-186218.jpg,2238550816-254000.jpg,A1YGV1J2URRQDG_2022-09-18_09h23.56.570.csv
421,3.0,left,left,1.0,1.577,0.0,1.0,1.0,1.0,1.0,2449442529-124445.jpg,2898632385-217137.jpg,A1YGV1J2URRQDG_2022-09-18_09h23.56.570.csv
422,2.0,left,left,1.0,2.18,0.0,2.0,2.0,2.0,1.0,2898618390-216538.jpg,2901939327-367670.jpg,A1YGV1J2URRQDG_2022-09-18_09h23.56.570.csv
423,2.0,left,left,1.0,1.559,0.0,3.0,3.0,3.0,1.0,2874302418-65979.jpg,2238480648-19714.jpg,A1YGV1J2URRQDG_2022-09-18_09h23.56.570.csv
424,2.0,left,left,1.0,6.065,0.0,4.0,4.0,4.0,1.0,2981231403-71642.jpg,2874305405-214397.jpg,A1YGV1J2URRQDG_2022-09-18_09h23.56.570.csv
425,2.0,left,left,1.0,2.282,0.0,5.0,5.0,5.0,1.0,2981241414-145842.jpg,2874301404-139813.jpg,A1YGV1J2URRQDG_2022-09-18_09h23.56.570.csv
426,1.0,left,left,1.0,1.925,0.0,6.0,6.0,6.0,1.0,2898635427-367120.jpg,2964221435-219434.jpg,A1YGV1J2URRQDG_2022-09-18_09h23.56.570.csv
427,1.0,right,left,0.0,2.141,0.0,7.0,7.0,7.0,1.0,2898626385-216899.jpg,2986451363-73599.jpg,A1YGV1J2URRQDG_2022-09-18_09h23.56.570.csv
428,1.0,left,left,1.0,1.736,0.0,8.0,8.0,8.0,1.0,2883273443-68193.jpg,2883254439-140940.jpg,A1YGV1J2URRQDG_2022-09-18_09h23.56.570.csv
429,2.0,left,right,0.0,2.375,0.0,9.0,9.0,9.0,1.0,2883256307-365057.jpg,2964210336-293945.jpg,A1YGV1J2URRQDG_2022-09-18_09h23.56.570.csv
430,3.0,left,right,0.0,2.585,0.0,10.0,10.0,10.0,1.0,2898634397-367080.jpg,2964217461-294238.jpg,A1YGV1J2URRQDG_2022-09-18_09h23.56.570.csv
431,2.0,right,right,1.0,2.512,0.0,11.0,11.0,11.0,1.0,2868487415-213924.jpg,2460547467-349422.jpg,A1YGV1J2URRQDG_2022-09-18_09h23.56.570.csv
432,2.0,right,left,0.0,3.649,0.0,12.0,12.0,12.0,1.0,2883268412-365899.jpg,2864910426-287204.jpg,A1YGV1J2URRQDG_2022-09-18_09h23.56.570.csv
433,3.0,right,right,1.0,2.238,0.0,13.0,13.0,13.0,1.0,2237858942-299356.jpg,2452380832-348593.jpg,A1YGV1J2URRQDG_2022-09-18_09h23.56.570.csv
434,3.0,left,left,1.0,1.958,0.0,14.0,14.0,14.0,1.0,2901939379-143480.jpg,2898632385-217139.jpg,A1YGV1J2URRQDG_2022-09-18_09h23.56.570.csv
435,2.0,left,left,1.0,2.917,0.0,15.0,15.0,15.0,1.0,2964218374-144967.jpg,2446759306-271734.jpg,A1YGV1J2URRQDG_2022-09-18_09h23.56.570.csv
436,1.0,right,right,1.0,1.496,0.0,16.0,16.0,16.0,1.0,2898618327-366317.jpg,2901941401-292798.jpg,A1YGV1J2URRQDG_2022-09-18_09h23.56.570.csv
437,3.0,right,right,1.0,3.144,0.0,17.0,17.0,17.0,1.0,2460547536-274178.jpg,2449442529-124446.jpg,A1YGV1J2URRQDG_2022-09-18_09h23.56.570.csv
438,3.0,right,right,1.0,2.181,0.0,18.0,18.0,18.0,1.0,2964207374-144577.jpg,2898617468-68274.jpg,A1YGV1J2URRQDG_2022-09-18_09h23.56.570.csv
439,1.0,left,right,0.0,1.566,0.0,19.0,19.0,19.0,1.0,2898635428-69104.jpg,2446759803-49250.jpg,A1YGV1J2URRQDG_2022-09-18_09h23.56.570.csv
440,1.0,right,right,1.0,1.89,0.0,20.0,20.0,20.0,1.0,2592380255-205553.jpg,2238560245-182099.jpg,A1YGV1J2URRQDG_2022-09-18_09h23.56.570.csv
441,2.0,left,left,1.0,2.679,0.0,21.0,21.0,21.0,1.0,2898633421-291973.jpg,2575118671-277663.jpg,A1YGV1J2URRQDG_2022-09-18_09h23.56.570.csv
442,3.0,left,left,1.0,1.697,0.0,22.0,22.0,22.0,1.0,2964213381-294060.jpg,2964213381-294061.jpg,A1YGV1J2URRQDG_2022-09-18_09h23.56.570.csv
443,2.0,right,right,1.0,1.667,0.0,23.0,23.0,23.0,1.0,2427874554-121863.jpg,2458347385-199723.jpg,A1YGV1J2URRQDG_2022-09-18_09h23.56.570.csv
444,2.0,left,left,1.0,2.496,0.0,24.0,24.0,24.0,1.0,2592380177-354626.jpg,2864901386-286797.jpg,A1YGV1J2URRQDG_2022-09-18_09h23.56.570.csv
445,1.0,left,left,1.0,1.869,0.0,25.0,25.0,25.0,1.0,2874303365-214262.jpg,2274829821-263682.jpg,A1YGV1J2URRQDG_2022-09-18_09h23.56.570.csv
446,2.0,right,right,1.0,1.597,0.0,26.0,26.0,26.0,1.0,2238573546-258454.jpg,2238480677-317399.jpg,A1YGV1J2URRQDG_2022-09-18_09h23.56.570.csv
447,1.0,right,left,0.0,1.348,0.0,27.0,27.0,27.0,1.0,2981240424-145794.jpg,2964222378-71332.jpg,A1YGV1J2URRQDG_2022-09-18_09h23.56.570.csv
448,3.0,right,right,1.0,2.117,0.0,28.0,28.0,28.0,1.0,2883266367-365742.jpg,2874299429-139694.jpg,A1YGV1J2URRQDG_2022-09-18_09h23.56.570.csv
449,3.0,right,right,1.0,3.234,0.0,29.0,29.0,29.0,1.0,2238436252-314037.jpg,2883268412-365898.jpg,A1YGV1J2URRQDG_2022-09-18_09h23.56.570.csv
450,1.0,left,left,1.0,1.547,0.0,30.0,30.0,30.0,1.0,2238428357-313623.jpg,2238499057-320266.jpg,A1YGV1J2URRQDG_2022-09-18_09h23.56.570.csv
451,1.0,left,left,1.0,1.601,0.0,31.0,31.0,31.0,1.0,2898618444-142233.jpg,2898631359-142721.jpg,A1YGV1J2URRQDG_2022-09-18_09h23.56.570.csv
452,3.0,right,right,1.0,1.743,0.0,32.0,32.0,32.0,1.0,2868474407-362885.jpg,2868475410-213219.jpg,A1YGV1J2URRQDG_2022-09-18_09h23.56.570.csv
453,1.0,right,right,1.0,1.782,0.0,33.0,33.0,33.0,1.0,2984615358-72439.jpg,2874307433-66280.jpg,A1YGV1J2URRQDG_2022-09-18_09h23.56.570.csv
454,3.0,left,left,1.0,1.339,0.0,34.0,34.0,34.0,1.0,2592379964-131054.jpg,2592380272-354673.jpg,A1YGV1J2URRQDG_2022-09-18_09h23.56.570.csv
455,1.0,left,left,1.0,1.917,0.0,35.0,35.0,35.0,1.0,2460547508-51571.jpg,2452380166-273109.jpg,A1YGV1J2URRQDG_2022-09-18_09h23.56.570.csv
456,1.0,left,right,0.0,3.306,0.0,36.0,36.0,36.0,1.0,2964223381-294447.jpg,2427874231-269884.jpg,A1YGV1J2URRQDG_2022-09-18_09h23.56.570.csv
457,2.0,right,left,0.0,2.644,0.0,37.0,37.0,37.0,1.0,2238571930-184143.jpg,2238572663-35822.jpg,A1YGV1J2URRQDG_2022-09-18_09h23.56.570.csv
458,2.0,right,right,1.0,2.123,0.0,38.0,38.0,38.0,1.0,2981236443-71859.jpg,2898624426-291546.jpg,A1YGV1J2URRQDG_2022-09-18_09h23.56.570.csv
459,3.0,left,left,1.0,2.926,0.0,39.0,39.0,39.0,1.0,2901947423-70311.jpg,2238577590-185467.jpg,A1YGV1J2URRQDG_2022-09-18_09h23.56.570.csv
460,3.0,left,left,1.0,2.532,0.0,40.0,40.0,40.0,1.0,2446759803-49249.jpg,2901951392-368654.jpg,A1YGV1J2URRQDG_2022-09-18_09h23.56.570.csv
461,1.0,left,left,1.0,2.344,0.0,41.0,41.0,41.0,1.0,2238425482-313537.jpg,2238471391-240918.jpg,A1YGV1J2URRQDG_2022-09-18_09h23.56.570.csv
462,2.0,left,left,1.0,2.764,0.0,42.0,42.0,42.0,1.0,2238481928-19949.jpg,2864900357-361688.jpg,A1YGV1J2URRQDG_2022-09-18_09h23.56.570.csv
463,3.0,right,right,1.0,1.915,0.0,43.0,43.0,43.0,1.0,2446760917-347439.jpg,2874299429-139695.jpg,A1YGV1J2URRQDG_2022-09-18_09h23.56.570.csv
464,2.0,right,right,1.0,1.685,0.0,44.0,44.0,44.0,1.0,2446758985-197610.jpg,2901939379-143479.jpg,A1YGV1J2URRQDG_2022-09-18_09h23.56.570.csv
465,3.0,right,right,1.0,3.107,0.0,45.0,45.0,45.0,1.0,2901947448-70314.jpg,2883268471-290842.jpg,A1YGV1J2URRQDG_2022-09-18_09h23.56.570.csv
466,1.0,right,right,1.0,1.374,0.0,46.0,46.0,46.0,1.0,2981240424-145795.jpg,2446758985-197609.jpg,A1YGV1J2URRQDG_2022-09-18_09h23.56.570.csv
467,2.0,right,right,1.0,1.793,0.0,47.0,47.0,47.0,1.0,2898632385-217138.jpg,2452381505-199546.jpg,A1YGV1J2URRQDG_2022-09-18_09h23.56.570.csv
468,3.0,left,right,0.0,2.399,0.0,48.0,48.0,48.0,1.0,2986451363-73598.jpg,2901942443-69925.jpg,A1YGV1J2URRQDG_2022-09-18_09h23.56.570.csv
469,1.0,right,right,1.0,2.187,0.0,49.0,49.0,49.0,1.0,2864907361-287062.jpg,2901952513-70703.jpg,A1YGV1J2URRQDG_2022-09-18_09h23.56.570.csv
470,2.0,right,right,1.0,1.833,0.0,50.0,50.0,50.0,1.0,2575120738-55528.jpg,2575120738-55529.jpg,A1YGV1J2URRQDG_2022-09-18_09h23.56.570.csv
471,3.0,left,right,0.0,2.282,0.0,51.0,51.0,51.0,1.0,2868474407-362883.jpg,2901948383-70363.jpg,A1YGV1J2URRQDG_2022-09-18_09h23.56.570.csv
472,3.0,right,right,1.0,2.836,0.0,52.0,52.0,52.0,1.0,2989726338-74002.jpg,2864907432-362042.jpg,A1YGV1J2URRQDG_2022-09-18_09h23.56.570.csv
473,3.0,right,right,1.0,1.222,0.0,53.0,53.0,53.0,1.0,2898619327-366362.jpg,2964216465-219242.jpg,A1YGV1J2URRQDG_2022-09-18_09h23.56.570.csv
474,1.0,left,left,1.0,2.246,0.0,54.0,54.0,54.0,1.0,2874301407-363895.jpg,2446761374-124213.jpg,A1YGV1J2URRQDG_2022-09-18_09h23.56.570.csv
475,1.0,left,left,1.0,1.938,0.0,55.0,55.0,55.0,1.0,2238481198-19822.jpg,2862691449-137104.jpg,A1YGV1J2URRQDG_2022-09-18_09h23.56.570.csv
476,3.0,left,left,1.0,1.609,0.0,56.0,56.0,56.0,1.0,2460547467-349421.jpg,2981235446-294901.jpg,A1YGV1J2URRQDG_2022-09-18_09h23.56.570.csv
477,1.0,left,left,1.0,2.078,0.0,57.0,57.0,57.0,1.0,2592380177-354629.jpg,2898633421-291974.jpg,A1YGV1J2URRQDG_2022-09-18_09h23.56.570.csv
478,2.0,left,left,1.0,1.948,0.0,58.0,58.0,58.0,1.0,2874302418-65978.jpg,2238481198-19823.jpg,A1YGV1J2URRQDG_2022-09-18_09h23.56.570.csv
479,2.0,left,right,0.0,3.829,0.0,59.0,59.0,59.0,1.0,2512875899-126682.jpg,2592380177-354628.jpg,A1YGV1J2URRQDG_2022-09-18_09h23.56.570.csv
480,1.0,right,right,1.0,2.5502,0.0,0.0,0.0,0.0,1.0,2964218374-144968.jpg,2964218374-144967.jpg,A1AW4WCRVLE1C6_2022-09-18_09h11.45.436.csv
481,3.0,right,right,1.0,2.8033,0.0,1.0,1.0,1.0,1.0,2238436252-314037.jpg,2883268412-365898.jpg,A1AW4WCRVLE1C6_2022-09-18_09h11.45.436.csv
482,1.0,right,left,0.0,2.7036,0.0,2.0,2.0,2.0,1.0,2883266388-67750.jpg,2874299429-139695.jpg,A1AW4WCRVLE1C6_2022-09-18_09h11.45.436.csv
483,2.0,left,left,1.0,1.5651,0.0,3.0,3.0,3.0,1.0,2592380177-354629.jpg,2579432534-130704.jpg,A1AW4WCRVLE1C6_2022-09-18_09h11.45.436.csv
484,3.0,left,left,1.0,2.9305,0.0,4.0,4.0,4.0,1.0,2898617468-68274.jpg,2964207374-144577.jpg,A1AW4WCRVLE1C6_2022-09-18_09h11.45.436.csv
485,3.0,right,left,0.0,2.8933,0.0,5.0,5.0,5.0,1.0,2898632385-217137.jpg,2449442529-124445.jpg,A1AW4WCRVLE1C6_2022-09-18_09h11.45.436.csv
486,2.0,right,right,1.0,2.41,0.0,6.0,6.0,6.0,1.0,2874301404-139813.jpg,2981241414-145842.jpg,A1AW4WCRVLE1C6_2022-09-18_09h11.45.436.csv
487,2.0,right,left,0.0,2.2558,0.0,7.0,7.0,7.0,1.0,2864909447-362144.jpg,2446758985-197609.jpg,A1AW4WCRVLE1C6_2022-09-18_09h11.45.436.csv
488,2.0,right,right,1.0,0.3834,0.0,8.0,8.0,8.0,1.0,2238480648-19714.jpg,2874302418-65979.jpg,A1AW4WCRVLE1C6_2022-09-18_09h11.45.436.csv
489,2.0,right,right,1.0,2.665,0.0,9.0,9.0,9.0,1.0,2446758985-197610.jpg,2901939379-143479.jpg,A1AW4WCRVLE1C6_2022-09-18_09h11.45.436.csv
490,1.0,left,left,1.0,2.3381,0.0,10.0,10.0,10.0,1.0,2964216465-219242.jpg,2238544191-252422.jpg,A1AW4WCRVLE1C6_2022-09-18_09h11.45.436.csv
491,2.0,left,left,1.0,6.0384,0.0,11.0,11.0,11.0,1.0,2874302418-65978.jpg,2238481198-19823.jpg,A1AW4WCRVLE1C6_2022-09-18_09h11.45.436.csv
492,3.0,left,right,0.0,1.5544,0.0,12.0,12.0,12.0,1.0,2898635428-69104.jpg,2898625336-291572.jpg,A1AW4WCRVLE1C6_2022-09-18_09h11.45.436.csv
493,3.0,left,left,1.0,3.9682,0.0,13.0,13.0,13.0,1.0,2238428357-313623.jpg,2986408339-146952.jpg,A1AW4WCRVLE1C6_2022-09-18_09h11.45.436.csv
494,2.0,left,left,1.0,1.8165,0.0,14.0,14.0,14.0,1.0,2460547467-349421.jpg,2452380166-273110.jpg,A1AW4WCRVLE1C6_2022-09-18_09h11.45.436.csv
495,1.0,left,right,0.0,2.9907,0.0,15.0,15.0,15.0,1.0,2898635427-367120.jpg,2964221435-219434.jpg,A1AW4WCRVLE1C6_2022-09-18_09h11.45.436.csv
496,1.0,right,left,0.0,2.9868,0.0,16.0,16.0,16.0,1.0,2862691449-137104.jpg,2238481198-19822.jpg,A1AW4WCRVLE1C6_2022-09-18_09h11.45.436.csv
497,2.0,left,right,0.0,3.5751,0.0,17.0,17.0,17.0,1.0,2901952513-70703.jpg,2868469411-287540.jpg,A1AW4WCRVLE1C6_2022-09-18_09h11.45.436.csv
498,2.0,left,left,1.0,1.7772,0.0,18.0,18.0,18.0,1.0,2238560245-182099.jpg,2874314526-289684.jpg,A1AW4WCRVLE1C6_2022-09-18_09h11.45.436.csv
499,1.0,right,right,1.0,1.7805,0.0,19.0,19.0,19.0,1.0,2237856148-989.jpg,2898618390-216538.jpg,A1AW4WCRVLE1C6_2022-09-18_09h11.45.436.csv
500,3.0,left,left,1.0,2.6108,0.0,20.0,20.0,20.0,1.0,2874303365-214262.jpg,2864911457-362260.jpg,A1AW4WCRVLE1C6_2022-09-18_09h11.45.436.csv
501,1.0,right,left,0.0,2.3377,0.0,21.0,21.0,21.0,1.0,2238550816-254000.jpg,2238580740-186218.jpg,A1AW4WCRVLE1C6_2022-09-18_09h11.45.436.csv
502,2.0,left,right,0.0,2.5852,0.0,22.0,22.0,22.0,1.0,2898618444-142233.jpg,2238555262-330312.jpg,A1AW4WCRVLE1C6_2022-09-18_09h11.45.436.csv
503,1.0,right,left,0.0,2.8346,0.0,23.0,23.0,23.0,1.0,2883264367-365620.jpg,2238481928-19949.jpg,A1AW4WCRVLE1C6_2022-09-18_09h11.45.436.csv
504,2.0,right,left,0.0,2.0283,0.0,24.0,24.0,24.0,1.0,2238479053-19457.jpg,2592379964-131054.jpg,A1AW4WCRVLE1C6_2022-09-18_09h11.45.436.csv
505,2.0,left,left,1.0,3.1454,0.0,25.0,25.0,25.0,1.0,2512875899-126682.jpg,2592380177-354628.jpg,A1AW4WCRVLE1C6_2022-09-18_09h11.45.436.csv
506,1.0,right,right,1.0,4.5761,0.0,26.0,26.0,26.0,1.0,2238481630-168218.jpg,2238480677-317399.jpg,A1AW4WCRVLE1C6_2022-09-18_09h11.45.436.csv
507,3.0,right,right,1.0,2.625,0.0,27.0,27.0,27.0,1.0,2238434559-90406.jpg,2986451363-73599.jpg,A1AW4WCRVLE1C6_2022-09-18_09h11.45.436.csv
508,1.0,right,left,0.0,2.4112,0.0,28.0,28.0,28.0,1.0,2984615358-72439.jpg,2874307433-66280.jpg,A1AW4WCRVLE1C6_2022-09-18_09h11.45.436.csv
509,2.0,right,left,0.0,1.5188,0.0,29.0,29.0,29.0,1.0,2898618440-216547.jpg,2446759803-49249.jpg,A1AW4WCRVLE1C6_2022-09-18_09h11.45.436.csv
510,1.0,left,left,1.0,2.4669,0.0,30.0,30.0,30.0,1.0,2898624426-291546.jpg,2964218432-369263.jpg,A1AW4WCRVLE1C6_2022-09-18_09h11.45.436.csv
511,1.0,left,left,1.0,2.5963,0.0,31.0,31.0,31.0,1.0,2458347385-199723.jpg,2238480434-93829.jpg,A1AW4WCRVLE1C6_2022-09-18_09h11.45.436.csv
512,2.0,right,right,1.0,1.6841,0.0,32.0,32.0,32.0,1.0,2238571930-184143.jpg,2238572663-35822.jpg,A1AW4WCRVLE1C6_2022-09-18_09h11.45.436.csv
513,2.0,right,left,0.0,1.8912,0.0,33.0,33.0,33.0,1.0,2986397322-371109.jpg,2874301407-363895.jpg,A1AW4WCRVLE1C6_2022-09-18_09h11.45.436.csv
514,3.0,right,left,0.0,2.1399,0.0,34.0,34.0,34.0,1.0,2898627427-366763.jpg,2883273443-68193.jpg,A1AW4WCRVLE1C6_2022-09-18_09h11.45.436.csv
515,1.0,right,right,1.0,3.5232,0.0,35.0,35.0,35.0,1.0,2901942428-69919.jpg,2901939379-143480.jpg,A1AW4WCRVLE1C6_2022-09-18_09h11.45.436.csv
516,2.0,right,right,1.0,2.4161,0.0,36.0,36.0,36.0,1.0,2864901386-286797.jpg,2592380177-354626.jpg,A1AW4WCRVLE1C6_2022-09-18_09h11.45.436.csv
517,1.0,left,left,1.0,1.7191,0.0,37.0,37.0,37.0,1.0,2964222378-71332.jpg,2981240424-145794.jpg,A1AW4WCRVLE1C6_2022-09-18_09h11.45.436.csv
518,1.0,right,right,1.0,2.9933,0.0,38.0,38.0,38.0,1.0,2237857458-1324.jpg,2986451363-73598.jpg,A1AW4WCRVLE1C6_2022-09-18_09h11.45.436.csv
519,1.0,left,left,1.0,1.8682,0.0,39.0,39.0,39.0,1.0,2868474407-362883.jpg,2460547732-349518.jpg,A1AW4WCRVLE1C6_2022-09-18_09h11.45.436.csv
520,2.0,left,right,0.0,2.0702,0.0,40.0,40.0,40.0,1.0,2460547508-51571.jpg,2981232437-369759.jpg,A1AW4WCRVLE1C6_2022-09-18_09h11.45.436.csv
521,3.0,right,left,0.0,1.8175,0.0,41.0,41.0,41.0,1.0,2898628438-68785.jpg,2964223381-294447.jpg,A1AW4WCRVLE1C6_2022-09-18_09h11.45.436.csv
522,1.0,right,right,1.0,1.7055,0.0,42.0,42.0,42.0,1.0,2611628310-206388.jpg,2883256307-365057.jpg,A1AW4WCRVLE1C6_2022-09-18_09h11.45.436.csv
523,1.0,left,left,1.0,1.7632,0.0,43.0,43.0,43.0,1.0,2901947423-70311.jpg,2860312398-62572.jpg,A1AW4WCRVLE1C6_2022-09-18_09h11.45.436.csv
524,1.0,right,right,1.0,1.8528,0.0,44.0,44.0,44.0,1.0,2512876023-52283.jpg,2898633421-291973.jpg,A1AW4WCRVLE1C6_2022-09-18_09h11.45.436.csv
525,2.0,right,right,1.0,1.6839,0.0,45.0,45.0,45.0,1.0,2460547536-274181.jpg,2449442529-124446.jpg,A1AW4WCRVLE1C6_2022-09-18_09h11.45.436.csv
526,3.0,left,left,1.0,1.4783,0.0,46.0,46.0,46.0,1.0,2575120738-55529.jpg,2238531493-28260.jpg,A1AW4WCRVLE1C6_2022-09-18_09h11.45.436.csv
527,2.0,right,left,0.0,1.2799,0.0,47.0,47.0,47.0,1.0,2883255450-215310.jpg,2883268471-290842.jpg,A1AW4WCRVLE1C6_2022-09-18_09h11.45.436.csv
528,3.0,left,left,1.0,1.9811,0.0,48.0,48.0,48.0,1.0,2238425482-313537.jpg,2898633480-217190.jpg,A1AW4WCRVLE1C6_2022-09-18_09h11.45.436.csv
529,3.0,right,left,0.0,2.0243,0.0,49.0,49.0,49.0,1.0,2964213381-294061.jpg,2964213381-294060.jpg,A1AW4WCRVLE1C6_2022-09-18_09h11.45.436.csv
530,3.0,left,right,0.0,2.7506,0.0,50.0,50.0,50.0,1.0,2874299429-139694.jpg,2883266367-365742.jpg,A1AW4WCRVLE1C6_2022-09-18_09h11.45.436.csv
531,3.0,right,left,0.0,1.2225,0.0,51.0,51.0,51.0,1.0,2901939433-69672.jpg,2864910426-287204.jpg,A1AW4WCRVLE1C6_2022-09-18_09h11.45.436.csv
532,3.0,right,right,1.0,3.081,0.0,52.0,52.0,52.0,1.0,2864909447-362146.jpg,2460547467-349422.jpg,A1AW4WCRVLE1C6_2022-09-18_09h11.45.436.csv
533,3.0,left,left,1.0,2.611,0.0,53.0,53.0,53.0,1.0,2452380832-348593.jpg,2237858942-299356.jpg,A1AW4WCRVLE1C6_2022-09-18_09h11.45.436.csv
534,3.0,right,left,0.0,1.9064,0.0,54.0,54.0,54.0,1.0,2994401319-148290.jpg,2452381505-199546.jpg,A1AW4WCRVLE1C6_2022-09-18_09h11.45.436.csv
535,3.0,left,right,0.0,2.2161,0.0,55.0,55.0,55.0,1.0,2898634397-367080.jpg,2964217461-294238.jpg,A1AW4WCRVLE1C6_2022-09-18_09h11.45.436.csv
536,1.0,left,left,1.0,1.507,0.0,56.0,56.0,56.0,1.0,2868475410-213219.jpg,2901946465-218350.jpg,A1AW4WCRVLE1C6_2022-09-18_09h11.45.436.csv
537,3.0,right,left,0.0,1.3786,0.0,57.0,57.0,57.0,1.0,2989726338-74002.jpg,2864907432-362042.jpg,A1AW4WCRVLE1C6_2022-09-18_09h11.45.436.csv
538,3.0,right,right,1.0,1.6376,0.0,58.0,58.0,58.0,1.0,2898631468-68931.jpg,2901941401-292798.jpg,A1AW4WCRVLE1C6_2022-09-18_09h11.45.436.csv
539,2.0,right,left,0.0,1.4746,0.0,59.0,59.0,59.0,1.0,2874305405-214397.jpg,2981231403-71642.jpg,A1AW4WCRVLE1C6_2022-09-18_09h11.45.436.csv
540,1.0,left,right,0.0,1.3597,0.0,0.0,0.0,0.0,1.0,2460547467-349422.jpg,2898618440-216545.jpg,A2Q0XPK1CBAKFA_2022-09-18_08h09.40.460.csv
541,2.0,right,left,0.0,0.0151,0.0,1.0,1.0,1.0,1.0,2898618440-216547.jpg,2446759803-49249.jpg,A2Q0XPK1CBAKFA_2022-09-18_08h09.40.460.csv
542,1.0,right,left,0.0,0.0148,0.0,2.0,2.0,2.0,1.0,2984626312-370849.jpg,2883268412-365898.jpg,A2Q0XPK1CBAKFA_2022-09-18_08h09.40.460.csv
543,2.0,right,left,0.0,0.0146,0.0,3.0,3.0,3.0,1.0,2460547508-51572.jpg,2883273443-68193.jpg,A2Q0XPK1CBAKFA_2022-09-18_08h09.40.460.csv
544,1.0,left,left,1.0,0.0145,0.0,4.0,4.0,4.0,1.0,2901941401-292798.jpg,2898618327-366317.jpg,A2Q0XPK1CBAKFA_2022-09-18_08h09.40.460.csv
545,2.0,right,left,0.0,0.0147,0.0,5.0,5.0,5.0,1.0,2592380177-354628.jpg,2512875899-126682.jpg,A2Q0XPK1CBAKFA_2022-09-18_08h09.40.460.csv
546,3.0,left,left,1.0,0.0142,0.0,6.0,6.0,6.0,1.0,2874301407-363895.jpg,2901947323-70275.jpg,A2Q0XPK1CBAKFA_2022-09-18_08h09.40.460.csv
547,2.0,left,left,1.0,0.0148,0.0,7.0,7.0,7.0,1.0,2452381505-199546.jpg,2898632385-217138.jpg,A2Q0XPK1CBAKFA_2022-09-18_08h09.40.460.csv
548,1.0,left,left,1.0,0.0147,0.0,8.0,8.0,8.0,1.0,2592380177-354629.jpg,2898633421-291974.jpg,A2Q0XPK1CBAKFA_2022-09-18_08h09.40.460.csv
549,2.0,right,left,0.0,0.0149,0.0,9.0,9.0,9.0,1.0,2460547536-274181.jpg,2449442529-124446.jpg,A2Q0XPK1CBAKFA_2022-09-18_08h09.40.460.csv
550,1.0,right,right,1.0,0.0147,0.0,10.0,10.0,10.0,1.0,2238584894-113161.jpg,2238572663-35822.jpg,A2Q0XPK1CBAKFA_2022-09-18_08h09.40.460.csv
551,2.0,right,right,1.0,0.0154,0.0,11.0,11.0,11.0,1.0,2901939327-367670.jpg,2898618390-216538.jpg,A2Q0XPK1CBAKFA_2022-09-18_08h09.40.460.csv
552,3.0,right,right,1.0,0.0146,0.0,12.0,12.0,12.0,1.0,2458347252-348911.jpg,2458347385-199723.jpg,A2Q0XPK1CBAKFA_2022-09-18_08h09.40.460.csv
553,1.0,right,right,1.0,0.0157,0.0,13.0,13.0,13.0,1.0,2238576792-334659.jpg,2592380177-354626.jpg,A2Q0XPK1CBAKFA_2022-09-18_08h09.40.460.csv
554,3.0,right,right,1.0,0.0147,0.0,14.0,14.0,14.0,1.0,2898624426-291544.jpg,2446758985-197609.jpg,A2Q0XPK1CBAKFA_2022-09-18_08h09.40.460.csv
555,1.0,right,right,1.0,0.0142,0.0,15.0,15.0,15.0,1.0,2860312398-62572.jpg,2901947423-70311.jpg,A2Q0XPK1CBAKFA_2022-09-18_08h09.40.460.csv
556,3.0,left,right,0.0,0.0156,0.0,16.0,16.0,16.0,1.0,2901939379-143479.jpg,2964216376-294181.jpg,A2Q0XPK1CBAKFA_2022-09-18_08h09.40.460.csv
557,1.0,left,right,0.0,0.0147,0.0,17.0,17.0,17.0,1.0,2898635428-69104.jpg,2446759803-49250.jpg,A2Q0XPK1CBAKFA_2022-09-18_08h09.40.460.csv
558,2.0,right,left,0.0,0.0152,0.0,18.0,18.0,18.0,1.0,2238436322-314047.jpg,2238425482-313537.jpg,A2Q0XPK1CBAKFA_2022-09-18_08h09.40.460.csv
559,1.0,right,left,0.0,0.015,0.0,19.0,19.0,19.0,1.0,2964218374-144968.jpg,2964218374-144967.jpg,A2Q0XPK1CBAKFA_2022-09-18_08h09.40.460.csv
560,1.0,right,right,1.0,0.0156,0.0,20.0,20.0,20.0,1.0,2460547732-349518.jpg,2868474407-362883.jpg,A2Q0XPK1CBAKFA_2022-09-18_08h09.40.460.csv
561,3.0,right,right,1.0,0.0145,0.0,21.0,21.0,21.0,1.0,2446760917-347439.jpg,2874299429-139695.jpg,A2Q0XPK1CBAKFA_2022-09-18_08h09.40.460.csv
562,2.0,left,right,0.0,0.0148,0.0,22.0,22.0,22.0,1.0,2986451363-73599.jpg,2860302315-210704.jpg,A2Q0XPK1CBAKFA_2022-09-18_08h09.40.460.csv
563,3.0,left,right,0.0,0.0152,0.0,23.0,23.0,23.0,1.0,2883268471-290842.jpg,2901947448-70314.jpg,A2Q0XPK1CBAKFA_2022-09-18_08h09.40.460.csv
564,3.0,left,right,0.0,0.0147,0.0,24.0,24.0,24.0,1.0,2901939379-143480.jpg,2898632385-217139.jpg,A2Q0XPK1CBAKFA_2022-09-18_08h09.40.460.csv
565,1.0,left,right,0.0,0.0151,0.0,25.0,25.0,25.0,1.0,2898634397-367080.jpg,2237944827-301472.jpg,A2Q0XPK1CBAKFA_2022-09-18_08h09.40.460.csv
566,2.0,right,right,1.0,0.0155,0.0,26.0,26.0,26.0,1.0,2238555262-330312.jpg,2898618444-142233.jpg,A2Q0XPK1CBAKFA_2022-09-18_08h09.40.460.csv
567,3.0,right,right,1.0,0.0149,0.0,27.0,27.0,27.0,1.0,2981240427-370099.jpg,2964222378-71332.jpg,A2Q0XPK1CBAKFA_2022-09-18_08h09.40.460.csv
568,1.0,right,right,1.0,0.0152,0.0,28.0,28.0,28.0,1.0,2237857458-1324.jpg,2986451363-73598.jpg,A2Q0XPK1CBAKFA_2022-09-18_08h09.40.460.csv
569,1.0,left,right,0.0,0.0149,0.0,29.0,29.0,29.0,1.0,2874299429-139694.jpg,2986447306-296584.jpg,A2Q0XPK1CBAKFA_2022-09-18_08h09.40.460.csv
570,2.0,left,right,0.0,0.0144,0.0,30.0,30.0,30.0,1.0,2874302418-65978.jpg,2238481198-19823.jpg,A2Q0XPK1CBAKFA_2022-09-18_08h09.40.460.csv
571,2.0,right,right,1.0,0.0143,0.0,31.0,31.0,31.0,1.0,2981236443-71859.jpg,2898624426-291546.jpg,A2Q0XPK1CBAKFA_2022-09-18_08h09.40.460.csv
572,3.0,right,right,1.0,0.0149,0.0,32.0,32.0,32.0,1.0,2868474407-362885.jpg,2868475410-213219.jpg,A2Q0XPK1CBAKFA_2022-09-18_08h09.40.460.csv
573,3.0,right,right,1.0,0.0144,0.0,33.0,33.0,33.0,1.0,2238578544-111698.jpg,2874302418-65979.jpg,A2Q0XPK1CBAKFA_2022-09-18_08h09.40.460.csv
574,3.0,left,right,0.0,0.0151,0.0,34.0,34.0,34.0,1.0,2874307433-66280.jpg,2981231422-369714.jpg,A2Q0XPK1CBAKFA_2022-09-18_08h09.40.460.csv
575,2.0,right,right,1.0,0.0156,0.0,35.0,35.0,35.0,1.0,2238481813-19930.jpg,2452380832-348593.jpg,A2Q0XPK1CBAKFA_2022-09-18_08h09.40.460.csv
576,1.0,right,right,1.0,0.0153,0.0,36.0,36.0,36.0,1.0,2592380255-205553.jpg,2238560245-182099.jpg,A2Q0XPK1CBAKFA_2022-09-18_08h09.40.460.csv
577,2.0,right,right,1.0,0.0146,0.0,37.0,37.0,37.0,1.0,2238521193-26285.jpg,2238580740-186218.jpg,A2Q0XPK1CBAKFA_2022-09-18_08h09.40.460.csv
578,3.0,right,right,1.0,0.0146,0.0,38.0,38.0,38.0,1.0,2427873848-47312.jpg,2981241414-145842.jpg,A2Q0XPK1CBAKFA_2022-09-18_08h09.40.460.csv
579,1.0,left,right,0.0,0.0144,0.0,39.0,39.0,39.0,1.0,2592379964-131054.jpg,2575963989-130576.jpg,A2Q0XPK1CBAKFA_2022-09-18_08h09.40.460.csv
580,1.0,right,right,1.0,0.0148,0.0,40.0,40.0,40.0,1.0,2611628310-206388.jpg,2883256307-365057.jpg,A2Q0XPK1CBAKFA_2022-09-18_08h09.40.460.csv
581,3.0,right,right,1.0,0.015,0.0,41.0,41.0,41.0,1.0,2989726338-74002.jpg,2864907432-362042.jpg,A2Q0XPK1CBAKFA_2022-09-18_08h09.40.460.csv
582,1.0,right,right,1.0,0.0186,0.0,42.0,42.0,42.0,1.0,2427874231-269884.jpg,2964223381-294447.jpg,A2Q0XPK1CBAKFA_2022-09-18_08h09.40.460.csv
583,3.0,left,left,1.0,0.0152,0.0,43.0,43.0,43.0,1.0,2238480677-317399.jpg,2238480278-19661.jpg,A2Q0XPK1CBAKFA_2022-09-18_08h09.40.460.csv
584,2.0,right,left,0.0,0.0153,0.0,44.0,44.0,44.0,1.0,2901946436-293242.jpg,2238481198-19822.jpg,A2Q0XPK1CBAKFA_2022-09-18_08h09.40.460.csv
585,2.0,left,right,0.0,0.0143,0.0,45.0,45.0,45.0,1.0,2460547467-349421.jpg,2452380166-273110.jpg,A2Q0XPK1CBAKFA_2022-09-18_08h09.40.460.csv
586,1.0,left,right,0.0,0.0146,0.0,46.0,46.0,46.0,1.0,2575120738-55529.jpg,2864906345-212360.jpg,A2Q0XPK1CBAKFA_2022-09-18_08h09.40.460.csv
587,2.0,right,right,1.0,0.015,0.0,47.0,47.0,47.0,1.0,2986408373-73286.jpg,2449442529-124445.jpg,A2Q0XPK1CBAKFA_2022-09-18_08h09.40.460.csv
588,2.0,left,right,0.0,0.0146,0.0,48.0,48.0,48.0,1.0,2901952513-70703.jpg,2868469411-287540.jpg,A2Q0XPK1CBAKFA_2022-09-18_08h09.40.460.csv
589,3.0,left,right,0.0,0.015,0.0,49.0,49.0,49.0,1.0,2898617468-68274.jpg,2964207374-144577.jpg,A2Q0XPK1CBAKFA_2022-09-18_08h09.40.460.csv
590,2.0,right,right,1.0,0.0147,0.0,50.0,50.0,50.0,1.0,2981232437-369759.jpg,2460547508-51571.jpg,A2Q0XPK1CBAKFA_2022-09-18_08h09.40.460.csv
591,2.0,right,right,1.0,0.0144,0.0,51.0,51.0,51.0,1.0,2238563377-332054.jpg,2874303365-214262.jpg,A2Q0XPK1CBAKFA_2022-09-18_08h09.40.460.csv
592,3.0,right,right,1.0,0.0174,0.0,52.0,52.0,52.0,1.0,2981241419-145844.jpg,2238481928-19949.jpg,A2Q0XPK1CBAKFA_2022-09-18_08h09.40.460.csv
593,2.0,left,right,0.0,0.0156,0.0,53.0,53.0,53.0,1.0,2898635427-367120.jpg,2868479517-363220.jpg,A2Q0XPK1CBAKFA_2022-09-18_08h09.40.460.csv
594,1.0,right,right,1.0,0.0148,0.0,54.0,54.0,54.0,1.0,2512876023-52283.jpg,2898633421-291973.jpg,A2Q0XPK1CBAKFA_2022-09-18_08h09.40.460.csv
595,3.0,left,right,0.0,0.015,0.0,55.0,55.0,55.0,1.0,2238428357-313623.jpg,2986408339-146952.jpg,A2Q0XPK1CBAKFA_2022-09-18_08h09.40.460.csv
596,3.0,right,right,1.0,0.015,0.0,56.0,56.0,56.0,1.0,2427873763-47290.jpg,2981231403-71642.jpg,A2Q0XPK1CBAKFA_2022-09-18_08h09.40.460.csv
597,3.0,left,right,0.0,0.0147,0.0,57.0,57.0,57.0,1.0,2964213381-294060.jpg,2964213381-294061.jpg,A2Q0XPK1CBAKFA_2022-09-18_08h09.40.460.csv
598,1.0,right,right,1.0,0.0149,0.0,58.0,58.0,58.0,1.0,2238544191-252422.jpg,2964216465-219242.jpg,A2Q0XPK1CBAKFA_2022-09-18_08h09.40.460.csv
599,2.0,left,left,1.0,1.68,0.0,0.0,0.0,0.0,1.0,2874302418-65978.jpg,2238481198-19823.jpg,A1NLJ1L4VCQYV2_2022-09-18_08h31.35.191.csv
600,1.0,left,left,1.0,2.128,0.0,1.0,1.0,1.0,1.0,2238481928-19949.jpg,2883264367-365620.jpg,A1NLJ1L4VCQYV2_2022-09-18_08h31.35.191.csv
601,1.0,right,right,1.0,1.819,0.0,2.0,2.0,2.0,1.0,2883266388-67750.jpg,2874299429-139695.jpg,A1NLJ1L4VCQYV2_2022-09-18_08h31.35.191.csv
602,1.0,left,left,1.0,2.294,0.0,3.0,3.0,3.0,1.0,2458347385-199723.jpg,2238480434-93829.jpg,A1NLJ1L4VCQYV2_2022-09-18_08h31.35.191.csv
603,2.0,left,left,1.0,1.857,0.0,4.0,4.0,4.0,1.0,2238481198-19822.jpg,2901946436-293242.jpg,A1NLJ1L4VCQYV2_2022-09-18_08h31.35.191.csv
604,3.0,right,right,1.0,2.234,0.0,5.0,5.0,5.0,1.0,2901948383-70363.jpg,2868474407-362883.jpg,A1NLJ1L4VCQYV2_2022-09-18_08h31.35.191.csv
605,2.0,left,left,1.0,2.298,0.0,6.0,6.0,6.0,1.0,2901939379-143480.jpg,2981229442-369621.jpg,A1NLJ1L4VCQYV2_2022-09-18_08h31.35.191.csv
606,2.0,left,left,1.0,2.802,0.0,7.0,7.0,7.0,1.0,2981231403-71642.jpg,2874305405-214397.jpg,A1NLJ1L4VCQYV2_2022-09-18_08h31.35.191.csv
607,1.0,left,left,1.0,1.817,0.0,8.0,8.0,8.0,1.0,2964216465-219242.jpg,2238544191-252422.jpg,A1NLJ1L4VCQYV2_2022-09-18_08h31.35.191.csv
608,3.0,left,left,1.0,1.801,0.0,9.0,9.0,9.0,1.0,2901939379-143479.jpg,2964216376-294181.jpg,A1NLJ1L4VCQYV2_2022-09-18_08h31.35.191.csv
609,1.0,left,left,1.0,1.661,0.0,10.0,10.0,10.0,1.0,2898618390-216538.jpg,2237856148-989.jpg,A1NLJ1L4VCQYV2_2022-09-18_08h31.35.191.csv
610,1.0,right,right,1.0,1.992,0.0,11.0,11.0,11.0,1.0,2864902304-137862.jpg,2864910426-287204.jpg,A1NLJ1L4VCQYV2_2022-09-18_08h31.35.191.csv
611,2.0,right,right,1.0,1.766,0.0,12.0,12.0,12.0,1.0,2238480803-19739.jpg,2868475410-213219.jpg,A1NLJ1L4VCQYV2_2022-09-18_08h31.35.191.csv
612,1.0,left,right,0.0,2.511,0.0,13.0,13.0,13.0,1.0,2964213381-294060.jpg,2981244394-145974.jpg,A1NLJ1L4VCQYV2_2022-09-18_08h31.35.191.csv
613,3.0,right,right,1.0,2.073,0.0,14.0,14.0,14.0,1.0,2898625336-291572.jpg,2898635428-69104.jpg,A1NLJ1L4VCQYV2_2022-09-18_08h31.35.191.csv
614,3.0,right,left,0.0,1.944,0.0,15.0,15.0,15.0,1.0,2898633480-217190.jpg,2238425482-313537.jpg,A1NLJ1L4VCQYV2_2022-09-18_08h31.35.191.csv
615,1.0,left,left,1.0,2.125,0.0,16.0,16.0,16.0,1.0,2874299429-139694.jpg,2986447306-296584.jpg,A1NLJ1L4VCQYV2_2022-09-18_08h31.35.191.csv
616,1.0,right,right,1.0,1.95,0.0,17.0,17.0,17.0,1.0,2898618440-216545.jpg,2460547467-349422.jpg,A1NLJ1L4VCQYV2_2022-09-18_08h31.35.191.csv
617,1.0,right,right,1.0,1.969,0.0,18.0,18.0,18.0,1.0,2898631394-142727.jpg,2460547467-349421.jpg,A1NLJ1L4VCQYV2_2022-09-18_08h31.35.191.csv
618,3.0,left,left,1.0,2.66,0.0,19.0,19.0,19.0,1.0,2898618444-142233.jpg,2898618444-142232.jpg,A1NLJ1L4VCQYV2_2022-09-18_08h31.35.191.csv
619,1.0,left,left,1.0,2.976,0.0,20.0,20.0,20.0,1.0,2446758985-197609.jpg,2981240424-145795.jpg,A1NLJ1L4VCQYV2_2022-09-18_08h31.35.191.csv
620,2.0,right,right,1.0,1.935,0.0,21.0,21.0,21.0,1.0,2898618440-216547.jpg,2446759803-49249.jpg,A1NLJ1L4VCQYV2_2022-09-18_08h31.35.191.csv
621,1.0,left,left,1.0,1.894,0.0,22.0,22.0,22.0,1.0,2901952513-70703.jpg,2864907361-287062.jpg,A1NLJ1L4VCQYV2_2022-09-18_08h31.35.191.csv
622,3.0,left,left,1.0,1.897,0.0,23.0,23.0,23.0,1.0,2901947423-70311.jpg,2238577590-185467.jpg,A1NLJ1L4VCQYV2_2022-09-18_08h31.35.191.csv
623,1.0,right,left,0.0,2.483,0.0,24.0,24.0,24.0,1.0,2237944827-301472.jpg,2898634397-367080.jpg,A1NLJ1L4VCQYV2_2022-09-18_08h31.35.191.csv
624,1.0,right,right,1.0,3.227,0.0,25.0,25.0,25.0,1.0,2898633421-291974.jpg,2592380177-354629.jpg,A1NLJ1L4VCQYV2_2022-09-18_08h31.35.191.csv
625,3.0,left,left,1.0,2.188,0.0,26.0,26.0,26.0,1.0,2874303365-214262.jpg,2864911457-362260.jpg,A1NLJ1L4VCQYV2_2022-09-18_08h31.35.191.csv
626,3.0,left,left,1.0,3.601,0.0,27.0,27.0,27.0,1.0,2874302418-65979.jpg,2238578544-111698.jpg,A1NLJ1L4VCQYV2_2022-09-18_08h31.35.191.csv
627,3.0,right,left,0.0,1.884,0.0,28.0,28.0,28.0,1.0,2981231446-294732.jpg,2964218374-144967.jpg,A1NLJ1L4VCQYV2_2022-09-18_08h31.35.191.csv
628,2.0,right,left,0.0,2.302,0.0,29.0,29.0,29.0,1.0,2460547508-51572.jpg,2883273443-68193.jpg,A1NLJ1L4VCQYV2_2022-09-18_08h31.35.191.csv
629,2.0,left,left,1.0,2.367,0.0,30.0,30.0,30.0,1.0,2460547508-51571.jpg,2981232437-369759.jpg,A1NLJ1L4VCQYV2_2022-09-18_08h31.35.191.csv
630,3.0,right,right,1.0,2.394,0.0,31.0,31.0,31.0,1.0,2981231422-369714.jpg,2874307433-66280.jpg,A1NLJ1L4VCQYV2_2022-09-18_08h31.35.191.csv
631,2.0,right,right,1.0,4.21,0.0,32.0,32.0,32.0,1.0,2874314526-289684.jpg,2238560245-182099.jpg,A1NLJ1L4VCQYV2_2022-09-18_08h31.35.191.csv
632,2.0,right,left,0.0,2.153,0.0,33.0,33.0,33.0,1.0,2981243412-370222.jpg,2901941401-292798.jpg,A1NLJ1L4VCQYV2_2022-09-18_08h31.35.191.csv
633,3.0,left,left,1.0,1.266,0.0,34.0,34.0,34.0,1.0,2452380832-348593.jpg,2237858942-299356.jpg,A1NLJ1L4VCQYV2_2022-09-18_08h31.35.191.csv
634,2.0,left,left,1.0,2.588,0.0,35.0,35.0,35.0,1.0,2898624426-291546.jpg,2981236443-71859.jpg,A1NLJ1L4VCQYV2_2022-09-18_08h31.35.191.csv
635,2.0,left,left,1.0,3.955,0.0,36.0,36.0,36.0,1.0,2238572663-35822.jpg,2238571930-184143.jpg,A1NLJ1L4VCQYV2_2022-09-18_08h31.35.191.csv
636,3.0,right,left,0.0,2.718,0.0,37.0,37.0,37.0,1.0,2898621427-366486.jpg,2898635427-367120.jpg,A1NLJ1L4VCQYV2_2022-09-18_08h31.35.191.csv
637,3.0,left,left,1.0,1.932,0.0,38.0,38.0,38.0,1.0,2986451363-73599.jpg,2238434559-90406.jpg,A1NLJ1L4VCQYV2_2022-09-18_08h31.35.191.csv
638,3.0,right,right,1.0,2.793,0.0,39.0,39.0,39.0,1.0,2986447332-371497.jpg,2512875899-126682.jpg,A1NLJ1L4VCQYV2_2022-09-18_08h31.35.191.csv
639,2.0,right,right,1.0,2.477,0.0,40.0,40.0,40.0,1.0,2238479053-19457.jpg,2592379964-131054.jpg,A1NLJ1L4VCQYV2_2022-09-18_08h31.35.191.csv
640,3.0,right,right,1.0,1.261,0.0,41.0,41.0,41.0,1.0,2238480278-19661.jpg,2238480677-317399.jpg,A1NLJ1L4VCQYV2_2022-09-18_08h31.35.191.csv
641,2.0,left,left,1.0,1.516,0.0,42.0,42.0,42.0,1.0,2449442529-124445.jpg,2986408373-73286.jpg,A1NLJ1L4VCQYV2_2022-09-18_08h31.35.191.csv
642,3.0,left,right,0.0,3.417,0.0,43.0,43.0,43.0,1.0,2452381505-199546.jpg,2994401319-148290.jpg,A1NLJ1L4VCQYV2_2022-09-18_08h31.35.191.csv
643,2.0,left,left,1.0,3.825,0.0,44.0,44.0,44.0,1.0,2592380177-354626.jpg,2864901386-286797.jpg,A1NLJ1L4VCQYV2_2022-09-18_08h31.35.191.csv
644,1.0,left,left,1.0,3.174,0.0,45.0,45.0,45.0,1.0,2964223381-294447.jpg,2427874231-269884.jpg,A1NLJ1L4VCQYV2_2022-09-18_08h31.35.191.csv
645,1.0,right,right,1.0,1.572,0.0,46.0,46.0,46.0,1.0,2901946439-144040.jpg,2898617468-68274.jpg,A1NLJ1L4VCQYV2_2022-09-18_08h31.35.191.csv
646,2.0,left,left,1.0,2.066,0.0,47.0,47.0,47.0,1.0,2883268471-290842.jpg,2883255450-215310.jpg,A1NLJ1L4VCQYV2_2022-09-18_08h31.35.191.csv
647,3.0,left,left,1.0,3.15,0.0,48.0,48.0,48.0,1.0,2964222378-71332.jpg,2981240427-370099.jpg,A1NLJ1L4VCQYV2_2022-09-18_08h31.35.191.csv
648,2.0,left,left,1.0,2.219,0.0,49.0,49.0,49.0,1.0,2898633421-291973.jpg,2575118671-277663.jpg,A1NLJ1L4VCQYV2_2022-09-18_08h31.35.191.csv
649,3.0,left,right,0.0,2.787,0.0,50.0,50.0,50.0,1.0,2864907432-362042.jpg,2989726338-74002.jpg,A1NLJ1L4VCQYV2_2022-09-18_08h31.35.191.csv
650,1.0,left,left,1.0,2.102,0.0,51.0,51.0,51.0,1.0,2981241414-145842.jpg,2238516618-25604.jpg,A1NLJ1L4VCQYV2_2022-09-18_08h31.35.191.csv
651,2.0,left,left,1.0,2.768,0.0,52.0,52.0,52.0,1.0,2883268412-365898.jpg,2984615361-295510.jpg,A1NLJ1L4VCQYV2_2022-09-18_08h31.35.191.csv
652,2.0,right,left,0.0,2.715,0.0,53.0,53.0,53.0,1.0,2964210336-293945.jpg,2883256307-365057.jpg,A1NLJ1L4VCQYV2_2022-09-18_08h31.35.191.csv
653,3.0,left,left,1.0,2.056,0.0,54.0,54.0,54.0,1.0,2449442529-124446.jpg,2460547536-274178.jpg,A1NLJ1L4VCQYV2_2022-09-18_08h31.35.191.csv
654,2.0,right,right,1.0,1.889,0.0,55.0,55.0,55.0,1.0,2575120738-55528.jpg,2575120738-55529.jpg,A1NLJ1L4VCQYV2_2022-09-18_08h31.35.191.csv
655,3.0,right,right,1.0,5.072,0.0,56.0,56.0,56.0,1.0,2986408339-146952.jpg,2238428357-313623.jpg,A1NLJ1L4VCQYV2_2022-09-18_08h31.35.191.csv
656,1.0,right,left,0.0,3.703,0.0,57.0,57.0,57.0,1.0,2237857458-1324.jpg,2986451363-73598.jpg,A1NLJ1L4VCQYV2_2022-09-18_08h31.35.191.csv
657,1.0,left,left,1.0,2.049,0.0,58.0,58.0,58.0,1.0,2874301407-363895.jpg,2446761374-124213.jpg,A1NLJ1L4VCQYV2_2022-09-18_08h31.35.191.csv
658,1.0,right,right,1.0,2.366,0.0,59.0,59.0,59.0,1.0,2238550816-254000.jpg,2238580740-186218.jpg,A1NLJ1L4VCQYV2_2022-09-18_08h31.35.191.csv
659,1.0,right,left,0.0,2.644,0.0,0.0,0.0,0.0,1.0,2901938432-367627.jpg,2452381505-199546.jpg,A1PX4CR15QC57J_2022-09-18_14h21.23.163.csv
660,2.0,right,right,1.0,1.937,0.0,1.0,1.0,1.0,1.0,2981243412-370222.jpg,2901941401-292798.jpg,A1PX4CR15QC57J_2022-09-18_14h21.23.163.csv
661,1.0,right,left,0.0,1.954,0.0,2.0,2.0,2.0,1.0,2898631394-142727.jpg,2460547467-349421.jpg,A1PX4CR15QC57J_2022-09-18_14h21.23.163.csv
662,1.0,left,right,0.0,3.238,0.0,3.0,3.0,3.0,1.0,2238481928-19949.jpg,2883264367-365620.jpg,A1PX4CR15QC57J_2022-09-18_14h21.23.163.csv
663,2.0,left,right,0.0,2.418,0.0,4.0,4.0,4.0,1.0,2874303365-214262.jpg,2238563377-332054.jpg,A1PX4CR15QC57J_2022-09-18_14h21.23.163.csv
664,2.0,right,left,0.0,2.743,0.0,5.0,5.0,5.0,1.0,2981246400-220365.jpg,2874307433-66280.jpg,A1PX4CR15QC57J_2022-09-18_14h21.23.163.csv
665,1.0,right,right,1.0,1.776,0.0,6.0,6.0,6.0,1.0,2237944827-301472.jpg,2898634397-367080.jpg,A1PX4CR15QC57J_2022-09-18_14h21.23.163.csv
666,3.0,right,right,1.0,1.586,0.0,7.0,7.0,7.0,1.0,2898624426-291544.jpg,2446758985-197609.jpg,A1PX4CR15QC57J_2022-09-18_14h21.23.163.csv
667,1.0,right,left,0.0,2.298,0.0,8.0,8.0,8.0,1.0,2238471391-240918.jpg,2238425482-313537.jpg,A1PX4CR15QC57J_2022-09-18_14h21.23.163.csv
668,1.0,left,left,1.0,3.0,0.0,9.0,9.0,9.0,1.0,2901952513-70703.jpg,2864907361-287062.jpg,A1PX4CR15QC57J_2022-09-18_14h21.23.163.csv
669,1.0,right,right,1.0,12.066,0.0,10.0,10.0,10.0,1.0,2237857458-1325.jpg,2874302418-65979.jpg,A1PX4CR15QC57J_2022-09-18_14h21.23.163.csv
670,1.0,left,left,1.0,2.667,0.0,11.0,11.0,11.0,1.0,2986451363-73599.jpg,2898626385-216899.jpg,A1PX4CR15QC57J_2022-09-18_14h21.23.163.csv
671,3.0,left,left,1.0,2.434,0.0,12.0,12.0,12.0,1.0,2898624426-291546.jpg,2981235446-294900.jpg,A1PX4CR15QC57J_2022-09-18_14h21.23.163.csv
672,3.0,right,left,0.0,2.205,0.0,13.0,13.0,13.0,1.0,2868474407-362885.jpg,2868475410-213219.jpg,A1PX4CR15QC57J_2022-09-18_14h21.23.163.csv
673,1.0,right,left,0.0,1.81,0.0,14.0,14.0,14.0,1.0,2981240424-145794.jpg,2964222378-71332.jpg,A1PX4CR15QC57J_2022-09-18_14h21.23.163.csv
674,3.0,right,right,1.0,2.04,0.0,15.0,15.0,15.0,1.0,2575120609-129862.jpg,2898618390-216538.jpg,A1PX4CR15QC57J_2022-09-18_14h21.23.163.csv
675,1.0,left,left,1.0,2.297,0.0,16.0,16.0,16.0,1.0,2901939379-143480.jpg,2901942428-69919.jpg,A1PX4CR15QC57J_2022-09-18_14h21.23.163.csv
676,3.0,left,left,1.0,1.778,0.0,17.0,17.0,17.0,1.0,2446759803-49249.jpg,2901951392-368654.jpg,A1PX4CR15QC57J_2022-09-18_14h21.23.163.csv
677,2.0,left,left,1.0,4.096,0.0,18.0,18.0,18.0,1.0,2874299429-139694.jpg,2981244403-72215.jpg,A1PX4CR15QC57J_2022-09-18_14h21.23.163.csv
678,2.0,left,left,1.0,2.382,0.0,19.0,19.0,19.0,1.0,2981241414-145842.jpg,2874301404-139813.jpg,A1PX4CR15QC57J_2022-09-18_14h21.23.163.csv
679,3.0,left,right,0.0,3.686,0.0,20.0,20.0,20.0,1.0,2238481198-19822.jpg,2238480803-19737.jpg,A1PX4CR15QC57J_2022-09-18_14h21.23.163.csv
680,3.0,right,left,0.0,2.435,0.0,21.0,21.0,21.0,1.0,2238577590-185467.jpg,2901947423-70311.jpg,A1PX4CR15QC57J_2022-09-18_14h21.23.163.csv
681,3.0,left,left,1.0,2.024,0.0,22.0,22.0,22.0,1.0,2964218374-144967.jpg,2981231446-294732.jpg,A1PX4CR15QC57J_2022-09-18_14h21.23.163.csv
682,1.0,right,right,1.0,6.577,0.0,23.0,23.0,23.0,1.0,2512876023-52283.jpg,2898633421-291973.jpg,A1PX4CR15QC57J_2022-09-18_14h21.23.163.csv
683,3.0,left,left,1.0,3.527,0.0,24.0,24.0,24.0,1.0,2238560245-182099.jpg,2238480980-168129.jpg,A1PX4CR15QC57J_2022-09-18_14h21.23.163.csv
684,3.0,right,left,0.0,2.664,0.0,25.0,25.0,25.0,1.0,2901942443-69925.jpg,2986451363-73598.jpg,A1PX4CR15QC57J_2022-09-18_14h21.23.163.csv
685,2.0,left,left,1.0,4.672,0.0,26.0,26.0,26.0,1.0,2864907432-362042.jpg,2901947423-70310.jpg,A1PX4CR15QC57J_2022-09-18_14h21.23.163.csv
686,3.0,left,left,1.0,2.005,0.0,27.0,27.0,27.0,1.0,2238428357-313623.jpg,2986408339-146952.jpg,A1PX4CR15QC57J_2022-09-18_14h21.23.163.csv
687,2.0,left,left,1.0,4.966,0.0,28.0,28.0,28.0,1.0,2512875899-126682.jpg,2592380177-354628.jpg,A1PX4CR15QC57J_2022-09-18_14h21.23.163.csv
688,3.0,left,left,1.0,4.077,0.0,29.0,29.0,29.0,1.0,2898635428-69104.jpg,2898625336-291572.jpg,A1PX4CR15QC57J_2022-09-18_14h21.23.163.csv
689,2.0,right,right,1.0,2.135,0.0,30.0,30.0,30.0,1.0,2874305405-214397.jpg,2981231403-71642.jpg,A1PX4CR15QC57J_2022-09-18_14h21.23.163.csv
690,3.0,right,left,0.0,1.766,0.0,31.0,31.0,31.0,1.0,2898632385-217137.jpg,2449442529-124445.jpg,A1PX4CR15QC57J_2022-09-18_14h21.23.163.csv
691,2.0,right,left,0.0,1.825,0.0,32.0,32.0,32.0,1.0,2964210336-293945.jpg,2883256307-365057.jpg,A1PX4CR15QC57J_2022-09-18_14h21.23.163.csv
692,1.0,left,left,1.0,1.769,0.0,33.0,33.0,33.0,1.0,2460547508-51571.jpg,2452380166-273109.jpg,A1PX4CR15QC57J_2022-09-18_14h21.23.163.csv
693,2.0,right,left,0.0,4.338,0.0,34.0,34.0,34.0,1.0,2986397322-371109.jpg,2874301407-363895.jpg,A1PX4CR15QC57J_2022-09-18_14h21.23.163.csv
694,3.0,right,left,0.0,1.976,0.0,35.0,35.0,35.0,1.0,2898628438-68785.jpg,2964223381-294447.jpg,A1PX4CR15QC57J_2022-09-18_14h21.23.163.csv
695,1.0,left,right,0.0,3.901,0.0,36.0,36.0,36.0,1.0,2898617468-68274.jpg,2901946439-144040.jpg,A1PX4CR15QC57J_2022-09-18_14h21.23.163.csv
696,2.0,left,left,1.0,2.143,0.0,37.0,37.0,37.0,1.0,2458347385-199723.jpg,2427874554-121863.jpg,A1PX4CR15QC57J_2022-09-18_14h21.23.163.csv
697,1.0,left,left,1.0,2.349,0.0,38.0,38.0,38.0,1.0,2874302418-65978.jpg,2964224310-219528.jpg,A1PX4CR15QC57J_2022-09-18_14h21.23.163.csv
698,1.0,right,right,1.0,1.461,0.0,39.0,39.0,39.0,1.0,2238328478-11678.jpg,2452380832-348593.jpg,A1PX4CR15QC57J_2022-09-18_14h21.23.163.csv
699,1.0,right,left,0.0,1.883,0.0,40.0,40.0,40.0,1.0,2981244394-145974.jpg,2964213381-294060.jpg,A1PX4CR15QC57J_2022-09-18_14h21.23.163.csv
700,2.0,right,right,1.0,4.447,0.0,41.0,41.0,41.0,1.0,2238555262-330312.jpg,2898618444-142233.jpg,A1PX4CR15QC57J_2022-09-18_14h21.23.163.csv
701,2.0,left,left,1.0,1.787,0.0,42.0,42.0,42.0,1.0,2592380177-354629.jpg,2579432534-130704.jpg,A1PX4CR15QC57J_2022-09-18_14h21.23.163.csv
702,3.0,right,left,0.0,4.837,0.0,43.0,43.0,43.0,1.0,2592380272-354673.jpg,2592379964-131054.jpg,A1PX4CR15QC57J_2022-09-18_14h21.23.163.csv
703,2.0,left,right,0.0,1.822,0.0,44.0,44.0,44.0,1.0,2864910426-287204.jpg,2883268412-365899.jpg,A1PX4CR15QC57J_2022-09-18_14h21.23.163.csv
704,3.0,right,left,0.0,2.321,0.0,45.0,45.0,45.0,1.0,2238531493-28260.jpg,2575120738-55529.jpg,A1PX4CR15QC57J_2022-09-18_14h21.23.163.csv
705,1.0,left,left,1.0,1.798,0.0,46.0,46.0,46.0,1.0,2883268471-290842.jpg,2883268471-290843.jpg,A1PX4CR15QC57J_2022-09-18_14h21.23.163.csv
706,2.0,right,left,0.0,1.579,0.0,47.0,47.0,47.0,1.0,2981246400-220363.jpg,2868474407-362883.jpg,A1PX4CR15QC57J_2022-09-18_14h21.23.163.csv
707,3.0,left,right,0.0,0.977,0.0,48.0,48.0,48.0,1.0,2898635427-367120.jpg,2898621427-366486.jpg,A1PX4CR15QC57J_2022-09-18_14h21.23.163.csv
708,2.0,right,left,0.0,1.365,0.0,49.0,49.0,49.0,1.0,2864901386-286797.jpg,2592380177-354626.jpg,A1PX4CR15QC57J_2022-09-18_14h21.23.163.csv
709,2.0,right,right,1.0,2.663,0.0,50.0,50.0,50.0,1.0,2984615361-295510.jpg,2883268412-365898.jpg,A1PX4CR15QC57J_2022-09-18_14h21.23.163.csv
710,2.0,right,right,1.0,1.9,0.0,51.0,51.0,51.0,1.0,2868487415-213924.jpg,2460547467-349422.jpg,A1PX4CR15QC57J_2022-09-18_14h21.23.163.csv
711,2.0,right,right,1.0,1.806,0.0,52.0,52.0,52.0,1.0,2901942443-69923.jpg,2874299429-139695.jpg,A1PX4CR15QC57J_2022-09-18_14h21.23.163.csv
712,1.0,right,left,0.0,3.667,0.0,53.0,53.0,53.0,1.0,2238584894-113161.jpg,2238572663-35822.jpg,A1PX4CR15QC57J_2022-09-18_14h21.23.163.csv
713,3.0,right,right,1.0,3.917,0.0,54.0,54.0,54.0,1.0,2898627427-366763.jpg,2883273443-68193.jpg,A1PX4CR15QC57J_2022-09-18_14h21.23.163.csv
714,3.0,left,right,0.0,1.543,0.0,55.0,55.0,55.0,1.0,2238480677-317399.jpg,2238480278-19661.jpg,A1PX4CR15QC57J_2022-09-18_14h21.23.163.csv
715,3.0,left,left,1.0,1.34,0.0,56.0,56.0,56.0,1.0,2901939379-143479.jpg,2964216376-294181.jpg,A1PX4CR15QC57J_2022-09-18_14h21.23.163.csv
716,1.0,right,left,0.0,2.777,0.0,57.0,57.0,57.0,1.0,2238550816-254000.jpg,2238580740-186218.jpg,A1PX4CR15QC57J_2022-09-18_14h21.23.163.csv
717,1.0,left,right,0.0,1.663,0.0,58.0,58.0,58.0,1.0,2964216465-219242.jpg,2238544191-252422.jpg,A1PX4CR15QC57J_2022-09-18_14h21.23.163.csv
718,2.0,left,right,0.0,1.654,0.0,59.0,59.0,59.0,1.0,2449442529-124446.jpg,2460547536-274181.jpg,A1PX4CR15QC57J_2022-09-18_14h21.23.163.csv
719,1.0,left,right,0.0,3.3301,0.0,0.0,0.0,0.0,1.0,2238425482-313537.jpg,2238471391-240918.jpg,AS08ODODBG8BX_2022-09-18_09h19.30.174.csv
720,1.0,right,right,1.0,2.6839,0.0,1.0,1.0,1.0,1.0,2864901420-212147.jpg,2864907432-362042.jpg,AS08ODODBG8BX_2022-09-18_09h19.30.174.csv
721,1.0,right,right,1.0,2.1338,0.0,2.0,2.0,2.0,1.0,2446759803-49251.jpg,2449442529-124446.jpg,AS08ODODBG8BX_2022-09-18_09h19.30.174.csv
