,index,test_encoding_response.keys,test_encoding_response.corr,trials.thisTrialN,target_image,pair,layer,correct,test_encoding_response.rt,key_resp_end.keys,subject
0,20,,1.0,0.0,2592380177-354626.jpg,2238576792-334659.jpg,1.0,,,,A3SSIUMI7ONK5W
1,21,,1.0,1.0,2446758985-197609.jpg,2864909447-362144.jpg,2.0,,,,A3SSIUMI7ONK5W
2,22,,1.0,2.0,2238572663-35822.jpg,2238584894-113161.jpg,1.0,,,,A3SSIUMI7ONK5W
3,23,,1.0,3.0,2901939379-143479.jpg,2964216376-294181.jpg,3.0,,,,A3SSIUMI7ONK5W
4,24,,1.0,4.0,2238580740-186218.jpg,2964220333-71258.jpg,3.0,,,,A3SSIUMI7ONK5W
5,25,,1.0,5.0,2592380177-354629.jpg,2898633421-291974.jpg,1.0,,,,A3SSIUMI7ONK5W
6,26,,1.0,6.0,2874301407-363895.jpg,2446761374-124213.jpg,1.0,,,,A3SSIUMI7ONK5W
7,27,,1.0,7.0,2874302418-65979.jpg,2238480648-19714.jpg,2.0,,,,A3SSIUMI7ONK5W
8,28,left,1.0,8.0,left.jpg,,,left,1.3428,,A3SSIUMI7ONK5W
9,29,,1.0,9.0,2592379964-131054.jpg,2575963989-130576.jpg,1.0,,,,A3SSIUMI7ONK5W
10,30,,1.0,10.0,2898617468-68274.jpg,2901943387-368037.jpg,2.0,,,,A3SSIUMI7ONK5W
11,31,,1.0,11.0,2452380832-348593.jpg,2237858942-299356.jpg,3.0,,,,A3SSIUMI7ONK5W
12,32,,1.0,12.0,2981231403-71642.jpg,2427873763-47290.jpg,3.0,,,,A3SSIUMI7ONK5W
13,33,,1.0,13.0,2874299429-139695.jpg,2446760917-347439.jpg,3.0,,,,A3SSIUMI7ONK5W
14,34,,1.0,14.0,2986451363-73599.jpg,2860302315-210704.jpg,2.0,,,,A3SSIUMI7ONK5W
15,35,,1.0,15.0,2460547508-51571.jpg,2452380166-273109.jpg,1.0,,,,A3SSIUMI7ONK5W
16,36,,1.0,16.0,2874302418-65978.jpg,2898633321-291943.jpg,3.0,,,,A3SSIUMI7ONK5W
17,37,,1.0,17.0,2864907432-362042.jpg,2901947423-70310.jpg,2.0,,,,A3SSIUMI7ONK5W
18,38,,1.0,18.0,2883268471-290842.jpg,2883268471-290843.jpg,1.0,,,,A3SSIUMI7ONK5W
19,39,left,1.0,19.0,left.jpg,,,left,1.372,,A3SSIUMI7ONK5W
20,40,,1.0,20.0,2238560245-182099.jpg,2238480980-168129.jpg,3.0,,,,A3SSIUMI7ONK5W
21,41,,1.0,21.0,2238428357-313623.jpg,2238499057-320266.jpg,1.0,,,,A3SSIUMI7ONK5W
22,42,,1.0,22.0,2460547467-349421.jpg,2981235446-294901.jpg,3.0,,,,A3SSIUMI7ONK5W
23,43,,1.0,23.0,2512875899-126682.jpg,2986447332-371497.jpg,3.0,,,,A3SSIUMI7ONK5W
24,44,,1.0,24.0,2874303365-214262.jpg,2238563377-332054.jpg,2.0,,,,A3SSIUMI7ONK5W
25,45,,1.0,25.0,2901939379-143480.jpg,2981229442-369621.jpg,2.0,,,,A3SSIUMI7ONK5W
26,46,left,1.0,26.0,left.jpg,,,left,1.183,,A3SSIUMI7ONK5W
27,47,,1.0,27.0,2901947423-70311.jpg,2238577590-185467.jpg,3.0,,,,A3SSIUMI7ONK5W
28,48,,1.0,28.0,2964223381-294447.jpg,2901941438-69836.jpg,2.0,,,,A3SSIUMI7ONK5W
29,49,,1.0,29.0,2864910426-287204.jpg,2883268412-365899.jpg,2.0,,,,A3SSIUMI7ONK5W
30,50,,1.0,30.0,2964216465-219242.jpg,2898619327-366362.jpg,3.0,,,,A3SSIUMI7ONK5W
31,51,,1.0,31.0,2874299429-139694.jpg,2986447306-296584.jpg,1.0,,,,A3SSIUMI7ONK5W
32,52,,1.0,32.0,2238425482-313537.jpg,2238436322-314047.jpg,2.0,,,,A3SSIUMI7ONK5W
33,53,,1.0,33.0,2883268412-365898.jpg,2984626312-370849.jpg,1.0,,,,A3SSIUMI7ONK5W
34,54,,1.0,34.0,2868474407-362883.jpg,2901948383-70363.jpg,3.0,,,,A3SSIUMI7ONK5W
35,55,,1.0,35.0,2898618390-216538.jpg,2575120609-129862.jpg,3.0,,,,A3SSIUMI7ONK5W
36,56,,1.0,36.0,2898635427-367120.jpg,2964221435-219434.jpg,1.0,,,,A3SSIUMI7ONK5W
37,57,,1.0,37.0,2238481198-19822.jpg,2238480803-19737.jpg,3.0,,,,A3SSIUMI7ONK5W
38,58,,1.0,38.0,2238481928-19949.jpg,2883264367-365620.jpg,1.0,,,,A3SSIUMI7ONK5W
39,59,,1.0,39.0,2964213381-294060.jpg,2458348012-349114.jpg,2.0,,,,A3SSIUMI7ONK5W
40,60,,1.0,40.0,2898634397-367080.jpg,2964217461-294238.jpg,3.0,,,,A3SSIUMI7ONK5W
41,61,,1.0,41.0,2981241414-145842.jpg,2238516618-25604.jpg,1.0,,,,A3SSIUMI7ONK5W
42,62,,1.0,42.0,2898624426-291546.jpg,2964218432-369263.jpg,1.0,,,,A3SSIUMI7ONK5W
43,63,,1.0,43.0,2449442529-124446.jpg,2446759803-49251.jpg,1.0,,,,A3SSIUMI7ONK5W
44,64,,0.0,44.0,left.jpg,,,left,,,A3SSIUMI7ONK5W
45,65,,1.0,45.0,2446759803-49249.jpg,2898618440-216547.jpg,2.0,,,,A3SSIUMI7ONK5W
46,66,,1.0,46.0,2898633421-291973.jpg,2575118671-277663.jpg,2.0,,,,A3SSIUMI7ONK5W
47,67,,1.0,47.0,2883256307-365057.jpg,2864904453-63933.jpg,3.0,,,,A3SSIUMI7ONK5W
48,68,left,0.0,48.0,right.jpg,,,right,0.279,,A3SSIUMI7ONK5W
49,69,,1.0,49.0,2883273443-68193.jpg,2898627427-366763.jpg,3.0,,,,A3SSIUMI7ONK5W
50,70,,1.0,50.0,2575120738-55529.jpg,2864906345-212360.jpg,1.0,,,,A3SSIUMI7ONK5W
51,71,,1.0,51.0,2964218374-144967.jpg,2446759306-271734.jpg,2.0,,,,A3SSIUMI7ONK5W
52,72,,1.0,52.0,2901941401-292798.jpg,2898631468-68931.jpg,3.0,,,,A3SSIUMI7ONK5W
53,73,,1.0,53.0,2898618444-142233.jpg,2898618444-142232.jpg,3.0,,,,A3SSIUMI7ONK5W
54,74,,1.0,54.0,2898635428-69104.jpg,2898625336-291572.jpg,3.0,,,,A3SSIUMI7ONK5W
55,75,,1.0,55.0,2460547467-349422.jpg,2868487415-213924.jpg,2.0,,,,A3SSIUMI7ONK5W
56,76,,1.0,56.0,2452381505-199546.jpg,2901938432-367627.jpg,1.0,,,,A3SSIUMI7ONK5W
57,77,,1.0,57.0,2449442529-124445.jpg,2452380171-273112.jpg,1.0,,,,A3SSIUMI7ONK5W
58,78,,1.0,58.0,2901952513-70703.jpg,2864907361-287062.jpg,1.0,,,,A3SSIUMI7ONK5W
59,79,,1.0,59.0,2458347385-199723.jpg,2427874554-121863.jpg,2.0,,,,A3SSIUMI7ONK5W
60,80,,1.0,60.0,2238480677-317399.jpg,2238573546-258454.jpg,2.0,,,,A3SSIUMI7ONK5W
61,81,,1.0,61.0,2964222378-71332.jpg,2901933382-367209.jpg,2.0,,,,A3SSIUMI7ONK5W
62,82,,1.0,62.0,2986451363-73598.jpg,2984628361-295995.jpg,2.0,,,,A3SSIUMI7ONK5W
63,83,,1.0,63.0,2868475410-213219.jpg,2901946465-218350.jpg,1.0,,,,A3SSIUMI7ONK5W
64,84,,1.0,64.0,2874307433-66280.jpg,2981246400-220365.jpg,2.0,,,,A3SSIUMI7ONK5W
65,20,,1.0,0.0,2446758985-197609.jpg,2898624426-291544.jpg,3.0,,,,A2LMSIDVE4E4IO
66,21,,1.0,1.0,2883268471-290842.jpg,2883268471-290843.jpg,1.0,,,,A2LMSIDVE4E4IO
67,22,,1.0,2.0,2901947423-70311.jpg,2238577590-185467.jpg,3.0,,,,A2LMSIDVE4E4IO
68,23,,1.0,3.0,2883268412-365898.jpg,2238436252-314037.jpg,3.0,,,,A2LMSIDVE4E4IO
69,24,,1.0,4.0,2874303365-214262.jpg,2274829821-263682.jpg,1.0,,,,A2LMSIDVE4E4IO
70,25,,1.0,5.0,2446759803-49249.jpg,2901951392-368654.jpg,3.0,,,,A2LMSIDVE4E4IO
71,26,,1.0,6.0,2874302418-65978.jpg,2238481198-19823.jpg,2.0,,,,A2LMSIDVE4E4IO
72,27,,1.0,7.0,2449442529-124445.jpg,2452380171-273112.jpg,1.0,,,,A2LMSIDVE4E4IO
73,28,,1.0,8.0,2592380177-354629.jpg,2579432534-130704.jpg,2.0,,,,A2LMSIDVE4E4IO
74,29,,1.0,9.0,2964216465-219242.jpg,2864900319-137787.jpg,2.0,,,,A2LMSIDVE4E4IO
75,30,,1.0,10.0,2981241414-145842.jpg,2427873848-47312.jpg,3.0,,,,A2LMSIDVE4E4IO
76,31,,1.0,11.0,2964218374-144967.jpg,2964218374-144968.jpg,1.0,,,,A2LMSIDVE4E4IO
77,32,,1.0,12.0,2238481928-19949.jpg,2864900357-361688.jpg,2.0,,,,A2LMSIDVE4E4IO
78,33,,1.0,13.0,2874299429-139694.jpg,2883266367-365742.jpg,3.0,,,,A2LMSIDVE4E4IO
79,34,left,1.0,14.0,left.jpg,,,left,1.7893,,A2LMSIDVE4E4IO
80,35,,1.0,15.0,2238572663-35822.jpg,2864903351-286874.jpg,3.0,,,,A2LMSIDVE4E4IO
81,36,,1.0,16.0,2964223381-294447.jpg,2427874231-269884.jpg,1.0,,,,A2LMSIDVE4E4IO
82,37,right,1.0,17.0,right.jpg,,,right,1.7456,,A2LMSIDVE4E4IO
83,38,,1.0,18.0,2460547508-51571.jpg,2981232437-369759.jpg,2.0,,,,A2LMSIDVE4E4IO
84,39,,1.0,19.0,2512875899-126682.jpg,2460547536-274179.jpg,1.0,,,,A2LMSIDVE4E4IO
85,40,,1.0,20.0,2592379964-131054.jpg,2575963989-130576.jpg,1.0,,,,A2LMSIDVE4E4IO
86,41,,1.0,21.0,2883256307-365057.jpg,2611628310-206388.jpg,1.0,,,,A2LMSIDVE4E4IO
87,42,,1.0,22.0,2449442529-124446.jpg,2460547536-274181.jpg,2.0,,,,A2LMSIDVE4E4IO
88,43,,1.0,23.0,2986451363-73598.jpg,2237857458-1324.jpg,1.0,,,,A2LMSIDVE4E4IO
89,44,,1.0,24.0,2460547467-349422.jpg,2864909447-362146.jpg,3.0,,,,A2LMSIDVE4E4IO
90,45,,1.0,25.0,2874299429-139695.jpg,2883266388-67750.jpg,1.0,,,,A2LMSIDVE4E4IO
91,46,,1.0,26.0,2452381505-199546.jpg,2901938432-367627.jpg,1.0,,,,A2LMSIDVE4E4IO
92,47,right,1.0,27.0,right.jpg,,,right,2.1471,,A2LMSIDVE4E4IO
93,48,,1.0,28.0,2898624426-291546.jpg,2964218432-369263.jpg,1.0,,,,A2LMSIDVE4E4IO
94,49,,1.0,29.0,2901939379-143479.jpg,2964216376-294181.jpg,3.0,,,,A2LMSIDVE4E4IO
95,50,,1.0,30.0,2874302418-65979.jpg,2238578544-111698.jpg,3.0,,,,A2LMSIDVE4E4IO
96,51,,1.0,31.0,2238428357-313623.jpg,2986408339-146952.jpg,3.0,,,,A2LMSIDVE4E4IO
97,52,,1.0,32.0,2898635427-367120.jpg,2868479517-363220.jpg,2.0,,,,A2LMSIDVE4E4IO
98,53,,1.0,33.0,2458347385-199723.jpg,2427874554-121863.jpg,2.0,,,,A2LMSIDVE4E4IO
99,54,,1.0,34.0,2452380832-348593.jpg,2238481813-19930.jpg,2.0,,,,A2LMSIDVE4E4IO
100,55,,1.0,35.0,2238580740-186218.jpg,2238521193-26285.jpg,2.0,,,,A2LMSIDVE4E4IO
101,56,,1.0,36.0,2868475410-213219.jpg,2901946465-218350.jpg,1.0,,,,A2LMSIDVE4E4IO
102,57,,1.0,37.0,2592380177-354626.jpg,2238576792-334659.jpg,1.0,,,,A2LMSIDVE4E4IO
103,58,,1.0,38.0,2460547467-349421.jpg,2452380166-273110.jpg,2.0,,,,A2LMSIDVE4E4IO
104,59,,1.0,39.0,2898634397-367080.jpg,2964217461-294238.jpg,3.0,,,,A2LMSIDVE4E4IO
105,60,,1.0,40.0,2981231403-71642.jpg,2427873763-47290.jpg,3.0,,,,A2LMSIDVE4E4IO
106,61,,1.0,41.0,2986451363-73599.jpg,2898626385-216899.jpg,1.0,,,,A2LMSIDVE4E4IO
107,62,,1.0,42.0,2901939379-143480.jpg,2981229442-369621.jpg,2.0,,,,A2LMSIDVE4E4IO
108,63,left,1.0,43.0,left.jpg,,,left,2.2212,,A2LMSIDVE4E4IO
109,64,,1.0,44.0,2898618444-142233.jpg,2898631359-142721.jpg,1.0,,,,A2LMSIDVE4E4IO
110,65,,1.0,45.0,2864910426-287204.jpg,2864902304-137862.jpg,1.0,,,,A2LMSIDVE4E4IO
111,66,,1.0,46.0,2874307433-66280.jpg,2981246400-220365.jpg,2.0,,,,A2LMSIDVE4E4IO
112,67,,1.0,47.0,2238481198-19822.jpg,2901946436-293242.jpg,2.0,,,,A2LMSIDVE4E4IO
113,68,,1.0,48.0,2901941401-292798.jpg,2981243412-370222.jpg,2.0,,,,A2LMSIDVE4E4IO
114,69,,1.0,49.0,2864907432-362042.jpg,2901947423-70310.jpg,2.0,,,,A2LMSIDVE4E4IO
115,70,,1.0,50.0,2874301407-363895.jpg,2901947323-70275.jpg,3.0,,,,A2LMSIDVE4E4IO
116,71,left,1.0,51.0,left.jpg,,,left,2.0008,,A2LMSIDVE4E4IO
117,72,,1.0,52.0,2964213381-294060.jpg,2964213381-294061.jpg,3.0,,,,A2LMSIDVE4E4IO
118,73,,1.0,53.0,2901952513-70703.jpg,2864907361-287062.jpg,1.0,,,,A2LMSIDVE4E4IO
119,74,,1.0,54.0,2964222378-71332.jpg,2901933382-367209.jpg,2.0,,,,A2LMSIDVE4E4IO
120,75,,1.0,55.0,2238480677-317399.jpg,2238481630-168218.jpg,1.0,,,,A2LMSIDVE4E4IO
121,76,,1.0,56.0,2898635428-69104.jpg,2901943411-292945.jpg,2.0,,,,A2LMSIDVE4E4IO
122,77,,1.0,57.0,2883273443-68193.jpg,2898627427-366763.jpg,3.0,,,,A2LMSIDVE4E4IO
123,78,,1.0,58.0,2868474407-362883.jpg,2981246400-220363.jpg,2.0,,,,A2LMSIDVE4E4IO
124,79,,1.0,59.0,2238425482-313537.jpg,2898633480-217190.jpg,3.0,,,,A2LMSIDVE4E4IO
125,80,,1.0,60.0,2898633421-291973.jpg,2575118671-277663.jpg,2.0,,,,A2LMSIDVE4E4IO
126,81,,1.0,61.0,2898618390-216538.jpg,2575120609-129862.jpg,3.0,,,,A2LMSIDVE4E4IO
127,82,,1.0,62.0,2238560245-182099.jpg,2238480980-168129.jpg,3.0,,,,A2LMSIDVE4E4IO
128,83,,1.0,63.0,2898617468-68274.jpg,2901946439-144040.jpg,1.0,,,,A2LMSIDVE4E4IO
129,84,,1.0,64.0,2575120738-55529.jpg,2238531493-28260.jpg,3.0,,,,A2LMSIDVE4E4IO
130,20,,1.0,0.0,2898635427-367120.jpg,2898621427-366486.jpg,3.0,,,,A2TI9ZTXN1GNTV
131,21,,1.0,1.0,2874299429-139695.jpg,2446760917-347439.jpg,3.0,,,,A2TI9ZTXN1GNTV
132,22,,1.0,2.0,2238572663-35822.jpg,2864903351-286874.jpg,3.0,,,,A2TI9ZTXN1GNTV
133,23,,1.0,3.0,2986451363-73599.jpg,2860302315-210704.jpg,2.0,,,,A2TI9ZTXN1GNTV
134,24,,1.0,4.0,2446759803-49249.jpg,2901951392-368654.jpg,3.0,,,,A2TI9ZTXN1GNTV
135,25,,1.0,5.0,2898617468-68274.jpg,2901946439-144040.jpg,1.0,,,,A2TI9ZTXN1GNTV
136,26,,1.0,6.0,2446758985-197609.jpg,2981240424-145795.jpg,1.0,,,,A2TI9ZTXN1GNTV
137,27,,1.0,7.0,2458347385-199723.jpg,2427874554-121863.jpg,2.0,,,,A2TI9ZTXN1GNTV
138,28,,1.0,8.0,2898624426-291546.jpg,2964218432-369263.jpg,1.0,,,,A2TI9ZTXN1GNTV
139,29,,1.0,9.0,2898618390-216538.jpg,2575120609-129862.jpg,3.0,,,,A2TI9ZTXN1GNTV
140,30,,1.0,10.0,2460547467-349421.jpg,2898631394-142727.jpg,1.0,,,,A2TI9ZTXN1GNTV
141,31,,1.0,11.0,2460547467-349422.jpg,2864909447-362146.jpg,3.0,,,,A2TI9ZTXN1GNTV
142,32,right,1.0,12.0,right.jpg,,,right,1.8203,,A2TI9ZTXN1GNTV
143,33,,1.0,13.0,2868475410-213219.jpg,2868474407-362885.jpg,3.0,,,,A2TI9ZTXN1GNTV
144,34,,1.0,14.0,2901939379-143480.jpg,2981229442-369621.jpg,2.0,,,,A2TI9ZTXN1GNTV
145,35,,1.0,15.0,2986451363-73598.jpg,2984628361-295995.jpg,2.0,,,,A2TI9ZTXN1GNTV
146,36,,1.0,16.0,2874301407-363895.jpg,2901947323-70275.jpg,3.0,,,,A2TI9ZTXN1GNTV
147,37,,0.0,17.0,left.jpg,,,left,,,A2TI9ZTXN1GNTV
148,38,,1.0,18.0,2901947423-70311.jpg,2238573447-333826.jpg,2.0,,,,A2TI9ZTXN1GNTV
149,39,,1.0,19.0,2460547508-51571.jpg,2452380166-273109.jpg,1.0,,,,A2TI9ZTXN1GNTV
150,40,,1.0,20.0,2883268412-365898.jpg,2984626312-370849.jpg,1.0,,,,A2TI9ZTXN1GNTV
151,41,,1.0,21.0,2452381505-199546.jpg,2898632385-217138.jpg,2.0,,,,A2TI9ZTXN1GNTV
152,42,,1.0,22.0,2238481928-19949.jpg,2883264367-365620.jpg,1.0,,,,A2TI9ZTXN1GNTV
153,43,,1.0,23.0,2901941401-292798.jpg,2898618327-366317.jpg,1.0,,,,A2TI9ZTXN1GNTV
154,44,,1.0,24.0,2868474407-362883.jpg,2460547732-349518.jpg,1.0,,,,A2TI9ZTXN1GNTV
155,45,,1.0,25.0,2449442529-124446.jpg,2446759803-49251.jpg,1.0,,,,A2TI9ZTXN1GNTV
156,46,,1.0,26.0,2898633421-291973.jpg,2512876023-52283.jpg,1.0,,,,A2TI9ZTXN1GNTV
157,47,,1.0,27.0,2592380177-354629.jpg,2512875587-350044.jpg,3.0,,,,A2TI9ZTXN1GNTV
158,48,,1.0,28.0,2592379964-131054.jpg,2592380272-354673.jpg,3.0,,,,A2TI9ZTXN1GNTV
159,49,,1.0,29.0,2864910426-287204.jpg,2901939433-69672.jpg,3.0,,,,A2TI9ZTXN1GNTV
160,50,,1.0,30.0,2238428357-313623.jpg,2238499057-320266.jpg,1.0,,,,A2TI9ZTXN1GNTV
161,51,,1.0,31.0,2964223381-294447.jpg,2901941438-69836.jpg,2.0,,,,A2TI9ZTXN1GNTV
162,52,,1.0,32.0,2452380832-348593.jpg,2238481813-19930.jpg,2.0,,,,A2TI9ZTXN1GNTV
163,53,right,1.0,33.0,right.jpg,,,right,1.7567,,A2TI9ZTXN1GNTV
164,54,,1.0,34.0,2964222378-71332.jpg,2901933382-367209.jpg,2.0,,,,A2TI9ZTXN1GNTV
165,55,,1.0,35.0,2901939379-143479.jpg,2446758985-197610.jpg,2.0,,,,A2TI9ZTXN1GNTV
166,56,,1.0,36.0,2575120738-55529.jpg,2238531493-28260.jpg,3.0,,,,A2TI9ZTXN1GNTV
167,57,,1.0,37.0,2874302418-65978.jpg,2964224310-219528.jpg,1.0,,,,A2TI9ZTXN1GNTV
168,58,,1.0,38.0,2874307433-66280.jpg,2981231422-369714.jpg,3.0,,,,A2TI9ZTXN1GNTV
169,59,,1.0,39.0,2964218374-144967.jpg,2981231446-294732.jpg,3.0,,,,A2TI9ZTXN1GNTV
170,60,,1.0,40.0,2874299429-139694.jpg,2981244403-72215.jpg,2.0,,,,A2TI9ZTXN1GNTV
171,61,,1.0,41.0,2964216465-219242.jpg,2898619327-366362.jpg,3.0,,,,A2TI9ZTXN1GNTV
172,62,,1.0,42.0,2238480677-317399.jpg,2238481630-168218.jpg,1.0,,,,A2TI9ZTXN1GNTV
173,63,,1.0,43.0,2964213381-294060.jpg,2964213381-294061.jpg,3.0,,,,A2TI9ZTXN1GNTV
174,64,right,1.0,44.0,right.jpg,,,right,2.5172,,A2TI9ZTXN1GNTV
175,65,,1.0,45.0,2898618444-142233.jpg,2898631359-142721.jpg,1.0,,,,A2TI9ZTXN1GNTV
176,66,,1.0,46.0,2238481198-19822.jpg,2238480803-19737.jpg,3.0,,,,A2TI9ZTXN1GNTV
177,67,,1.0,47.0,2883268471-290842.jpg,2901947448-70314.jpg,3.0,,,,A2TI9ZTXN1GNTV
178,68,right,1.0,48.0,right.jpg,,,right,1.8152,,A2TI9ZTXN1GNTV
179,69,,1.0,49.0,2238425482-313537.jpg,2238436322-314047.jpg,2.0,,,,A2TI9ZTXN1GNTV
180,70,,1.0,50.0,2901952513-70703.jpg,2868469411-287540.jpg,2.0,,,,A2TI9ZTXN1GNTV
181,71,,1.0,51.0,2874303365-214262.jpg,2238563377-332054.jpg,2.0,,,,A2TI9ZTXN1GNTV
182,72,,1.0,52.0,2512875899-126682.jpg,2592380177-354628.jpg,2.0,,,,A2TI9ZTXN1GNTV
183,73,,1.0,53.0,2981231403-71642.jpg,2579432519-130698.jpg,1.0,,,,A2TI9ZTXN1GNTV
184,74,,1.0,54.0,2898634397-367080.jpg,2901934408-69289.jpg,2.0,,,,A2TI9ZTXN1GNTV
185,75,,1.0,55.0,2874302418-65979.jpg,2238578544-111698.jpg,3.0,,,,A2TI9ZTXN1GNTV
186,76,,1.0,56.0,2238560245-182099.jpg,2592380255-205553.jpg,1.0,,,,A2TI9ZTXN1GNTV
187,77,,1.0,57.0,2883273443-68193.jpg,2883254439-140940.jpg,1.0,,,,A2TI9ZTXN1GNTV
188,78,,1.0,58.0,2883256307-365057.jpg,2964210336-293945.jpg,2.0,,,,A2TI9ZTXN1GNTV
189,79,,1.0,59.0,2864907432-362042.jpg,2901947423-70310.jpg,2.0,,,,A2TI9ZTXN1GNTV
190,80,,1.0,60.0,2592380177-354626.jpg,2238576792-334659.jpg,1.0,,,,A2TI9ZTXN1GNTV
191,81,,1.0,61.0,2238580740-186218.jpg,2238521193-26285.jpg,2.0,,,,A2TI9ZTXN1GNTV
192,82,,1.0,62.0,2898635428-69104.jpg,2446759803-49250.jpg,1.0,,,,A2TI9ZTXN1GNTV
193,83,,1.0,63.0,2449442529-124445.jpg,2898632385-217137.jpg,3.0,,,,A2TI9ZTXN1GNTV
194,84,,1.0,64.0,2981241414-145842.jpg,2874301404-139813.jpg,2.0,,,,A2TI9ZTXN1GNTV
195,20,,1.0,0.0,2898618444-142233.jpg,2898631359-142721.jpg,1.0,,,,A3DFUI6OKBNNGI
196,21,,1.0,1.0,2868475410-213219.jpg,2238480803-19739.jpg,2.0,,,,A3DFUI6OKBNNGI
197,22,,1.0,2.0,2898618390-216538.jpg,2901939327-367670.jpg,2.0,,,,A3DFUI6OKBNNGI
198,23,,1.0,3.0,2592379964-131054.jpg,2592380272-354673.jpg,3.0,,,,A3DFUI6OKBNNGI
199,24,,1.0,4.0,2981231403-71642.jpg,2427873763-47290.jpg,3.0,,,,A3DFUI6OKBNNGI
200,25,,1.0,5.0,2901941401-292798.jpg,2981243412-370222.jpg,2.0,,,,A3DFUI6OKBNNGI
201,26,,1.0,6.0,2449442529-124446.jpg,2446759803-49251.jpg,1.0,,,,A3DFUI6OKBNNGI
202,27,,1.0,7.0,2964213381-294060.jpg,2981244394-145974.jpg,1.0,,,,A3DFUI6OKBNNGI
203,28,right,1.0,8.0,right.jpg,,,right,2.0582,,A3DFUI6OKBNNGI
204,29,,1.0,9.0,2874301407-363895.jpg,2446761374-124213.jpg,1.0,,,,A3DFUI6OKBNNGI
205,30,,1.0,10.0,2874303365-214262.jpg,2238563377-332054.jpg,2.0,,,,A3DFUI6OKBNNGI
206,31,,1.0,11.0,2964216465-219242.jpg,2238544191-252422.jpg,1.0,,,,A3DFUI6OKBNNGI
207,32,,1.0,12.0,2964223381-294447.jpg,2901941438-69836.jpg,2.0,,,,A3DFUI6OKBNNGI
208,33,,1.0,13.0,2238572663-35822.jpg,2238571930-184143.jpg,2.0,,,,A3DFUI6OKBNNGI
209,34,,1.0,14.0,2964222378-71332.jpg,2981240427-370099.jpg,3.0,,,,A3DFUI6OKBNNGI
210,35,,1.0,15.0,2883256307-365057.jpg,2864904453-63933.jpg,3.0,,,,A3DFUI6OKBNNGI
211,36,,1.0,16.0,2238580740-186218.jpg,2238521193-26285.jpg,2.0,,,,A3DFUI6OKBNNGI
212,37,,1.0,17.0,2874302418-65978.jpg,2964224310-219528.jpg,1.0,,,,A3DFUI6OKBNNGI
213,38,,1.0,18.0,2460547467-349421.jpg,2452380166-273110.jpg,2.0,,,,A3DFUI6OKBNNGI
214,39,,1.0,19.0,2883268471-290842.jpg,2901947448-70314.jpg,3.0,,,,A3DFUI6OKBNNGI
215,40,,1.0,20.0,2898635428-69104.jpg,2898625336-291572.jpg,3.0,,,,A3DFUI6OKBNNGI
216,41,,1.0,21.0,2874299429-139695.jpg,2446760917-347439.jpg,3.0,,,,A3DFUI6OKBNNGI
217,42,right,1.0,22.0,right.jpg,,,right,2.7529,,A3DFUI6OKBNNGI
218,43,,1.0,23.0,2238425482-313537.jpg,2238436322-314047.jpg,2.0,,,,A3DFUI6OKBNNGI
219,44,,1.0,24.0,2575120738-55529.jpg,2864906345-212360.jpg,1.0,,,,A3DFUI6OKBNNGI
220,45,,1.0,25.0,2592380177-354626.jpg,2238576792-334659.jpg,1.0,,,,A3DFUI6OKBNNGI
221,46,,1.0,26.0,2460547467-349422.jpg,2868487415-213924.jpg,2.0,,,,A3DFUI6OKBNNGI
222,47,,1.0,27.0,2964218374-144967.jpg,2964218374-144968.jpg,1.0,,,,A3DFUI6OKBNNGI
223,48,,1.0,28.0,2864907432-362042.jpg,2989726338-74002.jpg,3.0,,,,A3DFUI6OKBNNGI
224,49,,1.0,29.0,2874299429-139694.jpg,2883266367-365742.jpg,3.0,,,,A3DFUI6OKBNNGI
225,50,right,1.0,30.0,right.jpg,,,right,2.7207,,A3DFUI6OKBNNGI
226,51,,1.0,31.0,2458347385-199723.jpg,2458347252-348911.jpg,3.0,,,,A3DFUI6OKBNNGI
227,52,,1.0,32.0,2981241414-145842.jpg,2238516618-25604.jpg,1.0,,,,A3DFUI6OKBNNGI
228,53,,1.0,33.0,2512875899-126682.jpg,2592380177-354628.jpg,2.0,,,,A3DFUI6OKBNNGI
229,54,,1.0,34.0,2901939379-143479.jpg,2964216376-294181.jpg,3.0,,,,A3DFUI6OKBNNGI
230,55,,1.0,35.0,2883268412-365898.jpg,2984615361-295510.jpg,2.0,,,,A3DFUI6OKBNNGI
231,56,,1.0,36.0,2901947423-70311.jpg,2860312398-62572.jpg,1.0,,,,A3DFUI6OKBNNGI
232,57,,1.0,37.0,2986451363-73598.jpg,2901942443-69925.jpg,3.0,,,,A3DFUI6OKBNNGI
233,58,,1.0,38.0,2901952513-70703.jpg,2238481198-19821.jpg,3.0,,,,A3DFUI6OKBNNGI
234,59,,1.0,39.0,2449442529-124445.jpg,2452380171-273112.jpg,1.0,,,,A3DFUI6OKBNNGI
235,60,,1.0,40.0,2898633421-291973.jpg,2575118671-277663.jpg,2.0,,,,A3DFUI6OKBNNGI
236,61,,1.0,41.0,2898635427-367120.jpg,2964221435-219434.jpg,1.0,,,,A3DFUI6OKBNNGI
237,62,,1.0,42.0,2238481928-19949.jpg,2864900357-361688.jpg,2.0,,,,A3DFUI6OKBNNGI
238,63,,0.0,43.0,right.jpg,,,right,,,A3DFUI6OKBNNGI
239,64,,1.0,44.0,2452380832-348593.jpg,2238328478-11678.jpg,1.0,,,,A3DFUI6OKBNNGI
240,65,,1.0,45.0,2898624426-291546.jpg,2981235446-294900.jpg,3.0,,,,A3DFUI6OKBNNGI
241,66,left,1.0,46.0,left.jpg,,,left,2.6832,,A3DFUI6OKBNNGI
242,67,,1.0,47.0,2592380177-354629.jpg,2579432534-130704.jpg,2.0,,,,A3DFUI6OKBNNGI
243,68,,1.0,48.0,2238560245-182099.jpg,2592380255-205553.jpg,1.0,,,,A3DFUI6OKBNNGI
244,69,,1.0,49.0,2460547508-51571.jpg,2901941438-69835.jpg,3.0,,,,A3DFUI6OKBNNGI
245,70,,1.0,50.0,2898617468-68274.jpg,2964207374-144577.jpg,3.0,,,,A3DFUI6OKBNNGI
246,71,,1.0,51.0,2986451363-73599.jpg,2898626385-216899.jpg,1.0,,,,A3DFUI6OKBNNGI
247,72,,1.0,52.0,2874302418-65979.jpg,2237857458-1325.jpg,1.0,,,,A3DFUI6OKBNNGI
248,73,,1.0,53.0,2874307433-66280.jpg,2981246400-220365.jpg,2.0,,,,A3DFUI6OKBNNGI
249,74,,1.0,54.0,2446758985-197609.jpg,2864909447-362144.jpg,2.0,,,,A3DFUI6OKBNNGI
250,75,,1.0,55.0,2238480677-317399.jpg,2238480278-19661.jpg,3.0,,,,A3DFUI6OKBNNGI
251,76,,1.0,56.0,2452381505-199546.jpg,2901938432-367627.jpg,1.0,,,,A3DFUI6OKBNNGI
252,77,,1.0,57.0,2898634397-367080.jpg,2964217461-294238.jpg,3.0,,,,A3DFUI6OKBNNGI
253,78,,1.0,58.0,2864910426-287204.jpg,2901939433-69672.jpg,3.0,,,,A3DFUI6OKBNNGI
254,79,,1.0,59.0,2868474407-362883.jpg,2981246400-220363.jpg,2.0,,,,A3DFUI6OKBNNGI
255,80,,1.0,60.0,2883273443-68193.jpg,2883254439-140940.jpg,1.0,,,,A3DFUI6OKBNNGI
256,81,,1.0,61.0,2238481198-19822.jpg,2901946436-293242.jpg,2.0,,,,A3DFUI6OKBNNGI
257,82,,1.0,62.0,2446759803-49249.jpg,2901951392-368654.jpg,3.0,,,,A3DFUI6OKBNNGI
258,83,,1.0,63.0,2901939379-143480.jpg,2901942428-69919.jpg,1.0,,,,A3DFUI6OKBNNGI
259,84,,1.0,64.0,2238428357-313623.jpg,2984615361-295509.jpg,2.0,,,,A3DFUI6OKBNNGI
260,20,,1.0,0.0,2592380177-354629.jpg,2898633421-291974.jpg,1.0,,,,A1DEYILIW8BKPC
261,21,,1.0,1.0,2512875899-126682.jpg,2460547536-274179.jpg,1.0,,,,A1DEYILIW8BKPC
262,22,,1.0,2.0,2898618444-142233.jpg,2898618444-142232.jpg,3.0,,,,A1DEYILIW8BKPC
263,23,,1.0,3.0,2964218374-144967.jpg,2964218374-144968.jpg,1.0,,,,A1DEYILIW8BKPC
264,24,,1.0,4.0,2452381505-199546.jpg,2898632385-217138.jpg,2.0,,,,A1DEYILIW8BKPC
265,25,,1.0,5.0,2898618390-216538.jpg,2575120609-129862.jpg,3.0,,,,A1DEYILIW8BKPC
266,26,,1.0,6.0,2238428357-313623.jpg,2238499057-320266.jpg,1.0,,,,A1DEYILIW8BKPC
267,27,,1.0,7.0,2868474407-362883.jpg,2460547732-349518.jpg,1.0,,,,A1DEYILIW8BKPC
268,28,,1.0,8.0,2901939379-143479.jpg,2446758985-197610.jpg,2.0,,,,A1DEYILIW8BKPC
269,29,,1.0,9.0,2898633421-291973.jpg,2238550049-105691.jpg,3.0,,,,A1DEYILIW8BKPC
270,30,,1.0,10.0,2238480677-317399.jpg,2238480278-19661.jpg,3.0,,,,A1DEYILIW8BKPC
271,31,left,1.0,11.0,left.jpg,,,left,1.1606,,A1DEYILIW8BKPC
272,32,,1.0,12.0,2874301407-363895.jpg,2986397322-371109.jpg,2.0,,,,A1DEYILIW8BKPC
273,33,,1.0,13.0,2238425482-313537.jpg,2898633480-217190.jpg,3.0,,,,A1DEYILIW8BKPC
274,34,,1.0,14.0,2898634397-367080.jpg,2901934408-69289.jpg,2.0,,,,A1DEYILIW8BKPC
275,35,,1.0,15.0,2460547467-349421.jpg,2452380166-273110.jpg,2.0,,,,A1DEYILIW8BKPC
276,36,,1.0,16.0,2452380832-348593.jpg,2237858942-299356.jpg,3.0,,,,A1DEYILIW8BKPC
277,37,left,1.0,17.0,left.jpg,,,left,1.1525,,A1DEYILIW8BKPC
278,38,,1.0,18.0,2901947423-70311.jpg,2238573447-333826.jpg,2.0,,,,A1DEYILIW8BKPC
279,39,,1.0,19.0,2883268412-365898.jpg,2238436252-314037.jpg,3.0,,,,A1DEYILIW8BKPC
280,40,,1.0,20.0,2898617468-68274.jpg,2964207374-144577.jpg,3.0,,,,A1DEYILIW8BKPC
281,41,,1.0,21.0,2238560245-182099.jpg,2874314526-289684.jpg,2.0,,,,A1DEYILIW8BKPC
282,42,,1.0,22.0,2901941401-292798.jpg,2898618327-366317.jpg,1.0,,,,A1DEYILIW8BKPC
283,43,,1.0,23.0,2883256307-365057.jpg,2964210336-293945.jpg,2.0,,,,A1DEYILIW8BKPC
284,44,,1.0,24.0,2575120738-55529.jpg,2864906345-212360.jpg,1.0,,,,A1DEYILIW8BKPC
285,45,,1.0,25.0,2460547467-349422.jpg,2898618440-216545.jpg,1.0,,,,A1DEYILIW8BKPC
286,46,,1.0,26.0,2898635427-367120.jpg,2898621427-366486.jpg,3.0,,,,A1DEYILIW8BKPC
287,47,right,1.0,27.0,right.jpg,,,right,1.1555,,A1DEYILIW8BKPC
288,48,,1.0,28.0,2874302418-65979.jpg,2238480648-19714.jpg,2.0,,,,A1DEYILIW8BKPC
289,49,,1.0,29.0,2449442529-124446.jpg,2446759803-49251.jpg,1.0,,,,A1DEYILIW8BKPC
290,50,,1.0,30.0,2238481198-19822.jpg,2238480803-19737.jpg,3.0,,,,A1DEYILIW8BKPC
291,51,,1.0,31.0,2446759803-49249.jpg,2901951392-368654.jpg,3.0,,,,A1DEYILIW8BKPC
292,52,,1.0,32.0,2864907432-362042.jpg,2864901420-212147.jpg,1.0,,,,A1DEYILIW8BKPC
293,53,,1.0,33.0,2874302418-65978.jpg,2898633321-291943.jpg,3.0,,,,A1DEYILIW8BKPC
294,54,,1.0,34.0,2460547508-51571.jpg,2981232437-369759.jpg,2.0,,,,A1DEYILIW8BKPC
295,55,,1.0,35.0,2238481928-19949.jpg,2864900357-361688.jpg,2.0,,,,A1DEYILIW8BKPC
296,56,,1.0,36.0,2238580740-186218.jpg,2238550816-254000.jpg,1.0,,,,A1DEYILIW8BKPC
297,57,,1.0,37.0,2964213381-294060.jpg,2458348012-349114.jpg,2.0,,,,A1DEYILIW8BKPC
298,58,,1.0,38.0,2874299429-139694.jpg,2986447306-296584.jpg,1.0,,,,A1DEYILIW8BKPC
299,59,,1.0,39.0,2449442529-124445.jpg,2898632385-217137.jpg,3.0,,,,A1DEYILIW8BKPC
300,60,left,1.0,40.0,left.jpg,,,left,0.9842,,A1DEYILIW8BKPC
301,61,,1.0,41.0,2868475410-213219.jpg,2901946465-218350.jpg,1.0,,,,A1DEYILIW8BKPC
302,62,,1.0,42.0,2898624426-291546.jpg,2981235446-294900.jpg,3.0,,,,A1DEYILIW8BKPC
303,63,,1.0,43.0,2986451363-73599.jpg,2238434559-90406.jpg,3.0,,,,A1DEYILIW8BKPC
304,64,,1.0,44.0,2964216465-219242.jpg,2864900319-137787.jpg,2.0,,,,A1DEYILIW8BKPC
305,65,,1.0,45.0,2883268471-290842.jpg,2883255450-215310.jpg,2.0,,,,A1DEYILIW8BKPC
306,66,,1.0,46.0,2458347385-199723.jpg,2458347252-348911.jpg,3.0,,,,A1DEYILIW8BKPC
307,67,,1.0,47.0,2592379964-131054.jpg,2575963989-130576.jpg,1.0,,,,A1DEYILIW8BKPC
308,68,left,0.0,48.0,right.jpg,,,right,0.3208,,A1DEYILIW8BKPC
309,69,,1.0,49.0,2986451363-73598.jpg,2237857458-1324.jpg,1.0,,,,A1DEYILIW8BKPC
310,70,,1.0,50.0,2898635428-69104.jpg,2901943411-292945.jpg,2.0,,,,A1DEYILIW8BKPC
311,71,,1.0,51.0,2883273443-68193.jpg,2883254439-140940.jpg,1.0,,,,A1DEYILIW8BKPC
312,72,,1.0,52.0,2981231403-71642.jpg,2874305405-214397.jpg,2.0,,,,A1DEYILIW8BKPC
313,73,,1.0,53.0,2446758985-197609.jpg,2864909447-362144.jpg,2.0,,,,A1DEYILIW8BKPC
314,74,,1.0,54.0,2592380177-354626.jpg,2238576792-334659.jpg,1.0,,,,A1DEYILIW8BKPC
315,75,,1.0,55.0,2874299429-139695.jpg,2446760917-347439.jpg,3.0,,,,A1DEYILIW8BKPC
316,76,,1.0,56.0,2981241414-145842.jpg,2238516618-25604.jpg,1.0,,,,A1DEYILIW8BKPC
317,77,,1.0,57.0,2901952513-70703.jpg,2238481198-19821.jpg,3.0,,,,A1DEYILIW8BKPC
318,78,,1.0,58.0,2864910426-287204.jpg,2864902304-137862.jpg,1.0,,,,A1DEYILIW8BKPC
319,79,,1.0,59.0,2238572663-35822.jpg,2238584894-113161.jpg,1.0,,,,A1DEYILIW8BKPC
320,80,,1.0,60.0,2964223381-294447.jpg,2898628438-68785.jpg,3.0,,,,A1DEYILIW8BKPC
321,81,,1.0,61.0,2964222378-71332.jpg,2901933382-367209.jpg,2.0,,,,A1DEYILIW8BKPC
322,82,,1.0,62.0,2901939379-143480.jpg,2981229442-369621.jpg,2.0,,,,A1DEYILIW8BKPC
323,83,,1.0,63.0,2874303365-214262.jpg,2864911457-362260.jpg,3.0,,,,A1DEYILIW8BKPC
324,84,,1.0,64.0,2874307433-66280.jpg,2981246400-220365.jpg,2.0,,,,A1DEYILIW8BKPC
325,20,,1.0,0.0,2512875899-126682.jpg,2460547536-274179.jpg,1.0,,,,A5JUTCI1XLTTD
326,21,,1.0,1.0,2964213381-294060.jpg,2458348012-349114.jpg,2.0,,,,A5JUTCI1XLTTD
327,22,,1.0,2.0,2452381505-199546.jpg,2898632385-217138.jpg,2.0,,,,A5JUTCI1XLTTD
328,23,,1.0,3.0,2874299429-139694.jpg,2883266367-365742.jpg,3.0,,,,A5JUTCI1XLTTD
329,24,,1.0,4.0,2460547467-349422.jpg,2868487415-213924.jpg,2.0,,,,A5JUTCI1XLTTD
330,25,,1.0,5.0,2986451363-73599.jpg,2898626385-216899.jpg,1.0,,,,A5JUTCI1XLTTD
331,26,,1.0,6.0,2449442529-124445.jpg,2986408373-73286.jpg,2.0,,,,A5JUTCI1XLTTD
332,27,,1.0,7.0,2874303365-214262.jpg,2238563377-332054.jpg,2.0,,,,A5JUTCI1XLTTD
333,28,,0.0,8.0,left.jpg,,,left,,,A5JUTCI1XLTTD
334,29,,1.0,9.0,2238481198-19822.jpg,2901946436-293242.jpg,2.0,,,,A5JUTCI1XLTTD
335,30,,1.0,10.0,2449442529-124446.jpg,2460547536-274181.jpg,2.0,,,,A5JUTCI1XLTTD
336,31,,1.0,11.0,2874299429-139695.jpg,2901942443-69923.jpg,2.0,,,,A5JUTCI1XLTTD
337,32,,1.0,12.0,2238580740-186218.jpg,2964220333-71258.jpg,3.0,,,,A5JUTCI1XLTTD
338,33,,1.0,13.0,2238425482-313537.jpg,2238471391-240918.jpg,1.0,,,,A5JUTCI1XLTTD
339,34,,1.0,14.0,2901947423-70311.jpg,2860312398-62572.jpg,1.0,,,,A5JUTCI1XLTTD
340,35,,1.0,15.0,2898618444-142233.jpg,2898631359-142721.jpg,1.0,,,,A5JUTCI1XLTTD
341,36,,0.0,16.0,left.jpg,,,left,,,A5JUTCI1XLTTD
342,37,,1.0,17.0,2446759803-49249.jpg,2901951392-368654.jpg,3.0,,,,A5JUTCI1XLTTD
343,38,,1.0,18.0,2964223381-294447.jpg,2427874231-269884.jpg,1.0,,,,A5JUTCI1XLTTD
344,39,,1.0,19.0,2592379964-131054.jpg,2238479053-19457.jpg,2.0,,,,A5JUTCI1XLTTD
345,40,,1.0,20.0,2592380177-354629.jpg,2579432534-130704.jpg,2.0,,,,A5JUTCI1XLTTD
346,41,,1.0,21.0,2868474407-362883.jpg,2460547732-349518.jpg,1.0,,,,A5JUTCI1XLTTD
347,42,,1.0,22.0,2864910426-287204.jpg,2864902304-137862.jpg,1.0,,,,A5JUTCI1XLTTD
348,43,,1.0,23.0,2901939379-143480.jpg,2981229442-369621.jpg,2.0,,,,A5JUTCI1XLTTD
349,44,,1.0,24.0,2883268471-290842.jpg,2883268471-290843.jpg,1.0,,,,A5JUTCI1XLTTD
350,45,,1.0,25.0,2238560245-182099.jpg,2592380255-205553.jpg,1.0,,,,A5JUTCI1XLTTD
351,46,,1.0,26.0,2458347385-199723.jpg,2238480434-93829.jpg,1.0,,,,A5JUTCI1XLTTD
352,47,,1.0,27.0,2981241414-145842.jpg,2427873848-47312.jpg,3.0,,,,A5JUTCI1XLTTD
353,48,,1.0,28.0,2874301407-363895.jpg,2901947323-70275.jpg,3.0,,,,A5JUTCI1XLTTD
354,49,,1.0,29.0,2901939379-143479.jpg,2446758985-197610.jpg,2.0,,,,A5JUTCI1XLTTD
355,50,,1.0,30.0,2964216465-219242.jpg,2898619327-366362.jpg,3.0,,,,A5JUTCI1XLTTD
356,51,,0.0,31.0,left.jpg,,,left,,,A5JUTCI1XLTTD
357,52,,1.0,32.0,2460547508-51571.jpg,2452380166-273109.jpg,1.0,,,,A5JUTCI1XLTTD
358,53,,1.0,33.0,2874307433-66280.jpg,2981231422-369714.jpg,3.0,,,,A5JUTCI1XLTTD
359,54,,1.0,34.0,2238481928-19949.jpg,2981241419-145844.jpg,3.0,,,,A5JUTCI1XLTTD
360,55,,1.0,35.0,2238572663-35822.jpg,2238584894-113161.jpg,1.0,,,,A5JUTCI1XLTTD
361,56,,1.0,36.0,2964218374-144967.jpg,2981231446-294732.jpg,3.0,,,,A5JUTCI1XLTTD
362,57,,1.0,37.0,2901941401-292798.jpg,2898631468-68931.jpg,3.0,,,,A5JUTCI1XLTTD
363,58,,1.0,38.0,2452380832-348593.jpg,2238328478-11678.jpg,1.0,,,,A5JUTCI1XLTTD
364,59,,1.0,39.0,2898635427-367120.jpg,2964221435-219434.jpg,1.0,,,,A5JUTCI1XLTTD
365,60,,1.0,40.0,2964222378-71332.jpg,2981240427-370099.jpg,3.0,,,,A5JUTCI1XLTTD
366,61,,1.0,41.0,2446758985-197609.jpg,2898624426-291544.jpg,3.0,,,,A5JUTCI1XLTTD
367,62,,0.0,42.0,right.jpg,,,right,,,A5JUTCI1XLTTD
368,63,,1.0,43.0,2864907432-362042.jpg,2989726338-74002.jpg,3.0,,,,A5JUTCI1XLTTD
369,64,,1.0,44.0,2981231403-71642.jpg,2579432519-130698.jpg,1.0,,,,A5JUTCI1XLTTD
370,65,,1.0,45.0,2874302418-65979.jpg,2237857458-1325.jpg,1.0,,,,A5JUTCI1XLTTD
371,66,,1.0,46.0,2898617468-68274.jpg,2901943387-368037.jpg,2.0,,,,A5JUTCI1XLTTD
372,67,,1.0,47.0,2898618390-216538.jpg,2901939327-367670.jpg,2.0,,,,A5JUTCI1XLTTD
373,68,,1.0,48.0,2901952513-70703.jpg,2238481198-19821.jpg,3.0,,,,A5JUTCI1XLTTD
374,69,,0.0,49.0,right.jpg,,,right,,,A5JUTCI1XLTTD
375,70,,1.0,50.0,2460547467-349421.jpg,2452380166-273110.jpg,2.0,,,,A5JUTCI1XLTTD
376,71,,1.0,51.0,2868475410-213219.jpg,2868474407-362885.jpg,3.0,,,,A5JUTCI1XLTTD
377,72,,1.0,52.0,2238428357-313623.jpg,2238499057-320266.jpg,1.0,,,,A5JUTCI1XLTTD
378,73,,1.0,53.0,2883268412-365898.jpg,2238436252-314037.jpg,3.0,,,,A5JUTCI1XLTTD
379,74,,1.0,54.0,2592380177-354626.jpg,2238117096-228518.jpg,3.0,,,,A5JUTCI1XLTTD
380,75,,1.0,55.0,2883273443-68193.jpg,2460547508-51572.jpg,2.0,,,,A5JUTCI1XLTTD
381,76,,1.0,56.0,2986451363-73598.jpg,2984628361-295995.jpg,2.0,,,,A5JUTCI1XLTTD
382,77,,1.0,57.0,2874302418-65978.jpg,2238481198-19823.jpg,2.0,,,,A5JUTCI1XLTTD
383,78,,1.0,58.0,2575120738-55529.jpg,2238531493-28260.jpg,3.0,,,,A5JUTCI1XLTTD
384,79,,1.0,59.0,2898624426-291546.jpg,2964218432-369263.jpg,1.0,,,,A5JUTCI1XLTTD
385,80,,1.0,60.0,2898633421-291973.jpg,2575118671-277663.jpg,2.0,,,,A5JUTCI1XLTTD
386,81,,1.0,61.0,2898635428-69104.jpg,2898625336-291572.jpg,3.0,,,,A5JUTCI1XLTTD
387,82,,1.0,62.0,2883256307-365057.jpg,2864904453-63933.jpg,3.0,,,,A5JUTCI1XLTTD
388,83,,1.0,63.0,2898634397-367080.jpg,2901934408-69289.jpg,2.0,,,,A5JUTCI1XLTTD
389,84,,1.0,64.0,2238480677-317399.jpg,2238481630-168218.jpg,1.0,,,,A5JUTCI1XLTTD
390,20,,1.0,0.0,2874302418-65979.jpg,2238480648-19714.jpg,2.0,,,,A1LSSI3O205X7F
391,21,,1.0,1.0,2883268412-365898.jpg,2238436252-314037.jpg,3.0,,,,A1LSSI3O205X7F
392,22,,1.0,2.0,2898635428-69104.jpg,2446759803-49250.jpg,1.0,,,,A1LSSI3O205X7F
393,23,,1.0,3.0,2238481928-19949.jpg,2981241419-145844.jpg,3.0,,,,A1LSSI3O205X7F
394,24,,1.0,4.0,2238572663-35822.jpg,2238584894-113161.jpg,1.0,,,,A1LSSI3O205X7F
395,25,,1.0,5.0,2874303365-214262.jpg,2864911457-362260.jpg,3.0,,,,A1LSSI3O205X7F
396,26,,1.0,6.0,2964218374-144967.jpg,2964218374-144968.jpg,1.0,,,,A1LSSI3O205X7F
397,27,,0.0,7.0,left.jpg,,,left,,,A1LSSI3O205X7F
398,28,,1.0,8.0,2898618444-142233.jpg,2238555262-330312.jpg,2.0,,,,A1LSSI3O205X7F
399,29,,1.0,9.0,2898633421-291973.jpg,2512876023-52283.jpg,1.0,,,,A1LSSI3O205X7F
400,30,,1.0,10.0,2874302418-65978.jpg,2238481198-19823.jpg,2.0,,,,A1LSSI3O205X7F
401,31,,1.0,11.0,2452381505-199546.jpg,2994401319-148290.jpg,3.0,,,,A1LSSI3O205X7F
402,32,,1.0,12.0,2452380832-348593.jpg,2238481813-19930.jpg,2.0,,,,A1LSSI3O205X7F
403,33,,1.0,13.0,2981231403-71642.jpg,2579432519-130698.jpg,1.0,,,,A1LSSI3O205X7F
404,34,,1.0,14.0,2460547467-349421.jpg,2898631394-142727.jpg,1.0,,,,A1LSSI3O205X7F
405,35,,1.0,15.0,2874299429-139695.jpg,2883266388-67750.jpg,1.0,,,,A1LSSI3O205X7F
406,36,,1.0,16.0,2901939379-143480.jpg,2898632385-217139.jpg,3.0,,,,A1LSSI3O205X7F
407,37,,0.0,17.0,right.jpg,,,right,,,A1LSSI3O205X7F
408,38,,1.0,18.0,2460547467-349422.jpg,2898618440-216545.jpg,1.0,,,,A1LSSI3O205X7F
409,39,,1.0,19.0,2986451363-73598.jpg,2237857458-1324.jpg,1.0,,,,A1LSSI3O205X7F
410,40,,1.0,20.0,2981241414-145842.jpg,2238516618-25604.jpg,1.0,,,,A1LSSI3O205X7F
411,41,,1.0,21.0,2512875899-126682.jpg,2460547536-274179.jpg,1.0,,,,A1LSSI3O205X7F
412,42,,1.0,22.0,2868474407-362883.jpg,2981246400-220363.jpg,2.0,,,,A1LSSI3O205X7F
413,43,,1.0,23.0,2458347385-199723.jpg,2427874554-121863.jpg,2.0,,,,A1LSSI3O205X7F
414,44,,1.0,24.0,2864910426-287204.jpg,2883268412-365899.jpg,2.0,,,,A1LSSI3O205X7F
415,45,,1.0,25.0,2901952513-70703.jpg,2238481198-19821.jpg,3.0,,,,A1LSSI3O205X7F
416,46,,0.0,26.0,right.jpg,,,right,,,A1LSSI3O205X7F
417,47,,1.0,27.0,2883256307-365057.jpg,2864904453-63933.jpg,3.0,,,,A1LSSI3O205X7F
418,48,,1.0,28.0,2898634397-367080.jpg,2237944827-301472.jpg,1.0,,,,A1LSSI3O205X7F
419,49,,1.0,29.0,2883268471-290842.jpg,2883255450-215310.jpg,2.0,,,,A1LSSI3O205X7F
420,50,,1.0,30.0,2446759803-49249.jpg,2901951392-368654.jpg,3.0,,,,A1LSSI3O205X7F
421,51,,1.0,31.0,2964223381-294447.jpg,2901941438-69836.jpg,2.0,,,,A1LSSI3O205X7F
422,52,,1.0,32.0,2238425482-313537.jpg,2898633480-217190.jpg,3.0,,,,A1LSSI3O205X7F
423,53,,1.0,33.0,2460547508-51571.jpg,2901941438-69835.jpg,3.0,,,,A1LSSI3O205X7F
424,54,,1.0,34.0,2449442529-124445.jpg,2452380171-273112.jpg,1.0,,,,A1LSSI3O205X7F
425,55,,1.0,35.0,2883273443-68193.jpg,2460547508-51572.jpg,2.0,,,,A1LSSI3O205X7F
426,56,,1.0,36.0,2238481198-19822.jpg,2862691449-137104.jpg,1.0,,,,A1LSSI3O205X7F
427,57,,1.0,37.0,2238560245-182099.jpg,2874314526-289684.jpg,2.0,,,,A1LSSI3O205X7F
428,58,,1.0,38.0,2238480677-317399.jpg,2238481630-168218.jpg,1.0,,,,A1LSSI3O205X7F
429,59,,1.0,39.0,2964222378-71332.jpg,2981240424-145794.jpg,1.0,,,,A1LSSI3O205X7F
430,60,,1.0,40.0,2986451363-73599.jpg,2860302315-210704.jpg,2.0,,,,A1LSSI3O205X7F
431,61,,1.0,41.0,2874301407-363895.jpg,2901947323-70275.jpg,3.0,,,,A1LSSI3O205X7F
432,62,,1.0,42.0,2575120738-55529.jpg,2238531493-28260.jpg,3.0,,,,A1LSSI3O205X7F
433,63,,0.0,43.0,right.jpg,,,right,,,A1LSSI3O205X7F
434,64,,1.0,44.0,2898624426-291546.jpg,2981236443-71859.jpg,2.0,,,,A1LSSI3O205X7F
435,65,,1.0,45.0,2592380177-354626.jpg,2864901386-286797.jpg,2.0,,,,A1LSSI3O205X7F
436,66,,1.0,46.0,2901947423-70311.jpg,2238573447-333826.jpg,2.0,,,,A1LSSI3O205X7F
437,67,,0.0,47.0,right.jpg,,,right,,,A1LSSI3O205X7F
438,68,,1.0,48.0,2901939379-143479.jpg,2446758985-197610.jpg,2.0,,,,A1LSSI3O205X7F
439,69,,1.0,49.0,2964213381-294060.jpg,2964213381-294061.jpg,3.0,,,,A1LSSI3O205X7F
440,70,,1.0,50.0,2592379964-131054.jpg,2592380272-354673.jpg,3.0,,,,A1LSSI3O205X7F
441,71,,1.0,51.0,2592380177-354629.jpg,2512875587-350044.jpg,3.0,,,,A1LSSI3O205X7F
442,72,,1.0,52.0,2874299429-139694.jpg,2986447306-296584.jpg,1.0,,,,A1LSSI3O205X7F
443,73,,1.0,53.0,2898618390-216538.jpg,2237856148-989.jpg,1.0,,,,A1LSSI3O205X7F
444,74,,1.0,54.0,2868475410-213219.jpg,2238480803-19739.jpg,2.0,,,,A1LSSI3O205X7F
445,75,,1.0,55.0,2864907432-362042.jpg,2864901420-212147.jpg,1.0,,,,A1LSSI3O205X7F
446,76,,1.0,56.0,2449442529-124446.jpg,2460547536-274178.jpg,3.0,,,,A1LSSI3O205X7F
447,77,,1.0,57.0,2238580740-186218.jpg,2964220333-71258.jpg,3.0,,,,A1LSSI3O205X7F
448,78,,1.0,58.0,2898635427-367120.jpg,2898621427-366486.jpg,3.0,,,,A1LSSI3O205X7F
449,79,,1.0,59.0,2874307433-66280.jpg,2981246400-220365.jpg,2.0,,,,A1LSSI3O205X7F
450,80,,1.0,60.0,2898617468-68274.jpg,2901943387-368037.jpg,2.0,,,,A1LSSI3O205X7F
451,81,,1.0,61.0,2446758985-197609.jpg,2898624426-291544.jpg,3.0,,,,A1LSSI3O205X7F
452,82,,1.0,62.0,2901941401-292798.jpg,2898631468-68931.jpg,3.0,,,,A1LSSI3O205X7F
453,83,,1.0,63.0,2964216465-219242.jpg,2864900319-137787.jpg,2.0,,,,A1LSSI3O205X7F
454,84,,1.0,64.0,2238428357-313623.jpg,2238499057-320266.jpg,1.0,,,,A1LSSI3O205X7F
455,20,,1.0,0.0,2864907432-362042.jpg,2989726338-74002.jpg,3.0,,,,A17JUIY13I7RL8
456,21,,1.0,1.0,2874302418-65979.jpg,2238578544-111698.jpg,3.0,,,,A17JUIY13I7RL8
457,22,,1.0,2.0,2238560245-182099.jpg,2874314526-289684.jpg,2.0,,,,A17JUIY13I7RL8
458,23,,1.0,3.0,2898633421-291973.jpg,2238550049-105691.jpg,3.0,,,,A17JUIY13I7RL8
459,24,,1.0,4.0,2883256307-365057.jpg,2864904453-63933.jpg,3.0,,,,A17JUIY13I7RL8
460,25,,1.0,5.0,2512875899-126682.jpg,2460547536-274179.jpg,1.0,,,,A17JUIY13I7RL8
461,26,,1.0,6.0,2452380832-348593.jpg,2238481813-19930.jpg,2.0,,,,A17JUIY13I7RL8
462,27,,1.0,7.0,2446758985-197609.jpg,2864909447-362144.jpg,2.0,,,,A17JUIY13I7RL8
463,28,,1.0,8.0,2238480677-317399.jpg,2238573546-258454.jpg,2.0,,,,A17JUIY13I7RL8
464,29,,1.0,9.0,2592380177-354626.jpg,2238576792-334659.jpg,1.0,,,,A17JUIY13I7RL8
465,30,,1.0,10.0,2452381505-199546.jpg,2901938432-367627.jpg,1.0,,,,A17JUIY13I7RL8
466,31,,1.0,11.0,2883268412-365898.jpg,2238436252-314037.jpg,3.0,,,,A17JUIY13I7RL8
467,32,,1.0,12.0,2898635427-367120.jpg,2868479517-363220.jpg,2.0,,,,A17JUIY13I7RL8
468,33,,0.0,13.0,left.jpg,,,left,,,A17JUIY13I7RL8
469,34,,1.0,14.0,2460547467-349422.jpg,2864909447-362146.jpg,3.0,,,,A17JUIY13I7RL8
470,35,,1.0,15.0,2874299429-139695.jpg,2883266388-67750.jpg,1.0,,,,A17JUIY13I7RL8
471,36,,1.0,16.0,2446759803-49249.jpg,2446760601-272099.jpg,1.0,,,,A17JUIY13I7RL8
472,37,,1.0,17.0,2868474407-362883.jpg,2981246400-220363.jpg,2.0,,,,A17JUIY13I7RL8
473,38,,1.0,18.0,2864910426-287204.jpg,2883268412-365899.jpg,2.0,,,,A17JUIY13I7RL8
474,39,,1.0,19.0,2986451363-73598.jpg,2237857458-1324.jpg,1.0,,,,A17JUIY13I7RL8
475,40,,1.0,20.0,2874307433-66280.jpg,2984615358-72439.jpg,1.0,,,,A17JUIY13I7RL8
476,41,,0.0,21.0,right.jpg,,,right,,,A17JUIY13I7RL8
477,42,,1.0,22.0,2964213381-294060.jpg,2981244394-145974.jpg,1.0,,,,A17JUIY13I7RL8
478,43,,1.0,23.0,2981231403-71642.jpg,2874305405-214397.jpg,2.0,,,,A17JUIY13I7RL8
479,44,,1.0,24.0,2898617468-68274.jpg,2901943387-368037.jpg,2.0,,,,A17JUIY13I7RL8
480,45,,1.0,25.0,2449442529-124446.jpg,2446759803-49251.jpg,1.0,,,,A17JUIY13I7RL8
481,46,,1.0,26.0,2575120738-55529.jpg,2575120738-55528.jpg,2.0,,,,A17JUIY13I7RL8
482,47,,1.0,27.0,2868475410-213219.jpg,2868474407-362885.jpg,3.0,,,,A17JUIY13I7RL8
483,48,,1.0,28.0,2964223381-294447.jpg,2898628438-68785.jpg,3.0,,,,A17JUIY13I7RL8
484,49,,1.0,29.0,2238572663-35822.jpg,2238571930-184143.jpg,2.0,,,,A17JUIY13I7RL8
485,50,,0.0,30.0,right.jpg,,,right,,,A17JUIY13I7RL8
486,51,,1.0,31.0,2964222378-71332.jpg,2981240427-370099.jpg,3.0,,,,A17JUIY13I7RL8
487,52,,1.0,32.0,2964218374-144967.jpg,2964218374-144968.jpg,1.0,,,,A17JUIY13I7RL8
488,53,,1.0,33.0,2901952513-70703.jpg,2238481198-19821.jpg,3.0,,,,A17JUIY13I7RL8
489,54,,1.0,34.0,2460547508-51571.jpg,2981232437-369759.jpg,2.0,,,,A17JUIY13I7RL8
490,55,,1.0,35.0,2981241414-145842.jpg,2427873848-47312.jpg,3.0,,,,A17JUIY13I7RL8
491,56,,1.0,36.0,2898624426-291546.jpg,2981235446-294900.jpg,3.0,,,,A17JUIY13I7RL8
492,57,,1.0,37.0,2238580740-186218.jpg,2238550816-254000.jpg,1.0,,,,A17JUIY13I7RL8
493,58,,1.0,38.0,2238428357-313623.jpg,2238499057-320266.jpg,1.0,,,,A17JUIY13I7RL8
494,59,,1.0,39.0,2460547467-349421.jpg,2898631394-142727.jpg,1.0,,,,A17JUIY13I7RL8
495,60,,1.0,40.0,2592380177-354629.jpg,2579432534-130704.jpg,2.0,,,,A17JUIY13I7RL8
496,61,,1.0,41.0,2898634397-367080.jpg,2964217461-294238.jpg,3.0,,,,A17JUIY13I7RL8
497,62,,0.0,42.0,right.jpg,,,right,,,A17JUIY13I7RL8
498,63,,1.0,43.0,2883268471-290842.jpg,2883268471-290843.jpg,1.0,,,,A17JUIY13I7RL8
499,64,,1.0,44.0,2449442529-124445.jpg,2452380171-273112.jpg,1.0,,,,A17JUIY13I7RL8
500,65,,1.0,45.0,2874299429-139694.jpg,2981244403-72215.jpg,2.0,,,,A17JUIY13I7RL8
501,66,,1.0,46.0,2901939379-143479.jpg,2446758985-197610.jpg,2.0,,,,A17JUIY13I7RL8
502,67,,1.0,47.0,2874302418-65978.jpg,2964224310-219528.jpg,1.0,,,,A17JUIY13I7RL8
503,68,,0.0,48.0,right.jpg,,,right,,,A17JUIY13I7RL8
504,69,,1.0,49.0,2592379964-131054.jpg,2575963989-130576.jpg,1.0,,,,A17JUIY13I7RL8
505,70,,1.0,50.0,2964216465-219242.jpg,2898619327-366362.jpg,3.0,,,,A17JUIY13I7RL8
506,71,,1.0,51.0,2238481928-19949.jpg,2981241419-145844.jpg,3.0,,,,A17JUIY13I7RL8
507,72,,1.0,52.0,2901939379-143480.jpg,2981229442-369621.jpg,2.0,,,,A17JUIY13I7RL8
508,73,,1.0,53.0,2874303365-214262.jpg,2864911457-362260.jpg,3.0,,,,A17JUIY13I7RL8
509,74,,1.0,54.0,2901947423-70311.jpg,2238573447-333826.jpg,2.0,,,,A17JUIY13I7RL8
510,75,,1.0,55.0,2458347385-199723.jpg,2238480434-93829.jpg,1.0,,,,A17JUIY13I7RL8
511,76,,1.0,56.0,2883273443-68193.jpg,2460547508-51572.jpg,2.0,,,,A17JUIY13I7RL8
512,77,,1.0,57.0,2986451363-73599.jpg,2860302315-210704.jpg,2.0,,,,A17JUIY13I7RL8
513,78,,1.0,58.0,2874301407-363895.jpg,2901947323-70275.jpg,3.0,,,,A17JUIY13I7RL8
514,79,,1.0,59.0,2898635428-69104.jpg,2901943411-292945.jpg,2.0,,,,A17JUIY13I7RL8
515,80,,1.0,60.0,2898618444-142233.jpg,2898618444-142232.jpg,3.0,,,,A17JUIY13I7RL8
516,81,,1.0,61.0,2898618390-216538.jpg,2237856148-989.jpg,1.0,,,,A17JUIY13I7RL8
517,82,,1.0,62.0,2238481198-19822.jpg,2238480803-19737.jpg,3.0,,,,A17JUIY13I7RL8
518,83,,1.0,63.0,2901941401-292798.jpg,2898631468-68931.jpg,3.0,,,,A17JUIY13I7RL8
519,84,,1.0,64.0,2238425482-313537.jpg,2238471391-240918.jpg,1.0,,,,A17JUIY13I7RL8
520,20,,1.0,0.0,2868474407-362883.jpg,2901948383-70363.jpg,3.0,,,,A344BXT88DM2ZH
521,21,,1.0,1.0,2238428357-313623.jpg,2986408339-146952.jpg,3.0,,,,A344BXT88DM2ZH
522,22,,1.0,2.0,2986451363-73599.jpg,2898626385-216899.jpg,1.0,,,,A344BXT88DM2ZH
523,23,,1.0,3.0,2898635428-69104.jpg,2901943411-292945.jpg,2.0,,,,A344BXT88DM2ZH
524,24,,1.0,4.0,2901952513-70703.jpg,2868469411-287540.jpg,2.0,,,,A344BXT88DM2ZH
525,25,,1.0,5.0,2512875899-126682.jpg,2460547536-274179.jpg,1.0,,,,A344BXT88DM2ZH
526,26,,1.0,6.0,2449442529-124445.jpg,2986408373-73286.jpg,2.0,,,,A344BXT88DM2ZH
527,27,,1.0,7.0,2874302418-65978.jpg,2898633321-291943.jpg,3.0,,,,A344BXT88DM2ZH
528,28,,1.0,8.0,2458347385-199723.jpg,2238480434-93829.jpg,1.0,,,,A344BXT88DM2ZH
529,29,,1.0,9.0,2238572663-35822.jpg,2864903351-286874.jpg,3.0,,,,A344BXT88DM2ZH
530,30,,1.0,10.0,2460547508-51571.jpg,2452380166-273109.jpg,1.0,,,,A344BXT88DM2ZH
531,31,,1.0,11.0,2460547467-349422.jpg,2868487415-213924.jpg,2.0,,,,A344BXT88DM2ZH
532,32,,1.0,12.0,2868475410-213219.jpg,2868474407-362885.jpg,3.0,,,,A344BXT88DM2ZH
533,33,,1.0,13.0,2883268471-290842.jpg,2883255450-215310.jpg,2.0,,,,A344BXT88DM2ZH
534,34,,0.0,14.0,right.jpg,,,right,,,A344BXT88DM2ZH
535,35,,1.0,15.0,2883268412-365898.jpg,2984615361-295510.jpg,2.0,,,,A344BXT88DM2ZH
536,36,,1.0,16.0,2874303365-214262.jpg,2274829821-263682.jpg,1.0,,,,A344BXT88DM2ZH
537,37,,0.0,17.0,left.jpg,,,left,,,A344BXT88DM2ZH
538,38,,1.0,18.0,2238560245-182099.jpg,2874314526-289684.jpg,2.0,,,,A344BXT88DM2ZH
539,39,,1.0,19.0,2901941401-292798.jpg,2898618327-366317.jpg,1.0,,,,A344BXT88DM2ZH
540,40,,1.0,20.0,2986451363-73598.jpg,2901942443-69925.jpg,3.0,,,,A344BXT88DM2ZH
541,41,,1.0,21.0,2981231403-71642.jpg,2579432519-130698.jpg,1.0,,,,A344BXT88DM2ZH
542,42,,1.0,22.0,2452381505-199546.jpg,2898632385-217138.jpg,2.0,,,,A344BXT88DM2ZH
543,43,,1.0,23.0,2964218374-144967.jpg,2981231446-294732.jpg,3.0,,,,A344BXT88DM2ZH
544,44,,1.0,24.0,2883256307-365057.jpg,2864904453-63933.jpg,3.0,,,,A344BXT88DM2ZH
545,45,,1.0,25.0,2874299429-139695.jpg,2901942443-69923.jpg,2.0,,,,A344BXT88DM2ZH
546,46,,1.0,26.0,2901939379-143479.jpg,2460547467-349423.jpg,1.0,,,,A344BXT88DM2ZH
547,47,,1.0,27.0,2238580740-186218.jpg,2238550816-254000.jpg,1.0,,,,A344BXT88DM2ZH
548,48,,1.0,28.0,2964223381-294447.jpg,2898628438-68785.jpg,3.0,,,,A344BXT88DM2ZH
549,49,,1.0,29.0,2874299429-139694.jpg,2981244403-72215.jpg,2.0,,,,A344BXT88DM2ZH
550,50,,0.0,30.0,left.jpg,,,left,,,A344BXT88DM2ZH
551,51,,1.0,31.0,2898618390-216538.jpg,2901939327-367670.jpg,2.0,,,,A344BXT88DM2ZH
552,52,,1.0,32.0,2592379964-131054.jpg,2238479053-19457.jpg,2.0,,,,A344BXT88DM2ZH
553,53,,1.0,33.0,2592380177-354629.jpg,2512875587-350044.jpg,3.0,,,,A344BXT88DM2ZH
554,54,,1.0,34.0,2898618444-142233.jpg,2898618444-142232.jpg,3.0,,,,A344BXT88DM2ZH
555,55,,1.0,35.0,2446759803-49249.jpg,2446760601-272099.jpg,1.0,,,,A344BXT88DM2ZH
556,56,,1.0,36.0,2898624426-291546.jpg,2981236443-71859.jpg,2.0,,,,A344BXT88DM2ZH
557,57,,0.0,37.0,right.jpg,,,right,,,A344BXT88DM2ZH
558,58,,1.0,38.0,2238481198-19822.jpg,2901946436-293242.jpg,2.0,,,,A344BXT88DM2ZH
559,59,,1.0,39.0,2883273443-68193.jpg,2460547508-51572.jpg,2.0,,,,A344BXT88DM2ZH
560,60,,1.0,40.0,2460547467-349421.jpg,2898631394-142727.jpg,1.0,,,,A344BXT88DM2ZH
561,61,,1.0,41.0,2864910426-287204.jpg,2864902304-137862.jpg,1.0,,,,A344BXT88DM2ZH
562,62,,1.0,42.0,2575120738-55529.jpg,2575120738-55528.jpg,2.0,,,,A344BXT88DM2ZH
563,63,,1.0,43.0,2964216465-219242.jpg,2238544191-252422.jpg,1.0,,,,A344BXT88DM2ZH
564,64,,1.0,44.0,2964213381-294060.jpg,2981244394-145974.jpg,1.0,,,,A344BXT88DM2ZH
565,65,,1.0,45.0,2864907432-362042.jpg,2864901420-212147.jpg,1.0,,,,A344BXT88DM2ZH
566,66,,1.0,46.0,2981241414-145842.jpg,2427873848-47312.jpg,3.0,,,,A344BXT88DM2ZH
567,67,,1.0,47.0,2898617468-68274.jpg,2901943387-368037.jpg,2.0,,,,A344BXT88DM2ZH
568,68,,1.0,48.0,2238480677-317399.jpg,2238480278-19661.jpg,3.0,,,,A344BXT88DM2ZH
569,69,,1.0,49.0,2898633421-291973.jpg,2512876023-52283.jpg,1.0,,,,A344BXT88DM2ZH
570,70,,1.0,50.0,2238481928-19949.jpg,2864900357-361688.jpg,2.0,,,,A344BXT88DM2ZH
571,71,,0.0,51.0,right.jpg,,,right,,,A344BXT88DM2ZH
572,72,,1.0,52.0,2964222378-71332.jpg,2981240427-370099.jpg,3.0,,,,A344BXT88DM2ZH
573,73,,1.0,53.0,2898634397-367080.jpg,2964217461-294238.jpg,3.0,,,,A344BXT88DM2ZH
574,74,,1.0,54.0,2874301407-363895.jpg,2901947323-70275.jpg,3.0,,,,A344BXT88DM2ZH
575,75,,1.0,55.0,2898635427-367120.jpg,2868479517-363220.jpg,2.0,,,,A344BXT88DM2ZH
576,76,,1.0,56.0,2452380832-348593.jpg,2237858942-299356.jpg,3.0,,,,A344BXT88DM2ZH
577,77,,1.0,57.0,2592380177-354626.jpg,2238576792-334659.jpg,1.0,,,,A344BXT88DM2ZH
578,78,,1.0,58.0,2901939379-143480.jpg,2898632385-217139.jpg,3.0,,,,A344BXT88DM2ZH
579,79,,1.0,59.0,2874307433-66280.jpg,2984615358-72439.jpg,1.0,,,,A344BXT88DM2ZH
580,80,,1.0,60.0,2874302418-65979.jpg,2237857458-1325.jpg,1.0,,,,A344BXT88DM2ZH
581,81,,1.0,61.0,2449442529-124446.jpg,2460547536-274181.jpg,2.0,,,,A344BXT88DM2ZH
582,82,,1.0,62.0,2446758985-197609.jpg,2898624426-291544.jpg,3.0,,,,A344BXT88DM2ZH
583,83,,1.0,63.0,2901947423-70311.jpg,2238577590-185467.jpg,3.0,,,,A344BXT88DM2ZH
584,84,,1.0,64.0,2238425482-313537.jpg,2238471391-240918.jpg,1.0,,,,A344BXT88DM2ZH
585,20,,1.0,0.0,2874302418-65979.jpg,2238480648-19714.jpg,2.0,,,,A3E0IFFHYQPLFE
586,21,,1.0,1.0,2446758985-197609.jpg,2981240424-145795.jpg,1.0,,,,A3E0IFFHYQPLFE
587,22,,1.0,2.0,2898624426-291546.jpg,2964218432-369263.jpg,1.0,,,,A3E0IFFHYQPLFE
588,23,,1.0,3.0,2901941401-292798.jpg,2898618327-366317.jpg,1.0,,,,A3E0IFFHYQPLFE
589,24,,1.0,4.0,2901939379-143480.jpg,2898632385-217139.jpg,3.0,,,,A3E0IFFHYQPLFE
590,25,,1.0,5.0,2868475410-213219.jpg,2901946465-218350.jpg,1.0,,,,A3E0IFFHYQPLFE
591,26,,1.0,6.0,2460547467-349422.jpg,2868487415-213924.jpg,2.0,,,,A3E0IFFHYQPLFE
592,27,,1.0,7.0,2458347385-199723.jpg,2427874554-121863.jpg,2.0,,,,A3E0IFFHYQPLFE
593,28,,1.0,8.0,2874302418-65978.jpg,2898633321-291943.jpg,3.0,,,,A3E0IFFHYQPLFE
594,29,,1.0,9.0,2898618444-142233.jpg,2898631359-142721.jpg,1.0,,,,A3E0IFFHYQPLFE
595,30,,1.0,10.0,2901939379-143479.jpg,2460547467-349423.jpg,1.0,,,,A3E0IFFHYQPLFE
596,31,,1.0,11.0,2898634397-367080.jpg,2901934408-69289.jpg,2.0,,,,A3E0IFFHYQPLFE
597,32,,1.0,12.0,2238572663-35822.jpg,2238584894-113161.jpg,1.0,,,,A3E0IFFHYQPLFE
598,33,,1.0,13.0,2238428357-313623.jpg,2238499057-320266.jpg,1.0,,,,A3E0IFFHYQPLFE
599,34,right,1.0,14.0,right.jpg,,,right,0.1728,,A3E0IFFHYQPLFE
600,35,,1.0,15.0,2446759803-49249.jpg,2446760601-272099.jpg,1.0,,,,A3E0IFFHYQPLFE
601,36,,1.0,16.0,2864907432-362042.jpg,2864901420-212147.jpg,1.0,,,,A3E0IFFHYQPLFE
602,37,,1.0,17.0,2449442529-124445.jpg,2986408373-73286.jpg,2.0,,,,A3E0IFFHYQPLFE
603,38,,1.0,18.0,2592379964-131054.jpg,2575963989-130576.jpg,1.0,,,,A3E0IFFHYQPLFE
604,39,,1.0,19.0,2460547467-349421.jpg,2452380166-273110.jpg,2.0,,,,A3E0IFFHYQPLFE
605,40,,1.0,20.0,2592380177-354626.jpg,2238576792-334659.jpg,1.0,,,,A3E0IFFHYQPLFE
606,41,,1.0,21.0,2981241414-145842.jpg,2427873848-47312.jpg,3.0,,,,A3E0IFFHYQPLFE
607,42,,0.0,22.0,right.jpg,,,right,,,A3E0IFFHYQPLFE
608,43,,1.0,23.0,2452381505-199546.jpg,2994401319-148290.jpg,3.0,,,,A3E0IFFHYQPLFE
609,44,,1.0,24.0,2238480677-317399.jpg,2238481630-168218.jpg,1.0,,,,A3E0IFFHYQPLFE
610,45,,1.0,25.0,2874307433-66280.jpg,2981246400-220365.jpg,2.0,,,,A3E0IFFHYQPLFE
611,46,,1.0,26.0,2964218374-144967.jpg,2446759306-271734.jpg,2.0,,,,A3E0IFFHYQPLFE
612,47,,1.0,27.0,2898635428-69104.jpg,2446759803-49250.jpg,1.0,,,,A3E0IFFHYQPLFE
613,48,left,1.0,28.0,left.jpg,,,left,0.0893,,A3E0IFFHYQPLFE
614,49,,1.0,29.0,2883268471-290842.jpg,2883268471-290843.jpg,1.0,,,,A3E0IFFHYQPLFE
615,50,,1.0,30.0,2883256307-365057.jpg,2864904453-63933.jpg,3.0,,,,A3E0IFFHYQPLFE
616,51,,1.0,31.0,2964216465-219242.jpg,2864900319-137787.jpg,2.0,,,,A3E0IFFHYQPLFE
617,52,,1.0,32.0,2964223381-294447.jpg,2901941438-69836.jpg,2.0,,,,A3E0IFFHYQPLFE
618,53,,1.0,33.0,2874299429-139694.jpg,2981244403-72215.jpg,2.0,,,,A3E0IFFHYQPLFE
619,54,,1.0,34.0,2898633421-291973.jpg,2575118671-277663.jpg,2.0,,,,A3E0IFFHYQPLFE
620,55,,1.0,35.0,2981231403-71642.jpg,2874305405-214397.jpg,2.0,,,,A3E0IFFHYQPLFE
621,56,,1.0,36.0,2986451363-73598.jpg,2984628361-295995.jpg,2.0,,,,A3E0IFFHYQPLFE
622,57,,1.0,37.0,2238481198-19822.jpg,2862691449-137104.jpg,1.0,,,,A3E0IFFHYQPLFE
623,58,,1.0,38.0,2898618390-216538.jpg,2237856148-989.jpg,1.0,,,,A3E0IFFHYQPLFE
624,59,,1.0,39.0,2868474407-362883.jpg,2901948383-70363.jpg,3.0,,,,A3E0IFFHYQPLFE
625,60,,1.0,40.0,2874299429-139695.jpg,2901942443-69923.jpg,2.0,,,,A3E0IFFHYQPLFE
626,61,,1.0,41.0,2986451363-73599.jpg,2898626385-216899.jpg,1.0,,,,A3E0IFFHYQPLFE
627,62,,1.0,42.0,2512875899-126682.jpg,2460547536-274179.jpg,1.0,,,,A3E0IFFHYQPLFE
628,63,right,1.0,43.0,right.jpg,,,right,0.091,,A3E0IFFHYQPLFE
629,64,,1.0,44.0,2238425482-313537.jpg,2238436322-314047.jpg,2.0,,,,A3E0IFFHYQPLFE
630,65,,1.0,45.0,2238580740-186218.jpg,2238521193-26285.jpg,2.0,,,,A3E0IFFHYQPLFE
631,66,,1.0,46.0,2592380177-354629.jpg,2512875587-350044.jpg,3.0,,,,A3E0IFFHYQPLFE
632,67,,1.0,47.0,2874301407-363895.jpg,2446761374-124213.jpg,1.0,,,,A3E0IFFHYQPLFE
633,68,,1.0,48.0,2901947423-70311.jpg,2238573447-333826.jpg,2.0,,,,A3E0IFFHYQPLFE
634,69,,1.0,49.0,2460547508-51571.jpg,2901941438-69835.jpg,3.0,,,,A3E0IFFHYQPLFE
635,70,,1.0,50.0,2452380832-348593.jpg,2237858942-299356.jpg,3.0,,,,A3E0IFFHYQPLFE
636,71,,1.0,51.0,2898635427-367120.jpg,2898621427-366486.jpg,3.0,,,,A3E0IFFHYQPLFE
637,72,,1.0,52.0,2238560245-182099.jpg,2238480980-168129.jpg,3.0,,,,A3E0IFFHYQPLFE
638,73,,1.0,53.0,2883268412-365898.jpg,2238436252-314037.jpg,3.0,,,,A3E0IFFHYQPLFE
639,74,right,1.0,54.0,right.jpg,,,right,0.0069,,A3E0IFFHYQPLFE
640,75,,1.0,55.0,2898617468-68274.jpg,2964207374-144577.jpg,3.0,,,,A3E0IFFHYQPLFE
641,76,,1.0,56.0,2964213381-294060.jpg,2964213381-294061.jpg,3.0,,,,A3E0IFFHYQPLFE
642,77,,1.0,57.0,2864910426-287204.jpg,2901939433-69672.jpg,3.0,,,,A3E0IFFHYQPLFE
643,78,,1.0,58.0,2901952513-70703.jpg,2868469411-287540.jpg,2.0,,,,A3E0IFFHYQPLFE
644,79,,1.0,59.0,2964222378-71332.jpg,2901933382-367209.jpg,2.0,,,,A3E0IFFHYQPLFE
645,80,,1.0,60.0,2883273443-68193.jpg,2898627427-366763.jpg,3.0,,,,A3E0IFFHYQPLFE
646,81,,1.0,61.0,2449442529-124446.jpg,2460547536-274178.jpg,3.0,,,,A3E0IFFHYQPLFE
647,82,,1.0,62.0,2238481928-19949.jpg,2981241419-145844.jpg,3.0,,,,A3E0IFFHYQPLFE
648,83,,1.0,63.0,2874303365-214262.jpg,2864911457-362260.jpg,3.0,,,,A3E0IFFHYQPLFE
649,84,,1.0,64.0,2575120738-55529.jpg,2238531493-28260.jpg,3.0,,,,A3E0IFFHYQPLFE
650,20,,1.0,0.0,2460547467-349422.jpg,2898618440-216545.jpg,1.0,,,,A3JQOR9SGS3YFS
651,21,,1.0,1.0,2864907432-362042.jpg,2864901420-212147.jpg,1.0,,,,A3JQOR9SGS3YFS
652,22,,1.0,2.0,2592380177-354629.jpg,2898633421-291974.jpg,1.0,,,,A3JQOR9SGS3YFS
653,23,,1.0,3.0,2874302418-65978.jpg,2898633321-291943.jpg,3.0,,,,A3JQOR9SGS3YFS
654,24,,1.0,4.0,2898635428-69104.jpg,2901943411-292945.jpg,2.0,,,,A3JQOR9SGS3YFS
655,25,,1.0,5.0,2874299429-139695.jpg,2901942443-69923.jpg,2.0,,,,A3JQOR9SGS3YFS
656,26,,1.0,6.0,2901952513-70703.jpg,2238481198-19821.jpg,3.0,,,,A3JQOR9SGS3YFS
657,27,,1.0,7.0,2986451363-73599.jpg,2860302315-210704.jpg,2.0,,,,A3JQOR9SGS3YFS
658,28,,1.0,8.0,2868475410-213219.jpg,2901946465-218350.jpg,1.0,,,,A3JQOR9SGS3YFS
659,29,,0.0,9.0,right.jpg,,,right,,,A3JQOR9SGS3YFS
660,30,,1.0,10.0,2449442529-124446.jpg,2446759803-49251.jpg,1.0,,,,A3JQOR9SGS3YFS
661,31,,1.0,11.0,2874299429-139694.jpg,2883266367-365742.jpg,3.0,,,,A3JQOR9SGS3YFS
662,32,,1.0,12.0,2901941401-292798.jpg,2898618327-366317.jpg,1.0,,,,A3JQOR9SGS3YFS
663,33,,1.0,13.0,2901939379-143480.jpg,2898632385-217139.jpg,3.0,,,,A3JQOR9SGS3YFS
664,34,,1.0,14.0,2874303365-214262.jpg,2238563377-332054.jpg,2.0,,,,A3JQOR9SGS3YFS
665,35,,1.0,15.0,2898617468-68274.jpg,2901946439-144040.jpg,1.0,,,,A3JQOR9SGS3YFS
666,36,,1.0,16.0,2575120738-55529.jpg,2575120738-55528.jpg,2.0,,,,A3JQOR9SGS3YFS
667,37,,1.0,17.0,2981241414-145842.jpg,2427873848-47312.jpg,3.0,,,,A3JQOR9SGS3YFS
668,38,,1.0,18.0,2238572663-35822.jpg,2864903351-286874.jpg,3.0,,,,A3JQOR9SGS3YFS
669,39,,1.0,19.0,2458347385-199723.jpg,2238480434-93829.jpg,1.0,,,,A3JQOR9SGS3YFS
670,40,,1.0,20.0,2901947423-70311.jpg,2238577590-185467.jpg,3.0,,,,A3JQOR9SGS3YFS
671,41,,0.0,21.0,left.jpg,,,left,,,A3JQOR9SGS3YFS
672,42,,1.0,22.0,2460547467-349421.jpg,2981235446-294901.jpg,3.0,,,,A3JQOR9SGS3YFS
673,43,,1.0,23.0,2898634397-367080.jpg,2237944827-301472.jpg,1.0,,,,A3JQOR9SGS3YFS
674,44,,1.0,24.0,2238480677-317399.jpg,2238573546-258454.jpg,2.0,,,,A3JQOR9SGS3YFS
675,45,,1.0,25.0,2238481198-19822.jpg,2862691449-137104.jpg,1.0,,,,A3JQOR9SGS3YFS
676,46,,1.0,26.0,2883268412-365898.jpg,2238436252-314037.jpg,3.0,,,,A3JQOR9SGS3YFS
677,47,,1.0,27.0,2898618444-142233.jpg,2898631359-142721.jpg,1.0,,,,A3JQOR9SGS3YFS
678,48,,1.0,28.0,2883256307-365057.jpg,2864904453-63933.jpg,3.0,,,,A3JQOR9SGS3YFS
679,49,,1.0,29.0,2592380177-354626.jpg,2864901386-286797.jpg,2.0,,,,A3JQOR9SGS3YFS
680,50,,0.0,30.0,left.jpg,,,left,,,A3JQOR9SGS3YFS
681,51,,1.0,31.0,2874302418-65979.jpg,2238578544-111698.jpg,3.0,,,,A3JQOR9SGS3YFS
682,52,,1.0,32.0,2898633421-291973.jpg,2238550049-105691.jpg,3.0,,,,A3JQOR9SGS3YFS
683,53,,1.0,33.0,2446759803-49249.jpg,2446760601-272099.jpg,1.0,,,,A3JQOR9SGS3YFS
684,54,,1.0,34.0,2868474407-362883.jpg,2981246400-220363.jpg,2.0,,,,A3JQOR9SGS3YFS
685,55,,1.0,35.0,2874301407-363895.jpg,2446761374-124213.jpg,1.0,,,,A3JQOR9SGS3YFS
686,56,,1.0,36.0,2898635427-367120.jpg,2964221435-219434.jpg,1.0,,,,A3JQOR9SGS3YFS
687,57,,1.0,37.0,2874307433-66280.jpg,2984615358-72439.jpg,1.0,,,,A3JQOR9SGS3YFS
688,58,,1.0,38.0,2238428357-313623.jpg,2984615361-295509.jpg,2.0,,,,A3JQOR9SGS3YFS
689,59,,1.0,39.0,2452381505-199546.jpg,2994401319-148290.jpg,3.0,,,,A3JQOR9SGS3YFS
690,60,,1.0,40.0,2986451363-73598.jpg,2984628361-295995.jpg,2.0,,,,A3JQOR9SGS3YFS
691,61,,1.0,41.0,2446758985-197609.jpg,2864909447-362144.jpg,2.0,,,,A3JQOR9SGS3YFS
692,62,,1.0,42.0,2901939379-143479.jpg,2446758985-197610.jpg,2.0,,,,A3JQOR9SGS3YFS
693,63,,1.0,43.0,2864910426-287204.jpg,2864902304-137862.jpg,1.0,,,,A3JQOR9SGS3YFS
694,64,,0.0,44.0,left.jpg,,,left,,,A3JQOR9SGS3YFS
695,65,,1.0,45.0,2452380832-348593.jpg,2237858942-299356.jpg,3.0,,,,A3JQOR9SGS3YFS
696,66,,1.0,46.0,2964216465-219242.jpg,2898619327-366362.jpg,3.0,,,,A3JQOR9SGS3YFS
697,67,,1.0,47.0,2238481928-19949.jpg,2981241419-145844.jpg,3.0,,,,A3JQOR9SGS3YFS
698,68,,1.0,48.0,2898624426-291546.jpg,2981236443-71859.jpg,2.0,,,,A3JQOR9SGS3YFS
699,69,,1.0,49.0,2964213381-294060.jpg,2458348012-349114.jpg,2.0,,,,A3JQOR9SGS3YFS
700,70,,1.0,50.0,2238580740-186218.jpg,2238521193-26285.jpg,2.0,,,,A3JQOR9SGS3YFS
701,71,,1.0,51.0,2964218374-144967.jpg,2964218374-144968.jpg,1.0,,,,A3JQOR9SGS3YFS
702,72,,0.0,52.0,right.jpg,,,right,,,A3JQOR9SGS3YFS
703,73,,1.0,53.0,2964222378-71332.jpg,2901933382-367209.jpg,2.0,,,,A3JQOR9SGS3YFS
704,74,,1.0,54.0,2592379964-131054.jpg,2592380272-354673.jpg,3.0,,,,A3JQOR9SGS3YFS
705,75,,1.0,55.0,2883273443-68193.jpg,2460547508-51572.jpg,2.0,,,,A3JQOR9SGS3YFS
706,76,,1.0,56.0,2883268471-290842.jpg,2883255450-215310.jpg,2.0,,,,A3JQOR9SGS3YFS
707,77,,1.0,57.0,2512875899-126682.jpg,2460547536-274179.jpg,1.0,,,,A3JQOR9SGS3YFS
708,78,,1.0,58.0,2981231403-71642.jpg,2579432519-130698.jpg,1.0,,,,A3JQOR9SGS3YFS
709,79,,1.0,59.0,2964223381-294447.jpg,2898628438-68785.jpg,3.0,,,,A3JQOR9SGS3YFS
710,80,,1.0,60.0,2238560245-182099.jpg,2874314526-289684.jpg,2.0,,,,A3JQOR9SGS3YFS
711,81,,1.0,61.0,2460547508-51571.jpg,2981232437-369759.jpg,2.0,,,,A3JQOR9SGS3YFS
712,82,,1.0,62.0,2238425482-313537.jpg,2238471391-240918.jpg,1.0,,,,A3JQOR9SGS3YFS
713,83,,1.0,63.0,2449442529-124445.jpg,2898632385-217137.jpg,3.0,,,,A3JQOR9SGS3YFS
714,84,,1.0,64.0,2898618390-216538.jpg,2575120609-129862.jpg,3.0,,,,A3JQOR9SGS3YFS
715,20,,1.0,0.0,2238428357-313623.jpg,2984615361-295509.jpg,2.0,,,,A1KR5B9ABZ7U4O
716,21,,1.0,1.0,2898617468-68274.jpg,2964207374-144577.jpg,3.0,,,,A1KR5B9ABZ7U4O
717,22,,1.0,2.0,2874301407-363895.jpg,2901947323-70275.jpg,3.0,,,,A1KR5B9ABZ7U4O
718,23,,1.0,3.0,2964216465-219242.jpg,2898619327-366362.jpg,3.0,,,,A1KR5B9ABZ7U4O
719,24,,1.0,4.0,2981241414-145842.jpg,2874301404-139813.jpg,2.0,,,,A1KR5B9ABZ7U4O
720,25,,1.0,5.0,2512875899-126682.jpg,2592380177-354628.jpg,2.0,,,,A1KR5B9ABZ7U4O
721,26,,1.0,6.0,2868475410-213219.jpg,2901946465-218350.jpg,1.0,,,,A1KR5B9ABZ7U4O
722,27,,1.0,7.0,2452380832-348593.jpg,2238328478-11678.jpg,1.0,,,,A1KR5B9ABZ7U4O
723,28,left,0.0,8.0,right.jpg,,,right,0.01,,A1KR5B9ABZ7U4O
724,29,,1.0,9.0,2874299429-139694.jpg,2981244403-72215.jpg,2.0,,,,A1KR5B9ABZ7U4O
725,30,,1.0,10.0,2446758985-197609.jpg,2864909447-362144.jpg,2.0,,,,A1KR5B9ABZ7U4O
726,31,,1.0,11.0,2901941401-292798.jpg,2898631468-68931.jpg,3.0,,,,A1KR5B9ABZ7U4O
727,32,,1.0,12.0,2575120738-55529.jpg,2238531493-28260.jpg,3.0,,,,A1KR5B9ABZ7U4O
728,33,,1.0,13.0,2868474407-362883.jpg,2981246400-220363.jpg,2.0,,,,A1KR5B9ABZ7U4O
729,34,,1.0,14.0,2964222378-71332.jpg,2981240424-145794.jpg,1.0,,,,A1KR5B9ABZ7U4O
730,35,,1.0,15.0,2883273443-68193.jpg,2898627427-366763.jpg,3.0,,,,A1KR5B9ABZ7U4O
731,36,,1.0,16.0,2238425482-313537.jpg,2238471391-240918.jpg,1.0,,,,A1KR5B9ABZ7U4O
732,37,,1.0,17.0,2986451363-73598.jpg,2901942443-69925.jpg,3.0,,,,A1KR5B9ABZ7U4O
733,38,,1.0,18.0,2874299429-139695.jpg,2901942443-69923.jpg,2.0,,,,A1KR5B9ABZ7U4O
734,39,,1.0,19.0,2898633421-291973.jpg,2512876023-52283.jpg,1.0,,,,A1KR5B9ABZ7U4O
735,40,,1.0,20.0,2460547508-51571.jpg,2901941438-69835.jpg,3.0,,,,A1KR5B9ABZ7U4O
736,41,left,1.0,21.0,left.jpg,,,left,0.5677,,A1KR5B9ABZ7U4O
737,42,,1.0,22.0,2874302418-65978.jpg,2964224310-219528.jpg,1.0,,,,A1KR5B9ABZ7U4O
738,43,,1.0,23.0,2964223381-294447.jpg,2427874231-269884.jpg,1.0,,,,A1KR5B9ABZ7U4O
739,44,,1.0,24.0,2898635428-69104.jpg,2446759803-49250.jpg,1.0,,,,A1KR5B9ABZ7U4O
740,45,,1.0,25.0,2592380177-354626.jpg,2864901386-286797.jpg,2.0,,,,A1KR5B9ABZ7U4O
741,46,,1.0,26.0,2238481198-19822.jpg,2238480803-19737.jpg,3.0,,,,A1KR5B9ABZ7U4O
742,47,,1.0,27.0,2964213381-294060.jpg,2458348012-349114.jpg,2.0,,,,A1KR5B9ABZ7U4O
743,48,,1.0,28.0,2238580740-186218.jpg,2964220333-71258.jpg,3.0,,,,A1KR5B9ABZ7U4O
744,49,,1.0,29.0,2964218374-144967.jpg,2964218374-144968.jpg,1.0,,,,A1KR5B9ABZ7U4O
745,50,,1.0,30.0,2981231403-71642.jpg,2579432519-130698.jpg,1.0,,,,A1KR5B9ABZ7U4O
746,51,,1.0,31.0,2901939379-143480.jpg,2901942428-69919.jpg,1.0,,,,A1KR5B9ABZ7U4O
747,52,left,0.0,32.0,right.jpg,,,right,0.0083,,A1KR5B9ABZ7U4O
748,53,,1.0,33.0,2449442529-124445.jpg,2452380171-273112.jpg,1.0,,,,A1KR5B9ABZ7U4O
749,54,,1.0,34.0,2460547467-349422.jpg,2864909447-362146.jpg,3.0,,,,A1KR5B9ABZ7U4O
750,55,,1.0,35.0,2901952513-70703.jpg,2238481198-19821.jpg,3.0,,,,A1KR5B9ABZ7U4O
751,56,,1.0,36.0,2446759803-49249.jpg,2901951392-368654.jpg,3.0,,,,A1KR5B9ABZ7U4O
752,57,,1.0,37.0,2864910426-287204.jpg,2883268412-365899.jpg,2.0,,,,A1KR5B9ABZ7U4O
753,58,,1.0,38.0,2901947423-70311.jpg,2238577590-185467.jpg,3.0,,,,A1KR5B9ABZ7U4O
754,59,,1.0,39.0,2883256307-365057.jpg,2611628310-206388.jpg,1.0,,,,A1KR5B9ABZ7U4O
755,60,,1.0,40.0,2238560245-182099.jpg,2874314526-289684.jpg,2.0,,,,A1KR5B9ABZ7U4O
756,61,,1.0,41.0,2592380177-354629.jpg,2579432534-130704.jpg,2.0,,,,A1KR5B9ABZ7U4O
757,62,,1.0,42.0,2898618444-142233.jpg,2238555262-330312.jpg,2.0,,,,A1KR5B9ABZ7U4O
758,63,,1.0,43.0,2238572663-35822.jpg,2864903351-286874.jpg,3.0,,,,A1KR5B9ABZ7U4O
759,64,,0.0,44.0,left.jpg,,,left,,,A1KR5B9ABZ7U4O
760,65,,1.0,45.0,2883268471-290842.jpg,2901947448-70314.jpg,3.0,,,,A1KR5B9ABZ7U4O
761,66,,1.0,46.0,2238480677-317399.jpg,2238573546-258454.jpg,2.0,,,,A1KR5B9ABZ7U4O
762,67,,1.0,47.0,2592379964-131054.jpg,2575963989-130576.jpg,1.0,,,,A1KR5B9ABZ7U4O
763,68,right,0.0,48.0,left.jpg,,,left,0.01,,A1KR5B9ABZ7U4O
764,69,,1.0,49.0,2898624426-291546.jpg,2981236443-71859.jpg,2.0,,,,A1KR5B9ABZ7U4O
765,70,,1.0,50.0,2986451363-73599.jpg,2898626385-216899.jpg,1.0,,,,A1KR5B9ABZ7U4O
766,71,,1.0,51.0,2452381505-199546.jpg,2898632385-217138.jpg,2.0,,,,A1KR5B9ABZ7U4O
767,72,,1.0,52.0,2460547467-349421.jpg,2898631394-142727.jpg,1.0,,,,A1KR5B9ABZ7U4O
768,73,,1.0,53.0,2898618390-216538.jpg,2901939327-367670.jpg,2.0,,,,A1KR5B9ABZ7U4O
769,74,,1.0,54.0,2449442529-124446.jpg,2446759803-49251.jpg,1.0,,,,A1KR5B9ABZ7U4O
770,75,,1.0,55.0,2864907432-362042.jpg,2989726338-74002.jpg,3.0,,,,A1KR5B9ABZ7U4O
771,76,,1.0,56.0,2901939379-143479.jpg,2446758985-197610.jpg,2.0,,,,A1KR5B9ABZ7U4O
772,77,,1.0,57.0,2898635427-367120.jpg,2868479517-363220.jpg,2.0,,,,A1KR5B9ABZ7U4O
773,78,,1.0,58.0,2458347385-199723.jpg,2238480434-93829.jpg,1.0,,,,A1KR5B9ABZ7U4O
774,79,,1.0,59.0,2883268412-365898.jpg,2238436252-314037.jpg,3.0,,,,A1KR5B9ABZ7U4O
775,80,,1.0,60.0,2874303365-214262.jpg,2274829821-263682.jpg,1.0,,,,A1KR5B9ABZ7U4O
776,81,,1.0,61.0,2898634397-367080.jpg,2237944827-301472.jpg,1.0,,,,A1KR5B9ABZ7U4O
777,82,,1.0,62.0,2874307433-66280.jpg,2981231422-369714.jpg,3.0,,,,A1KR5B9ABZ7U4O
778,83,,1.0,63.0,2874302418-65979.jpg,2238578544-111698.jpg,3.0,,,,A1KR5B9ABZ7U4O
779,84,,1.0,64.0,2238481928-19949.jpg,2864900357-361688.jpg,2.0,,,,A1KR5B9ABZ7U4O
780,20,,1.0,0.0,2898635427-367120.jpg,2898621427-366486.jpg,3.0,,,,A38L8T6E70LVYE
781,21,,1.0,1.0,2874299429-139695.jpg,2446760917-347439.jpg,3.0,,,,A38L8T6E70LVYE
782,22,,1.0,2.0,2238572663-35822.jpg,2864903351-286874.jpg,3.0,,,,A38L8T6E70LVYE
783,23,,1.0,3.0,2986451363-73599.jpg,2860302315-210704.jpg,2.0,,,,A38L8T6E70LVYE
784,24,,1.0,4.0,2446759803-49249.jpg,2901951392-368654.jpg,3.0,,,,A38L8T6E70LVYE
785,25,,1.0,5.0,2898617468-68274.jpg,2901946439-144040.jpg,1.0,,,,A38L8T6E70LVYE
786,26,,1.0,6.0,2446758985-197609.jpg,2981240424-145795.jpg,1.0,,,,A38L8T6E70LVYE
787,27,,1.0,7.0,2458347385-199723.jpg,2427874554-121863.jpg,2.0,,,,A38L8T6E70LVYE
788,28,,1.0,8.0,2898624426-291546.jpg,2964218432-369263.jpg,1.0,,,,A38L8T6E70LVYE
789,29,,1.0,9.0,2898618390-216538.jpg,2575120609-129862.jpg,3.0,,,,A38L8T6E70LVYE
790,30,,1.0,10.0,2460547467-349421.jpg,2898631394-142727.jpg,1.0,,,,A38L8T6E70LVYE
791,31,,1.0,11.0,2460547467-349422.jpg,2864909447-362146.jpg,3.0,,,,A38L8T6E70LVYE
792,32,right,1.0,12.0,right.jpg,,,right,1.9077,,A38L8T6E70LVYE
793,33,,1.0,13.0,2868475410-213219.jpg,2868474407-362885.jpg,3.0,,,,A38L8T6E70LVYE
794,34,,1.0,14.0,2901939379-143480.jpg,2981229442-369621.jpg,2.0,,,,A38L8T6E70LVYE
795,35,,1.0,15.0,2986451363-73598.jpg,2984628361-295995.jpg,2.0,,,,A38L8T6E70LVYE
796,36,,1.0,16.0,2874301407-363895.jpg,2901947323-70275.jpg,3.0,,,,A38L8T6E70LVYE
797,37,,0.0,17.0,left.jpg,,,left,,,A38L8T6E70LVYE
798,38,,1.0,18.0,2901947423-70311.jpg,2238573447-333826.jpg,2.0,,,,A38L8T6E70LVYE
799,39,,1.0,19.0,2460547508-51571.jpg,2452380166-273109.jpg,1.0,,,,A38L8T6E70LVYE
800,40,,1.0,20.0,2883268412-365898.jpg,2984626312-370849.jpg,1.0,,,,A38L8T6E70LVYE
801,41,,1.0,21.0,2452381505-199546.jpg,2898632385-217138.jpg,2.0,,,,A38L8T6E70LVYE
802,42,,1.0,22.0,2238481928-19949.jpg,2883264367-365620.jpg,1.0,,,,A38L8T6E70LVYE
803,43,,1.0,23.0,2901941401-292798.jpg,2898618327-366317.jpg,1.0,,,,A38L8T6E70LVYE
804,44,,1.0,24.0,2868474407-362883.jpg,2460547732-349518.jpg,1.0,,,,A38L8T6E70LVYE
805,45,,1.0,25.0,2449442529-124446.jpg,2446759803-49251.jpg,1.0,,,,A38L8T6E70LVYE
806,46,,1.0,26.0,2898633421-291973.jpg,2512876023-52283.jpg,1.0,,,,A38L8T6E70LVYE
807,47,,1.0,27.0,2592380177-354629.jpg,2512875587-350044.jpg,3.0,,,,A38L8T6E70LVYE
808,48,,1.0,28.0,2592379964-131054.jpg,2592380272-354673.jpg,3.0,,,,A38L8T6E70LVYE
809,49,,1.0,29.0,2864910426-287204.jpg,2901939433-69672.jpg,3.0,,,,A38L8T6E70LVYE
810,50,,1.0,30.0,2238428357-313623.jpg,2238499057-320266.jpg,1.0,,,,A38L8T6E70LVYE
811,51,,1.0,31.0,2964223381-294447.jpg,2901941438-69836.jpg,2.0,,,,A38L8T6E70LVYE
812,52,,1.0,32.0,2452380832-348593.jpg,2238481813-19930.jpg,2.0,,,,A38L8T6E70LVYE
813,53,right,1.0,33.0,right.jpg,,,right,1.77,,A38L8T6E70LVYE
814,54,,1.0,34.0,2964222378-71332.jpg,2901933382-367209.jpg,2.0,,,,A38L8T6E70LVYE
815,55,,1.0,35.0,2901939379-143479.jpg,2446758985-197610.jpg,2.0,,,,A38L8T6E70LVYE
816,56,,1.0,36.0,2575120738-55529.jpg,2238531493-28260.jpg,3.0,,,,A38L8T6E70LVYE
817,57,,1.0,37.0,2874302418-65978.jpg,2964224310-219528.jpg,1.0,,,,A38L8T6E70LVYE
818,58,,1.0,38.0,2874307433-66280.jpg,2981231422-369714.jpg,3.0,,,,A38L8T6E70LVYE
819,59,,1.0,39.0,2964218374-144967.jpg,2981231446-294732.jpg,3.0,,,,A38L8T6E70LVYE
820,60,,1.0,40.0,2874299429-139694.jpg,2981244403-72215.jpg,2.0,,,,A38L8T6E70LVYE
821,61,,1.0,41.0,2964216465-219242.jpg,2898619327-366362.jpg,3.0,,,,A38L8T6E70LVYE
822,62,,1.0,42.0,2238480677-317399.jpg,2238481630-168218.jpg,1.0,,,,A38L8T6E70LVYE
823,63,,1.0,43.0,2964213381-294060.jpg,2964213381-294061.jpg,3.0,,,,A38L8T6E70LVYE
824,64,,0.0,44.0,right.jpg,,,right,,,A38L8T6E70LVYE
825,65,,1.0,45.0,2898618444-142233.jpg,2898631359-142721.jpg,1.0,,,,A38L8T6E70LVYE
826,66,,1.0,46.0,2238481198-19822.jpg,2238480803-19737.jpg,3.0,,,,A38L8T6E70LVYE
827,67,,1.0,47.0,2883268471-290842.jpg,2901947448-70314.jpg,3.0,,,,A38L8T6E70LVYE
828,68,,0.0,48.0,right.jpg,,,right,,,A38L8T6E70LVYE
829,69,,1.0,49.0,2238425482-313537.jpg,2238436322-314047.jpg,2.0,,,,A38L8T6E70LVYE
830,70,,1.0,50.0,2901952513-70703.jpg,2868469411-287540.jpg,2.0,,,,A38L8T6E70LVYE
831,71,,1.0,51.0,2874303365-214262.jpg,2238563377-332054.jpg,2.0,,,,A38L8T6E70LVYE
832,72,,1.0,52.0,2512875899-126682.jpg,2592380177-354628.jpg,2.0,,,,A38L8T6E70LVYE
833,73,,1.0,53.0,2981231403-71642.jpg,2579432519-130698.jpg,1.0,,,,A38L8T6E70LVYE
834,74,,1.0,54.0,2898634397-367080.jpg,2901934408-69289.jpg,2.0,,,,A38L8T6E70LVYE
835,75,,1.0,55.0,2874302418-65979.jpg,2238578544-111698.jpg,3.0,,,,A38L8T6E70LVYE
836,76,,1.0,56.0,2238560245-182099.jpg,2592380255-205553.jpg,1.0,,,,A38L8T6E70LVYE
837,77,,1.0,57.0,2883273443-68193.jpg,2883254439-140940.jpg,1.0,,,,A38L8T6E70LVYE
838,78,,1.0,58.0,2883256307-365057.jpg,2964210336-293945.jpg,2.0,,,,A38L8T6E70LVYE
839,79,,1.0,59.0,2864907432-362042.jpg,2901947423-70310.jpg,2.0,,,,A38L8T6E70LVYE
840,80,,1.0,60.0,2592380177-354626.jpg,2238576792-334659.jpg,1.0,,,,A38L8T6E70LVYE
841,81,,1.0,61.0,2238580740-186218.jpg,2238521193-26285.jpg,2.0,,,,A38L8T6E70LVYE
842,82,,1.0,62.0,2898635428-69104.jpg,2446759803-49250.jpg,1.0,,,,A38L8T6E70LVYE
843,83,,1.0,63.0,2449442529-124445.jpg,2898632385-217137.jpg,3.0,,,,A38L8T6E70LVYE
844,84,,1.0,64.0,2981241414-145842.jpg,2874301404-139813.jpg,2.0,,,,A38L8T6E70LVYE
845,20,,1.0,0.0,2874299429-139695.jpg,2901942443-69923.jpg,2.0,,,,ATOUNVWV5W8W2
846,21,,1.0,1.0,2898618390-216538.jpg,2575120609-129862.jpg,3.0,,,,ATOUNVWV5W8W2
847,22,,1.0,2.0,2883256307-365057.jpg,2964210336-293945.jpg,2.0,,,,ATOUNVWV5W8W2
848,23,,1.0,3.0,2449442529-124446.jpg,2446759803-49251.jpg,1.0,,,,ATOUNVWV5W8W2
849,24,,1.0,4.0,2238481928-19949.jpg,2981241419-145844.jpg,3.0,,,,ATOUNVWV5W8W2
850,25,,1.0,5.0,2901939379-143479.jpg,2964216376-294181.jpg,3.0,,,,ATOUNVWV5W8W2
851,26,,1.0,6.0,2238425482-313537.jpg,2238436322-314047.jpg,2.0,,,,ATOUNVWV5W8W2
852,27,,1.0,7.0,2238572663-35822.jpg,2238571930-184143.jpg,2.0,,,,ATOUNVWV5W8W2
853,28,,1.0,8.0,2238481198-19822.jpg,2862691449-137104.jpg,1.0,,,,ATOUNVWV5W8W2
854,29,,0.0,9.0,right.jpg,,,right,,,ATOUNVWV5W8W2
855,30,,1.0,10.0,2898634397-367080.jpg,2901934408-69289.jpg,2.0,,,,ATOUNVWV5W8W2
856,31,,1.0,11.0,2964223381-294447.jpg,2901941438-69836.jpg,2.0,,,,ATOUNVWV5W8W2
857,32,,1.0,12.0,2898635427-367120.jpg,2898621427-366486.jpg,3.0,,,,ATOUNVWV5W8W2
858,33,,1.0,13.0,2458347385-199723.jpg,2458347252-348911.jpg,3.0,,,,ATOUNVWV5W8W2
859,34,,1.0,14.0,2446758985-197609.jpg,2981240424-145795.jpg,1.0,,,,ATOUNVWV5W8W2
860,35,,1.0,15.0,2238580740-186218.jpg,2238521193-26285.jpg,2.0,,,,ATOUNVWV5W8W2
861,36,,0.0,16.0,left.jpg,,,left,,,ATOUNVWV5W8W2
862,37,,1.0,17.0,2238428357-313623.jpg,2238499057-320266.jpg,1.0,,,,ATOUNVWV5W8W2
863,38,,1.0,18.0,2592380177-354626.jpg,2238117096-228518.jpg,3.0,,,,ATOUNVWV5W8W2
864,39,,1.0,19.0,2446759803-49249.jpg,2446760601-272099.jpg,1.0,,,,ATOUNVWV5W8W2
865,40,,1.0,20.0,2449442529-124445.jpg,2898632385-217137.jpg,3.0,,,,ATOUNVWV5W8W2
866,41,,1.0,21.0,2868474407-362883.jpg,2460547732-349518.jpg,1.0,,,,ATOUNVWV5W8W2
867,42,,1.0,22.0,2964216465-219242.jpg,2238544191-252422.jpg,1.0,,,,ATOUNVWV5W8W2
868,43,,1.0,23.0,2964222378-71332.jpg,2981240424-145794.jpg,1.0,,,,ATOUNVWV5W8W2
869,44,,1.0,24.0,2512875899-126682.jpg,2986447332-371497.jpg,3.0,,,,ATOUNVWV5W8W2
870,45,,1.0,25.0,2883273443-68193.jpg,2883254439-140940.jpg,1.0,,,,ATOUNVWV5W8W2
871,46,,0.0,26.0,left.jpg,,,left,,,ATOUNVWV5W8W2
872,47,,1.0,27.0,2868475410-213219.jpg,2238480803-19739.jpg,2.0,,,,ATOUNVWV5W8W2
873,48,,1.0,28.0,2901952513-70703.jpg,2864907361-287062.jpg,1.0,,,,ATOUNVWV5W8W2
874,49,,1.0,29.0,2964213381-294060.jpg,2981244394-145974.jpg,1.0,,,,ATOUNVWV5W8W2
875,50,,1.0,30.0,2883268412-365898.jpg,2984615361-295510.jpg,2.0,,,,ATOUNVWV5W8W2
876,51,,1.0,31.0,2901941401-292798.jpg,2898631468-68931.jpg,3.0,,,,ATOUNVWV5W8W2
877,52,,1.0,32.0,2452380832-348593.jpg,2238328478-11678.jpg,1.0,,,,ATOUNVWV5W8W2
878,53,,1.0,33.0,2883268471-290842.jpg,2883255450-215310.jpg,2.0,,,,ATOUNVWV5W8W2
879,54,,1.0,34.0,2460547508-51571.jpg,2452380166-273109.jpg,1.0,,,,ATOUNVWV5W8W2
880,55,,1.0,35.0,2864907432-362042.jpg,2864901420-212147.jpg,1.0,,,,ATOUNVWV5W8W2
881,56,,1.0,36.0,2592380177-354629.jpg,2579432534-130704.jpg,2.0,,,,ATOUNVWV5W8W2
882,57,,1.0,37.0,2981231403-71642.jpg,2579432519-130698.jpg,1.0,,,,ATOUNVWV5W8W2
883,58,,0.0,38.0,left.jpg,,,left,,,ATOUNVWV5W8W2
884,59,,1.0,39.0,2592379964-131054.jpg,2238479053-19457.jpg,2.0,,,,ATOUNVWV5W8W2
885,60,,1.0,40.0,2452381505-199546.jpg,2898632385-217138.jpg,2.0,,,,ATOUNVWV5W8W2
886,61,,1.0,41.0,2901939379-143480.jpg,2901942428-69919.jpg,1.0,,,,ATOUNVWV5W8W2
887,62,,1.0,42.0,2874307433-66280.jpg,2981231422-369714.jpg,3.0,,,,ATOUNVWV5W8W2
888,63,,1.0,43.0,2238560245-182099.jpg,2238480980-168129.jpg,3.0,,,,ATOUNVWV5W8W2
889,64,,1.0,44.0,2460547467-349421.jpg,2981235446-294901.jpg,3.0,,,,ATOUNVWV5W8W2
890,65,,1.0,45.0,2986451363-73598.jpg,2237857458-1324.jpg,1.0,,,,ATOUNVWV5W8W2
891,66,,1.0,46.0,2898633421-291973.jpg,2238550049-105691.jpg,3.0,,,,ATOUNVWV5W8W2
892,67,,1.0,47.0,2898618444-142233.jpg,2238555262-330312.jpg,2.0,,,,ATOUNVWV5W8W2
893,68,,1.0,48.0,2238480677-317399.jpg,2238480278-19661.jpg,3.0,,,,ATOUNVWV5W8W2
894,69,,0.0,49.0,left.jpg,,,left,,,ATOUNVWV5W8W2
895,70,,1.0,50.0,2898635428-69104.jpg,2446759803-49250.jpg,1.0,,,,ATOUNVWV5W8W2
896,71,,1.0,51.0,2981241414-145842.jpg,2874301404-139813.jpg,2.0,,,,ATOUNVWV5W8W2
897,72,,1.0,52.0,2964218374-144967.jpg,2981231446-294732.jpg,3.0,,,,ATOUNVWV5W8W2
898,73,,1.0,53.0,2874301407-363895.jpg,2986397322-371109.jpg,2.0,,,,ATOUNVWV5W8W2
899,74,,1.0,54.0,2874299429-139694.jpg,2986447306-296584.jpg,1.0,,,,ATOUNVWV5W8W2
900,75,,1.0,55.0,2874303365-214262.jpg,2274829821-263682.jpg,1.0,,,,ATOUNVWV5W8W2
901,76,,1.0,56.0,2898624426-291546.jpg,2981235446-294900.jpg,3.0,,,,ATOUNVWV5W8W2
902,77,,1.0,57.0,2986451363-73599.jpg,2238434559-90406.jpg,3.0,,,,ATOUNVWV5W8W2
903,78,,1.0,58.0,2874302418-65978.jpg,2898633321-291943.jpg,3.0,,,,ATOUNVWV5W8W2
904,79,,1.0,59.0,2575120738-55529.jpg,2575120738-55528.jpg,2.0,,,,ATOUNVWV5W8W2
905,80,,1.0,60.0,2874302418-65979.jpg,2238480648-19714.jpg,2.0,,,,ATOUNVWV5W8W2
906,81,,1.0,61.0,2901947423-70311.jpg,2238573447-333826.jpg,2.0,,,,ATOUNVWV5W8W2
907,82,,1.0,62.0,2864910426-287204.jpg,2901939433-69672.jpg,3.0,,,,ATOUNVWV5W8W2
908,83,,1.0,63.0,2898617468-68274.jpg,2964207374-144577.jpg,3.0,,,,ATOUNVWV5W8W2
909,84,,1.0,64.0,2460547467-349422.jpg,2868487415-213924.jpg,2.0,,,,ATOUNVWV5W8W2
910,20,,1.0,0.0,2446758985-197609.jpg,2864909447-362144.jpg,2.0,,,,A2YIOEOXTOWKMK
911,21,,1.0,1.0,2460547467-349422.jpg,2864909447-362146.jpg,3.0,,,,A2YIOEOXTOWKMK
912,22,,1.0,2.0,2874302418-65979.jpg,2237857458-1325.jpg,1.0,,,,A2YIOEOXTOWKMK
913,23,,1.0,3.0,2868475410-213219.jpg,2238480803-19739.jpg,2.0,,,,A2YIOEOXTOWKMK
914,24,,1.0,4.0,2964218374-144967.jpg,2446759306-271734.jpg,2.0,,,,A2YIOEOXTOWKMK
915,25,,1.0,5.0,2901939379-143480.jpg,2981229442-369621.jpg,2.0,,,,A2YIOEOXTOWKMK
916,26,left,1.0,6.0,left.jpg,,,left,1.467,,A2YIOEOXTOWKMK
917,27,,1.0,7.0,2883256307-365057.jpg,2864904453-63933.jpg,3.0,,,,A2YIOEOXTOWKMK
918,28,,1.0,8.0,2238560245-182099.jpg,2238480980-168129.jpg,3.0,,,,A2YIOEOXTOWKMK
919,29,,1.0,9.0,2874303365-214262.jpg,2274829821-263682.jpg,1.0,,,,A2YIOEOXTOWKMK
920,30,,1.0,10.0,2964216465-219242.jpg,2898619327-366362.jpg,3.0,,,,A2YIOEOXTOWKMK
921,31,,1.0,11.0,2238572663-35822.jpg,2864903351-286874.jpg,3.0,,,,A2YIOEOXTOWKMK
922,32,,1.0,12.0,2238425482-313537.jpg,2898633480-217190.jpg,3.0,,,,A2YIOEOXTOWKMK
923,33,,1.0,13.0,2898635427-367120.jpg,2868479517-363220.jpg,2.0,,,,A2YIOEOXTOWKMK
924,34,,1.0,14.0,2898635428-69104.jpg,2446759803-49250.jpg,1.0,,,,A2YIOEOXTOWKMK
925,35,,1.0,15.0,2883268471-290842.jpg,2883255450-215310.jpg,2.0,,,,A2YIOEOXTOWKMK
926,36,right,1.0,16.0,right.jpg,,,right,1.145,,A2YIOEOXTOWKMK
927,37,,1.0,17.0,2460547508-51571.jpg,2901941438-69835.jpg,3.0,,,,A2YIOEOXTOWKMK
928,38,,1.0,18.0,2874307433-66280.jpg,2984615358-72439.jpg,1.0,,,,A2YIOEOXTOWKMK
929,39,,1.0,19.0,2898624426-291546.jpg,2981235446-294900.jpg,3.0,,,,A2YIOEOXTOWKMK
930,40,,1.0,20.0,2874301407-363895.jpg,2986397322-371109.jpg,2.0,,,,A2YIOEOXTOWKMK
931,41,,1.0,21.0,2898634397-367080.jpg,2237944827-301472.jpg,1.0,,,,A2YIOEOXTOWKMK
932,42,,1.0,22.0,2898618444-142233.jpg,2898631359-142721.jpg,1.0,,,,A2YIOEOXTOWKMK
933,43,,1.0,23.0,2901939379-143479.jpg,2964216376-294181.jpg,3.0,,,,A2YIOEOXTOWKMK
934,44,,1.0,24.0,2986451363-73598.jpg,2237857458-1324.jpg,1.0,,,,A2YIOEOXTOWKMK
935,45,,1.0,25.0,2452380832-348593.jpg,2238481813-19930.jpg,2.0,,,,A2YIOEOXTOWKMK
936,46,,1.0,26.0,2238428357-313623.jpg,2238499057-320266.jpg,1.0,,,,A2YIOEOXTOWKMK
937,47,left,1.0,27.0,left.jpg,,,left,1.254,,A2YIOEOXTOWKMK
938,48,,1.0,28.0,2238481198-19822.jpg,2862691449-137104.jpg,1.0,,,,A2YIOEOXTOWKMK
939,49,,1.0,29.0,2981231403-71642.jpg,2427873763-47290.jpg,3.0,,,,A2YIOEOXTOWKMK
940,50,,1.0,30.0,2901941401-292798.jpg,2981243412-370222.jpg,2.0,,,,A2YIOEOXTOWKMK
941,51,,1.0,31.0,2238481928-19949.jpg,2883264367-365620.jpg,1.0,,,,A2YIOEOXTOWKMK
942,52,,1.0,32.0,2883268412-365898.jpg,2984626312-370849.jpg,1.0,,,,A2YIOEOXTOWKMK
943,53,,1.0,33.0,2238580740-186218.jpg,2238521193-26285.jpg,2.0,,,,A2YIOEOXTOWKMK
944,54,,1.0,34.0,2898617468-68274.jpg,2901946439-144040.jpg,1.0,,,,A2YIOEOXTOWKMK
945,55,,1.0,35.0,2592380177-354626.jpg,2238117096-228518.jpg,3.0,,,,A2YIOEOXTOWKMK
946,56,,1.0,36.0,2986451363-73599.jpg,2898626385-216899.jpg,1.0,,,,A2YIOEOXTOWKMK
947,57,,1.0,37.0,2874299429-139694.jpg,2981244403-72215.jpg,2.0,,,,A2YIOEOXTOWKMK
948,58,,1.0,38.0,2575120738-55529.jpg,2864906345-212360.jpg,1.0,,,,A2YIOEOXTOWKMK
949,59,right,1.0,39.0,right.jpg,,,right,1.223,,A2YIOEOXTOWKMK
950,60,,1.0,40.0,2449442529-124446.jpg,2460547536-274178.jpg,3.0,,,,A2YIOEOXTOWKMK
951,61,,1.0,41.0,2592379964-131054.jpg,2592380272-354673.jpg,3.0,,,,A2YIOEOXTOWKMK
952,62,,1.0,42.0,2238480677-317399.jpg,2238480278-19661.jpg,3.0,,,,A2YIOEOXTOWKMK
953,63,,1.0,43.0,2864910426-287204.jpg,2864902304-137862.jpg,1.0,,,,A2YIOEOXTOWKMK
954,64,,1.0,44.0,2901947423-70311.jpg,2238573447-333826.jpg,2.0,,,,A2YIOEOXTOWKMK
955,65,,1.0,45.0,2460547467-349421.jpg,2981235446-294901.jpg,3.0,,,,A2YIOEOXTOWKMK
956,66,,1.0,46.0,2446759803-49249.jpg,2898618440-216547.jpg,2.0,,,,A2YIOEOXTOWKMK
957,67,,1.0,47.0,2458347385-199723.jpg,2427874554-121863.jpg,2.0,,,,A2YIOEOXTOWKMK
958,68,left,1.0,48.0,left.jpg,,,left,1.209,,A2YIOEOXTOWKMK
959,69,,1.0,49.0,2964223381-294447.jpg,2898628438-68785.jpg,3.0,,,,A2YIOEOXTOWKMK
960,70,,1.0,50.0,2874302418-65978.jpg,2898633321-291943.jpg,3.0,,,,A2YIOEOXTOWKMK
961,71,,1.0,51.0,2874299429-139695.jpg,2901942443-69923.jpg,2.0,,,,A2YIOEOXTOWKMK
962,72,,1.0,52.0,2898633421-291973.jpg,2575118671-277663.jpg,2.0,,,,A2YIOEOXTOWKMK
963,73,,1.0,53.0,2964213381-294060.jpg,2458348012-349114.jpg,2.0,,,,A2YIOEOXTOWKMK
964,74,,1.0,54.0,2901952513-70703.jpg,2864907361-287062.jpg,1.0,,,,A2YIOEOXTOWKMK
965,75,,1.0,55.0,2864907432-362042.jpg,2901947423-70310.jpg,2.0,,,,A2YIOEOXTOWKMK
966,76,,1.0,56.0,2883273443-68193.jpg,2460547508-51572.jpg,2.0,,,,A2YIOEOXTOWKMK
967,77,,1.0,57.0,2898618390-216538.jpg,2237856148-989.jpg,1.0,,,,A2YIOEOXTOWKMK
968,78,,1.0,58.0,2964222378-71332.jpg,2981240427-370099.jpg,3.0,,,,A2YIOEOXTOWKMK
969,79,,1.0,59.0,2452381505-199546.jpg,2994401319-148290.jpg,3.0,,,,A2YIOEOXTOWKMK
970,80,,1.0,60.0,2868474407-362883.jpg,2901948383-70363.jpg,3.0,,,,A2YIOEOXTOWKMK
971,81,,1.0,61.0,2981241414-145842.jpg,2874301404-139813.jpg,2.0,,,,A2YIOEOXTOWKMK
972,82,,1.0,62.0,2449442529-124445.jpg,2452380171-273112.jpg,1.0,,,,A2YIOEOXTOWKMK
973,83,,1.0,63.0,2592380177-354629.jpg,2898633421-291974.jpg,1.0,,,,A2YIOEOXTOWKMK
974,84,,1.0,64.0,2512875899-126682.jpg,2460547536-274179.jpg,1.0,,,,A2YIOEOXTOWKMK
975,20,,1.0,0.0,2898624426-291546.jpg,2981236443-71859.jpg,2.0,,,,AS66AO98XNCUP
976,21,,1.0,1.0,2238572663-35822.jpg,2238571930-184143.jpg,2.0,,,,AS66AO98XNCUP
977,22,,1.0,2.0,2964213381-294060.jpg,2964213381-294061.jpg,3.0,,,,AS66AO98XNCUP
978,23,,1.0,3.0,2592380177-354626.jpg,2864901386-286797.jpg,2.0,,,,AS66AO98XNCUP
979,24,,1.0,4.0,2449442529-124446.jpg,2460547536-274178.jpg,3.0,,,,AS66AO98XNCUP
980,25,,1.0,5.0,2964218374-144967.jpg,2446759306-271734.jpg,2.0,,,,AS66AO98XNCUP
981,26,,0.0,6.0,left.jpg,,,left,,,AS66AO98XNCUP
982,27,,1.0,7.0,2874302418-65979.jpg,2238480648-19714.jpg,2.0,,,,AS66AO98XNCUP
983,28,,1.0,8.0,2986451363-73598.jpg,2901942443-69925.jpg,3.0,,,,AS66AO98XNCUP
984,29,,1.0,9.0,2452381505-199546.jpg,2898632385-217138.jpg,2.0,,,,AS66AO98XNCUP
985,30,,1.0,10.0,2864907432-362042.jpg,2989726338-74002.jpg,3.0,,,,AS66AO98XNCUP
986,31,,1.0,11.0,2460547508-51571.jpg,2452380166-273109.jpg,1.0,,,,AS66AO98XNCUP
987,32,,1.0,12.0,2964222378-71332.jpg,2981240424-145794.jpg,1.0,,,,AS66AO98XNCUP
988,33,,1.0,13.0,2986451363-73599.jpg,2898626385-216899.jpg,1.0,,,,AS66AO98XNCUP
989,34,,1.0,14.0,2238480677-317399.jpg,2238573546-258454.jpg,2.0,,,,AS66AO98XNCUP
990,35,,1.0,15.0,2874303365-214262.jpg,2274829821-263682.jpg,1.0,,,,AS66AO98XNCUP
991,36,,1.0,16.0,2901939379-143479.jpg,2446758985-197610.jpg,2.0,,,,AS66AO98XNCUP
992,37,,1.0,17.0,2874302418-65978.jpg,2238481198-19823.jpg,2.0,,,,AS66AO98XNCUP
993,38,,1.0,18.0,2452380832-348593.jpg,2237858942-299356.jpg,3.0,,,,AS66AO98XNCUP
994,39,,1.0,19.0,2901941401-292798.jpg,2898618327-366317.jpg,1.0,,,,AS66AO98XNCUP
995,40,,1.0,20.0,2868475410-213219.jpg,2868474407-362885.jpg,3.0,,,,AS66AO98XNCUP
996,41,,0.0,21.0,left.jpg,,,left,,,AS66AO98XNCUP
997,42,,1.0,22.0,2898635427-367120.jpg,2964221435-219434.jpg,1.0,,,,AS66AO98XNCUP
998,43,,1.0,23.0,2964216465-219242.jpg,2898619327-366362.jpg,3.0,,,,AS66AO98XNCUP
999,44,,1.0,24.0,2901947423-70311.jpg,2238577590-185467.jpg,3.0,,,,AS66AO98XNCUP
1000,45,,1.0,25.0,2449442529-124445.jpg,2898632385-217137.jpg,3.0,,,,AS66AO98XNCUP
1001,46,,1.0,26.0,2238481198-19822.jpg,2862691449-137104.jpg,1.0,,,,AS66AO98XNCUP
1002,47,,1.0,27.0,2592380177-354629.jpg,2898633421-291974.jpg,1.0,,,,AS66AO98XNCUP
1003,48,,1.0,28.0,2868474407-362883.jpg,2901948383-70363.jpg,3.0,,,,AS66AO98XNCUP
1004,49,,1.0,29.0,2883268471-290842.jpg,2901947448-70314.jpg,3.0,,,,AS66AO98XNCUP
1005,50,,1.0,30.0,2898635428-69104.jpg,2446759803-49250.jpg,1.0,,,,AS66AO98XNCUP
1006,51,,1.0,31.0,2901939379-143480.jpg,2898632385-217139.jpg,3.0,,,,AS66AO98XNCUP
1007,52,,1.0,32.0,2898634397-367080.jpg,2964217461-294238.jpg,3.0,,,,AS66AO98XNCUP
1008,53,,0.0,33.0,left.jpg,,,left,,,AS66AO98XNCUP
1009,54,,1.0,34.0,2238481928-19949.jpg,2864900357-361688.jpg,2.0,,,,AS66AO98XNCUP
1010,55,,1.0,35.0,2238580740-186218.jpg,2238550816-254000.jpg,1.0,,,,AS66AO98XNCUP
1011,56,,1.0,36.0,2864910426-287204.jpg,2883268412-365899.jpg,2.0,,,,AS66AO98XNCUP
1012,57,,1.0,37.0,2883256307-365057.jpg,2964210336-293945.jpg,2.0,,,,AS66AO98XNCUP
1013,58,,0.0,38.0,left.jpg,,,left,,,AS66AO98XNCUP
1014,59,,1.0,39.0,2901952513-70703.jpg,2864907361-287062.jpg,1.0,,,,AS66AO98XNCUP
1015,60,,1.0,40.0,2446759803-49249.jpg,2901951392-368654.jpg,3.0,,,,AS66AO98XNCUP
1016,61,,1.0,41.0,2898618390-216538.jpg,2901939327-367670.jpg,2.0,,,,AS66AO98XNCUP
1017,62,,1.0,42.0,2238560245-182099.jpg,2592380255-205553.jpg,1.0,,,,AS66AO98XNCUP
1018,63,,1.0,43.0,2883273443-68193.jpg,2883254439-140940.jpg,1.0,,,,AS66AO98XNCUP
1019,64,,1.0,44.0,2458347385-199723.jpg,2427874554-121863.jpg,2.0,,,,AS66AO98XNCUP
1020,65,,1.0,45.0,2883268412-365898.jpg,2238436252-314037.jpg,3.0,,,,AS66AO98XNCUP
1021,66,,0.0,46.0,right.jpg,,,right,,,AS66AO98XNCUP
1022,67,,1.0,47.0,2981241414-145842.jpg,2874301404-139813.jpg,2.0,,,,AS66AO98XNCUP
1023,68,,1.0,48.0,2981231403-71642.jpg,2874305405-214397.jpg,2.0,,,,AS66AO98XNCUP
1024,69,,1.0,49.0,2575120738-55529.jpg,2575120738-55528.jpg,2.0,,,,AS66AO98XNCUP
1025,70,,1.0,50.0,2446758985-197609.jpg,2981240424-145795.jpg,1.0,,,,AS66AO98XNCUP
1026,71,,1.0,51.0,2874301407-363895.jpg,2446761374-124213.jpg,1.0,,,,AS66AO98XNCUP
1027,72,,1.0,52.0,2874299429-139695.jpg,2446760917-347439.jpg,3.0,,,,AS66AO98XNCUP
1028,73,,1.0,53.0,2898618444-142233.jpg,2898631359-142721.jpg,1.0,,,,AS66AO98XNCUP
1029,74,,1.0,54.0,2898617468-68274.jpg,2964207374-144577.jpg,3.0,,,,AS66AO98XNCUP
1030,75,,1.0,55.0,2460547467-349421.jpg,2981235446-294901.jpg,3.0,,,,AS66AO98XNCUP
1031,76,,1.0,56.0,2874307433-66280.jpg,2984615358-72439.jpg,1.0,,,,AS66AO98XNCUP
1032,77,,1.0,57.0,2874299429-139694.jpg,2883266367-365742.jpg,3.0,,,,AS66AO98XNCUP
1033,78,,1.0,58.0,2238425482-313537.jpg,2238471391-240918.jpg,1.0,,,,AS66AO98XNCUP
1034,79,,1.0,59.0,2238428357-313623.jpg,2238499057-320266.jpg,1.0,,,,AS66AO98XNCUP
1035,80,,1.0,60.0,2592379964-131054.jpg,2592380272-354673.jpg,3.0,,,,AS66AO98XNCUP
1036,81,,1.0,61.0,2898633421-291973.jpg,2575118671-277663.jpg,2.0,,,,AS66AO98XNCUP
1037,82,,1.0,62.0,2460547467-349422.jpg,2868487415-213924.jpg,2.0,,,,AS66AO98XNCUP
1038,83,,1.0,63.0,2964223381-294447.jpg,2427874231-269884.jpg,1.0,,,,AS66AO98XNCUP
1039,84,,1.0,64.0,2512875899-126682.jpg,2592380177-354628.jpg,2.0,,,,AS66AO98XNCUP
1040,20,,1.0,0.0,2460547467-349421.jpg,2452380166-273110.jpg,2.0,,,,A1G75OL3VL0RPJ
1041,21,,1.0,1.0,2449442529-124445.jpg,2986408373-73286.jpg,2.0,,,,A1G75OL3VL0RPJ
1042,22,,1.0,2.0,2238560245-182099.jpg,2592380255-205553.jpg,1.0,,,,A1G75OL3VL0RPJ
1043,23,,1.0,3.0,2874303365-214262.jpg,2864911457-362260.jpg,3.0,,,,A1G75OL3VL0RPJ
1044,24,,1.0,4.0,2874302418-65979.jpg,2237857458-1325.jpg,1.0,,,,A1G75OL3VL0RPJ
1045,25,,1.0,5.0,2238428357-313623.jpg,2986408339-146952.jpg,3.0,,,,A1G75OL3VL0RPJ
1046,26,,1.0,6.0,2238425482-313537.jpg,2238436322-314047.jpg,2.0,,,,A1G75OL3VL0RPJ
1047,27,,1.0,7.0,2575120738-55529.jpg,2864906345-212360.jpg,1.0,,,,A1G75OL3VL0RPJ
1048,28,,1.0,8.0,2981231403-71642.jpg,2579432519-130698.jpg,1.0,,,,A1G75OL3VL0RPJ
1049,29,,1.0,9.0,2964222378-71332.jpg,2901933382-367209.jpg,2.0,,,,A1G75OL3VL0RPJ
1050,30,right,1.0,10.0,right.jpg,,,right,2.5662,,A1G75OL3VL0RPJ
1051,31,,1.0,11.0,2864907432-362042.jpg,2901947423-70310.jpg,2.0,,,,A1G75OL3VL0RPJ
1052,32,,1.0,12.0,2898635428-69104.jpg,2901943411-292945.jpg,2.0,,,,A1G75OL3VL0RPJ
1053,33,,1.0,13.0,2898624426-291546.jpg,2981235446-294900.jpg,3.0,,,,A1G75OL3VL0RPJ
1054,34,,1.0,14.0,2986451363-73599.jpg,2238434559-90406.jpg,3.0,,,,A1G75OL3VL0RPJ
1055,35,,1.0,15.0,2898633421-291973.jpg,2238550049-105691.jpg,3.0,,,,A1G75OL3VL0RPJ
1056,36,,1.0,16.0,2874299429-139695.jpg,2901942443-69923.jpg,2.0,,,,A1G75OL3VL0RPJ
1057,37,,1.0,17.0,2592380177-354626.jpg,2864901386-286797.jpg,2.0,,,,A1G75OL3VL0RPJ
1058,38,,1.0,18.0,2883256307-365057.jpg,2611628310-206388.jpg,1.0,,,,A1G75OL3VL0RPJ
1059,39,,1.0,19.0,2452381505-199546.jpg,2898632385-217138.jpg,2.0,,,,A1G75OL3VL0RPJ
1060,40,,1.0,20.0,2898617468-68274.jpg,2964207374-144577.jpg,3.0,,,,A1G75OL3VL0RPJ
1061,41,,1.0,21.0,2874302418-65978.jpg,2238481198-19823.jpg,2.0,,,,A1G75OL3VL0RPJ
1062,42,,1.0,22.0,2238480677-317399.jpg,2238573546-258454.jpg,2.0,,,,A1G75OL3VL0RPJ
1063,43,,0.0,23.0,left.jpg,,,left,,,A1G75OL3VL0RPJ
1064,44,,1.0,24.0,2901947423-70311.jpg,2860312398-62572.jpg,1.0,,,,A1G75OL3VL0RPJ
1065,45,,1.0,25.0,2592380177-354629.jpg,2579432534-130704.jpg,2.0,,,,A1G75OL3VL0RPJ
1066,46,,1.0,26.0,2446759803-49249.jpg,2898618440-216547.jpg,2.0,,,,A1G75OL3VL0RPJ
1067,47,,1.0,27.0,2592379964-131054.jpg,2575963989-130576.jpg,1.0,,,,A1G75OL3VL0RPJ
1068,48,,1.0,28.0,2446758985-197609.jpg,2981240424-145795.jpg,1.0,,,,A1G75OL3VL0RPJ
1069,49,,1.0,29.0,2868475410-213219.jpg,2868474407-362885.jpg,3.0,,,,A1G75OL3VL0RPJ
1070,50,right,0.0,30.0,left.jpg,,,left,2.7669,,A1G75OL3VL0RPJ
1071,51,,1.0,31.0,2512875899-126682.jpg,2986447332-371497.jpg,3.0,,,,A1G75OL3VL0RPJ
1072,52,,1.0,32.0,2458347385-199723.jpg,2238480434-93829.jpg,1.0,,,,A1G75OL3VL0RPJ
1073,53,,1.0,33.0,2460547508-51571.jpg,2452380166-273109.jpg,1.0,,,,A1G75OL3VL0RPJ
1074,54,,1.0,34.0,2964223381-294447.jpg,2901941438-69836.jpg,2.0,,,,A1G75OL3VL0RPJ
1075,55,,1.0,35.0,2901939379-143480.jpg,2898632385-217139.jpg,3.0,,,,A1G75OL3VL0RPJ
1076,56,,1.0,36.0,2452380832-348593.jpg,2238328478-11678.jpg,1.0,,,,A1G75OL3VL0RPJ
1077,57,,1.0,37.0,2874301407-363895.jpg,2446761374-124213.jpg,1.0,,,,A1G75OL3VL0RPJ
1078,58,,1.0,38.0,2238572663-35822.jpg,2238571930-184143.jpg,2.0,,,,A1G75OL3VL0RPJ
1079,59,,1.0,39.0,2898618390-216538.jpg,2575120609-129862.jpg,3.0,,,,A1G75OL3VL0RPJ
1080,60,,1.0,40.0,2449442529-124446.jpg,2446759803-49251.jpg,1.0,,,,A1G75OL3VL0RPJ
1081,61,,1.0,41.0,2460547467-349422.jpg,2898618440-216545.jpg,1.0,,,,A1G75OL3VL0RPJ
1082,62,,1.0,42.0,2964216465-219242.jpg,2898619327-366362.jpg,3.0,,,,A1G75OL3VL0RPJ
1083,63,,1.0,43.0,2883268412-365898.jpg,2984615361-295510.jpg,2.0,,,,A1G75OL3VL0RPJ
1084,64,right,1.0,44.0,right.jpg,,,right,2.4207,,A1G75OL3VL0RPJ
1085,65,,1.0,45.0,2238580740-186218.jpg,2964220333-71258.jpg,3.0,,,,A1G75OL3VL0RPJ
1086,66,,1.0,46.0,2238481198-19822.jpg,2901946436-293242.jpg,2.0,,,,A1G75OL3VL0RPJ
1087,67,,1.0,47.0,2874307433-66280.jpg,2984615358-72439.jpg,1.0,,,,A1G75OL3VL0RPJ
1088,68,,1.0,48.0,2883273443-68193.jpg,2898627427-366763.jpg,3.0,,,,A1G75OL3VL0RPJ
1089,69,,1.0,49.0,2864910426-287204.jpg,2901939433-69672.jpg,3.0,,,,A1G75OL3VL0RPJ
1090,70,,1.0,50.0,2868474407-362883.jpg,2981246400-220363.jpg,2.0,,,,A1G75OL3VL0RPJ
1091,71,,1.0,51.0,2981241414-145842.jpg,2427873848-47312.jpg,3.0,,,,A1G75OL3VL0RPJ
1092,72,,1.0,52.0,2901939379-143479.jpg,2460547467-349423.jpg,1.0,,,,A1G75OL3VL0RPJ
1093,73,,1.0,53.0,2964213381-294060.jpg,2964213381-294061.jpg,3.0,,,,A1G75OL3VL0RPJ
1094,74,,0.0,54.0,left.jpg,,,left,,,A1G75OL3VL0RPJ
1095,75,,1.0,55.0,2898635427-367120.jpg,2868479517-363220.jpg,2.0,,,,A1G75OL3VL0RPJ
1096,76,,1.0,56.0,2901941401-292798.jpg,2898631468-68931.jpg,3.0,,,,A1G75OL3VL0RPJ
1097,77,,1.0,57.0,2874299429-139694.jpg,2986447306-296584.jpg,1.0,,,,A1G75OL3VL0RPJ
1098,78,,1.0,58.0,2238481928-19949.jpg,2883264367-365620.jpg,1.0,,,,A1G75OL3VL0RPJ
1099,79,,1.0,59.0,2898634397-367080.jpg,2964217461-294238.jpg,3.0,,,,A1G75OL3VL0RPJ
1100,80,,1.0,60.0,2964218374-144967.jpg,2981231446-294732.jpg,3.0,,,,A1G75OL3VL0RPJ
1101,81,,1.0,61.0,2901952513-70703.jpg,2868469411-287540.jpg,2.0,,,,A1G75OL3VL0RPJ
1102,82,,1.0,62.0,2898618444-142233.jpg,2898631359-142721.jpg,1.0,,,,A1G75OL3VL0RPJ
1103,83,,1.0,63.0,2883268471-290842.jpg,2883268471-290843.jpg,1.0,,,,A1G75OL3VL0RPJ
1104,84,,1.0,64.0,2986451363-73598.jpg,2901942443-69925.jpg,3.0,,,,A1G75OL3VL0RPJ
1105,20,,1.0,0.0,2592380177-354626.jpg,2238576792-334659.jpg,1.0,,,,A1F2APQMJSQVFK
1106,21,,1.0,1.0,2446758985-197609.jpg,2864909447-362144.jpg,2.0,,,,A1F2APQMJSQVFK
1107,22,,1.0,2.0,2238572663-35822.jpg,2238584894-113161.jpg,1.0,,,,A1F2APQMJSQVFK
1108,23,,1.0,3.0,2901939379-143479.jpg,2964216376-294181.jpg,3.0,,,,A1F2APQMJSQVFK
1109,24,,1.0,4.0,2238580740-186218.jpg,2964220333-71258.jpg,3.0,,,,A1F2APQMJSQVFK
1110,25,,1.0,5.0,2592380177-354629.jpg,2898633421-291974.jpg,1.0,,,,A1F2APQMJSQVFK
1111,26,,1.0,6.0,2874301407-363895.jpg,2446761374-124213.jpg,1.0,,,,A1F2APQMJSQVFK
1112,27,,1.0,7.0,2874302418-65979.jpg,2238480648-19714.jpg,2.0,,,,A1F2APQMJSQVFK
1113,28,left,1.0,8.0,left.jpg,,,left,1.2624,,A1F2APQMJSQVFK
1114,29,,1.0,9.0,2592379964-131054.jpg,2575963989-130576.jpg,1.0,,,,A1F2APQMJSQVFK
1115,30,,1.0,10.0,2898617468-68274.jpg,2901943387-368037.jpg,2.0,,,,A1F2APQMJSQVFK
1116,31,,1.0,11.0,2452380832-348593.jpg,2237858942-299356.jpg,3.0,,,,A1F2APQMJSQVFK
1117,32,,1.0,12.0,2981231403-71642.jpg,2427873763-47290.jpg,3.0,,,,A1F2APQMJSQVFK
1118,33,,1.0,13.0,2874299429-139695.jpg,2446760917-347439.jpg,3.0,,,,A1F2APQMJSQVFK
1119,34,,1.0,14.0,2986451363-73599.jpg,2860302315-210704.jpg,2.0,,,,A1F2APQMJSQVFK
1120,35,,1.0,15.0,2460547508-51571.jpg,2452380166-273109.jpg,1.0,,,,A1F2APQMJSQVFK
1121,36,,1.0,16.0,2874302418-65978.jpg,2898633321-291943.jpg,3.0,,,,A1F2APQMJSQVFK
1122,37,,1.0,17.0,2864907432-362042.jpg,2901947423-70310.jpg,2.0,,,,A1F2APQMJSQVFK
1123,38,,1.0,18.0,2883268471-290842.jpg,2883268471-290843.jpg,1.0,,,,A1F2APQMJSQVFK
1124,39,left,1.0,19.0,left.jpg,,,left,1.2257,,A1F2APQMJSQVFK
1125,40,,1.0,20.0,2238560245-182099.jpg,2238480980-168129.jpg,3.0,,,,A1F2APQMJSQVFK
1126,41,,1.0,21.0,2238428357-313623.jpg,2238499057-320266.jpg,1.0,,,,A1F2APQMJSQVFK
1127,42,,1.0,22.0,2460547467-349421.jpg,2981235446-294901.jpg,3.0,,,,A1F2APQMJSQVFK
1128,43,,1.0,23.0,2512875899-126682.jpg,2986447332-371497.jpg,3.0,,,,A1F2APQMJSQVFK
1129,44,,1.0,24.0,2874303365-214262.jpg,2238563377-332054.jpg,2.0,,,,A1F2APQMJSQVFK
1130,45,,1.0,25.0,2901939379-143480.jpg,2981229442-369621.jpg,2.0,,,,A1F2APQMJSQVFK
1131,46,left,1.0,26.0,left.jpg,,,left,1.4621,,A1F2APQMJSQVFK
1132,47,,1.0,27.0,2901947423-70311.jpg,2238577590-185467.jpg,3.0,,,,A1F2APQMJSQVFK
1133,48,,1.0,28.0,2964223381-294447.jpg,2901941438-69836.jpg,2.0,,,,A1F2APQMJSQVFK
1134,49,,1.0,29.0,2864910426-287204.jpg,2883268412-365899.jpg,2.0,,,,A1F2APQMJSQVFK
1135,50,,1.0,30.0,2964216465-219242.jpg,2898619327-366362.jpg,3.0,,,,A1F2APQMJSQVFK
1136,51,,1.0,31.0,2874299429-139694.jpg,2986447306-296584.jpg,1.0,,,,A1F2APQMJSQVFK
1137,52,,1.0,32.0,2238425482-313537.jpg,2238436322-314047.jpg,2.0,,,,A1F2APQMJSQVFK
1138,53,,1.0,33.0,2883268412-365898.jpg,2984626312-370849.jpg,1.0,,,,A1F2APQMJSQVFK
1139,54,,1.0,34.0,2868474407-362883.jpg,2901948383-70363.jpg,3.0,,,,A1F2APQMJSQVFK
1140,55,,1.0,35.0,2898618390-216538.jpg,2575120609-129862.jpg,3.0,,,,A1F2APQMJSQVFK
1141,56,,1.0,36.0,2898635427-367120.jpg,2964221435-219434.jpg,1.0,,,,A1F2APQMJSQVFK
1142,57,,1.0,37.0,2238481198-19822.jpg,2238480803-19737.jpg,3.0,,,,A1F2APQMJSQVFK
1143,58,,1.0,38.0,2238481928-19949.jpg,2883264367-365620.jpg,1.0,,,,A1F2APQMJSQVFK
1144,59,,1.0,39.0,2964213381-294060.jpg,2458348012-349114.jpg,2.0,,,,A1F2APQMJSQVFK
1145,60,,1.0,40.0,2898634397-367080.jpg,2964217461-294238.jpg,3.0,,,,A1F2APQMJSQVFK
1146,61,,1.0,41.0,2981241414-145842.jpg,2238516618-25604.jpg,1.0,,,,A1F2APQMJSQVFK
1147,62,,1.0,42.0,2898624426-291546.jpg,2964218432-369263.jpg,1.0,,,,A1F2APQMJSQVFK
1148,63,,1.0,43.0,2449442529-124446.jpg,2446759803-49251.jpg,1.0,,,,A1F2APQMJSQVFK
1149,64,left,1.0,44.0,left.jpg,,,left,1.1339,,A1F2APQMJSQVFK
1150,65,,1.0,45.0,2446759803-49249.jpg,2898618440-216547.jpg,2.0,,,,A1F2APQMJSQVFK
1151,66,,1.0,46.0,2898633421-291973.jpg,2575118671-277663.jpg,2.0,,,,A1F2APQMJSQVFK
1152,67,,1.0,47.0,2883256307-365057.jpg,2864904453-63933.jpg,3.0,,,,A1F2APQMJSQVFK
1153,68,right,1.0,48.0,right.jpg,,,right,1.0084,,A1F2APQMJSQVFK
1154,69,,1.0,49.0,2883273443-68193.jpg,2898627427-366763.jpg,3.0,,,,A1F2APQMJSQVFK
1155,70,,1.0,50.0,2575120738-55529.jpg,2864906345-212360.jpg,1.0,,,,A1F2APQMJSQVFK
1156,71,,1.0,51.0,2964218374-144967.jpg,2446759306-271734.jpg,2.0,,,,A1F2APQMJSQVFK
1157,72,,1.0,52.0,2901941401-292798.jpg,2898631468-68931.jpg,3.0,,,,A1F2APQMJSQVFK
1158,73,,1.0,53.0,2898618444-142233.jpg,2898618444-142232.jpg,3.0,,,,A1F2APQMJSQVFK
1159,74,,1.0,54.0,2898635428-69104.jpg,2898625336-291572.jpg,3.0,,,,A1F2APQMJSQVFK
1160,75,,1.0,55.0,2460547467-349422.jpg,2868487415-213924.jpg,2.0,,,,A1F2APQMJSQVFK
1161,76,,1.0,56.0,2452381505-199546.jpg,2901938432-367627.jpg,1.0,,,,A1F2APQMJSQVFK
1162,77,,1.0,57.0,2449442529-124445.jpg,2452380171-273112.jpg,1.0,,,,A1F2APQMJSQVFK
1163,78,,1.0,58.0,2901952513-70703.jpg,2864907361-287062.jpg,1.0,,,,A1F2APQMJSQVFK
1164,79,,1.0,59.0,2458347385-199723.jpg,2427874554-121863.jpg,2.0,,,,A1F2APQMJSQVFK
1165,80,,1.0,60.0,2238480677-317399.jpg,2238573546-258454.jpg,2.0,,,,A1F2APQMJSQVFK
1166,81,,1.0,61.0,2964222378-71332.jpg,2901933382-367209.jpg,2.0,,,,A1F2APQMJSQVFK
1167,82,,1.0,62.0,2986451363-73598.jpg,2984628361-295995.jpg,2.0,,,,A1F2APQMJSQVFK
1168,83,,1.0,63.0,2868475410-213219.jpg,2901946465-218350.jpg,1.0,,,,A1F2APQMJSQVFK
1169,84,,1.0,64.0,2874307433-66280.jpg,2981246400-220365.jpg,2.0,,,,A1F2APQMJSQVFK
1170,20,,1.0,0.0,2512875899-126682.jpg,2986447332-371497.jpg,3.0,,,,A2Z9PNETGAD9MS
1171,21,,1.0,1.0,2452381505-199546.jpg,2994401319-148290.jpg,3.0,,,,A2Z9PNETGAD9MS
1172,22,,1.0,2.0,2874302418-65978.jpg,2238481198-19823.jpg,2.0,,,,A2Z9PNETGAD9MS
1173,23,,1.0,3.0,2883256307-365057.jpg,2611628310-206388.jpg,1.0,,,,A2Z9PNETGAD9MS
1174,24,,1.0,4.0,2458347385-199723.jpg,2458347252-348911.jpg,3.0,,,,A2Z9PNETGAD9MS
1175,25,,1.0,5.0,2981231403-71642.jpg,2874305405-214397.jpg,2.0,,,,A2Z9PNETGAD9MS
1176,26,,1.0,6.0,2981241414-145842.jpg,2427873848-47312.jpg,3.0,,,,A2Z9PNETGAD9MS
1177,27,,1.0,7.0,2898624426-291546.jpg,2981236443-71859.jpg,2.0,,,,A2Z9PNETGAD9MS
1178,28,,1.0,8.0,2449442529-124445.jpg,2898632385-217137.jpg,3.0,,,,A2Z9PNETGAD9MS
1179,29,,1.0,9.0,2874301407-363895.jpg,2986397322-371109.jpg,2.0,,,,A2Z9PNETGAD9MS
1180,30,,1.0,10.0,2898635428-69104.jpg,2446759803-49250.jpg,1.0,,,,A2Z9PNETGAD9MS
1181,31,left,1.0,11.0,left.jpg,,,left,2.0346,,A2Z9PNETGAD9MS
1182,32,,1.0,12.0,2898618444-142233.jpg,2898618444-142232.jpg,3.0,,,,A2Z9PNETGAD9MS
1183,33,,1.0,13.0,2874299429-139695.jpg,2446760917-347439.jpg,3.0,,,,A2Z9PNETGAD9MS
1184,34,,1.0,14.0,2452380832-348593.jpg,2237858942-299356.jpg,3.0,,,,A2Z9PNETGAD9MS
1185,35,,1.0,15.0,2460547508-51571.jpg,2981232437-369759.jpg,2.0,,,,A2Z9PNETGAD9MS
1186,36,,1.0,16.0,2238428357-313623.jpg,2986408339-146952.jpg,3.0,,,,A2Z9PNETGAD9MS
1187,37,,1.0,17.0,2592379964-131054.jpg,2238479053-19457.jpg,2.0,,,,A2Z9PNETGAD9MS
1188,38,,1.0,18.0,2964218374-144967.jpg,2964218374-144968.jpg,1.0,,,,A2Z9PNETGAD9MS
1189,39,,1.0,19.0,2964213381-294060.jpg,2458348012-349114.jpg,2.0,,,,A2Z9PNETGAD9MS
1190,40,,1.0,20.0,2460547467-349422.jpg,2898618440-216545.jpg,1.0,,,,A2Z9PNETGAD9MS
1191,41,,1.0,21.0,2898635427-367120.jpg,2898621427-366486.jpg,3.0,,,,A2Z9PNETGAD9MS
1192,42,,1.0,22.0,2901952513-70703.jpg,2864907361-287062.jpg,1.0,,,,A2Z9PNETGAD9MS
1193,43,,1.0,23.0,2238481928-19949.jpg,2883264367-365620.jpg,1.0,,,,A2Z9PNETGAD9MS
1194,44,right,1.0,24.0,right.jpg,,,right,1.3825,,A2Z9PNETGAD9MS
1195,45,,1.0,25.0,2238481198-19822.jpg,2901946436-293242.jpg,2.0,,,,A2Z9PNETGAD9MS
1196,46,right,1.0,26.0,right.jpg,,,right,1.3936,,A2Z9PNETGAD9MS
1197,47,,1.0,27.0,2883273443-68193.jpg,2883254439-140940.jpg,1.0,,,,A2Z9PNETGAD9MS
1198,48,,1.0,28.0,2874302418-65979.jpg,2238578544-111698.jpg,3.0,,,,A2Z9PNETGAD9MS
1199,49,,1.0,29.0,2868474407-362883.jpg,2460547732-349518.jpg,1.0,,,,A2Z9PNETGAD9MS
1200,50,,1.0,30.0,2883268412-365898.jpg,2984626312-370849.jpg,1.0,,,,A2Z9PNETGAD9MS
1201,51,,1.0,31.0,2901941401-292798.jpg,2981243412-370222.jpg,2.0,,,,A2Z9PNETGAD9MS
1202,52,,1.0,32.0,2449442529-124446.jpg,2460547536-274178.jpg,3.0,,,,A2Z9PNETGAD9MS
1203,53,,1.0,33.0,2986451363-73598.jpg,2237857458-1324.jpg,1.0,,,,A2Z9PNETGAD9MS
1204,54,,1.0,34.0,2901939379-143479.jpg,2964216376-294181.jpg,3.0,,,,A2Z9PNETGAD9MS
1205,55,,1.0,35.0,2592380177-354629.jpg,2512875587-350044.jpg,3.0,,,,A2Z9PNETGAD9MS
1206,56,,1.0,36.0,2874299429-139694.jpg,2981244403-72215.jpg,2.0,,,,A2Z9PNETGAD9MS
1207,57,,1.0,37.0,2575120738-55529.jpg,2864906345-212360.jpg,1.0,,,,A2Z9PNETGAD9MS
1208,58,,1.0,38.0,2964216465-219242.jpg,2898619327-366362.jpg,3.0,,,,A2Z9PNETGAD9MS
1209,59,left,1.0,39.0,left.jpg,,,left,1.4686,,A2Z9PNETGAD9MS
1210,60,,1.0,40.0,2238572663-35822.jpg,2238571930-184143.jpg,2.0,,,,A2Z9PNETGAD9MS
1211,61,,1.0,41.0,2898618390-216538.jpg,2575120609-129862.jpg,3.0,,,,A2Z9PNETGAD9MS
1212,62,,1.0,42.0,2874303365-214262.jpg,2238563377-332054.jpg,2.0,,,,A2Z9PNETGAD9MS
1213,63,,1.0,43.0,2446759803-49249.jpg,2898618440-216547.jpg,2.0,,,,A2Z9PNETGAD9MS
1214,64,,1.0,44.0,2898617468-68274.jpg,2901946439-144040.jpg,1.0,,,,A2Z9PNETGAD9MS
1215,65,,1.0,45.0,2964223381-294447.jpg,2427874231-269884.jpg,1.0,,,,A2Z9PNETGAD9MS
1216,66,,1.0,46.0,2592380177-354626.jpg,2864901386-286797.jpg,2.0,,,,A2Z9PNETGAD9MS
1217,67,,0.0,47.0,left.jpg,,,left,,,A2Z9PNETGAD9MS
1218,68,,1.0,48.0,2898633421-291973.jpg,2575118671-277663.jpg,2.0,,,,A2Z9PNETGAD9MS
1219,69,,1.0,49.0,2864910426-287204.jpg,2901939433-69672.jpg,3.0,,,,A2Z9PNETGAD9MS
1220,70,,1.0,50.0,2238425482-313537.jpg,2238436322-314047.jpg,2.0,,,,A2Z9PNETGAD9MS
1221,71,,1.0,51.0,2901939379-143480.jpg,2901942428-69919.jpg,1.0,,,,A2Z9PNETGAD9MS
1222,72,,1.0,52.0,2446758985-197609.jpg,2981240424-145795.jpg,1.0,,,,A2Z9PNETGAD9MS
1223,73,,1.0,53.0,2238560245-182099.jpg,2238480980-168129.jpg,3.0,,,,A2Z9PNETGAD9MS
1224,74,,1.0,54.0,2898634397-367080.jpg,2237944827-301472.jpg,1.0,,,,A2Z9PNETGAD9MS
1225,75,,1.0,55.0,2238580740-186218.jpg,2964220333-71258.jpg,3.0,,,,A2Z9PNETGAD9MS
1226,76,,1.0,56.0,2868475410-213219.jpg,2901946465-218350.jpg,1.0,,,,A2Z9PNETGAD9MS
1227,77,,1.0,57.0,2874307433-66280.jpg,2984615358-72439.jpg,1.0,,,,A2Z9PNETGAD9MS
1228,78,,1.0,58.0,2238480677-317399.jpg,2238481630-168218.jpg,1.0,,,,A2Z9PNETGAD9MS
1229,79,,1.0,59.0,2883268471-290842.jpg,2883255450-215310.jpg,2.0,,,,A2Z9PNETGAD9MS
1230,80,,1.0,60.0,2864907432-362042.jpg,2864901420-212147.jpg,1.0,,,,A2Z9PNETGAD9MS
1231,81,,1.0,61.0,2964222378-71332.jpg,2901933382-367209.jpg,2.0,,,,A2Z9PNETGAD9MS
1232,82,,1.0,62.0,2901947423-70311.jpg,2238577590-185467.jpg,3.0,,,,A2Z9PNETGAD9MS
1233,83,,1.0,63.0,2986451363-73599.jpg,2860302315-210704.jpg,2.0,,,,A2Z9PNETGAD9MS
1234,84,,1.0,64.0,2460547467-349421.jpg,2452380166-273110.jpg,2.0,,,,A2Z9PNETGAD9MS
1235,20,,1.0,0.0,2575120738-55529.jpg,2238531493-28260.jpg,3.0,,,,A2N8PVHOT7XR1W
1236,21,,1.0,1.0,2512875899-126682.jpg,2460547536-274179.jpg,1.0,,,,A2N8PVHOT7XR1W
1237,22,,1.0,2.0,2898617468-68274.jpg,2901943387-368037.jpg,2.0,,,,A2N8PVHOT7XR1W
1238,23,,1.0,3.0,2446758985-197609.jpg,2864909447-362144.jpg,2.0,,,,A2N8PVHOT7XR1W
1239,24,,1.0,4.0,2238572663-35822.jpg,2864903351-286874.jpg,3.0,,,,A2N8PVHOT7XR1W
1240,25,,1.0,5.0,2964218374-144967.jpg,2446759306-271734.jpg,2.0,,,,A2N8PVHOT7XR1W
1241,26,,1.0,6.0,2901947423-70311.jpg,2860312398-62572.jpg,1.0,,,,A2N8PVHOT7XR1W
1242,27,,1.0,7.0,2458347385-199723.jpg,2458347252-348911.jpg,3.0,,,,A2N8PVHOT7XR1W
1243,28,right,0.0,8.0,left.jpg,,,left,0.0085,,A2N8PVHOT7XR1W
