,index,demo_encoding_loop.thisTrialN,DemoImage,DemoCorrect,demo_encoding_response.rt,demo_encoding_response.keys,index,demo_test_response.keys,demo_test_response.corr,demo_test_response.rt,demo_test_loop.thisTrialN,DemoImage1,DemoImage2,DemoCorrectTest,subject
0,4,0.0,flower1.jpg,,,,12.0,right,0.0,2.4523,0.0,flower1.jpg,flower1_pair.jpg,left,A3SSIUMI7ONK5W
1,5,1.0,flower2.jpg,,,,13.0,left,0.0,0.9823,1.0,flower2_pair.jpg,flower2.jpg,right,A3SSIUMI7ONK5W
2,6,2.0,left.jpg,left,,,14.0,left,1.0,1.3826,2.0,flower3.jpg,flower3_pair.jpg,left,A3SSIUMI7ONK5W
3,7,3.0,flower3.jpg,,,,15.0,right,0.0,1.4789,3.0,flower4.jpg,flower4_pair.jpg,left,A3SSIUMI7ONK5W
4,8,4.0,flower4.jpg,,,,16.0,left,0.0,1.0754,4.0,flower5_pair.jpg,flower5.jpg,right,A3SSIUMI7ONK5W
5,9,5.0,flower5.jpg,,,,17.0,right,0.0,0.9845,5.0,flower6.jpg,flower6_pair.jpg,left,A3SSIUMI7ONK5W
6,10,6.0,flower6.jpg,,,,,,,,,,,,A3SSIUMI7ONK5W
7,4,0.0,flower1.jpg,,,,12.0,left,1.0,2.8512,0.0,flower1.jpg,flower1_pair.jpg,left,A2LMSIDVE4E4IO
8,5,1.0,flower2.jpg,,,,13.0,left,0.0,1.369,1.0,flower2_pair.jpg,flower2.jpg,right,A2LMSIDVE4E4IO
9,6,2.0,left.jpg,left,1.9058,left,14.0,left,1.0,2.3436,2.0,flower3.jpg,flower3_pair.jpg,left,A2LMSIDVE4E4IO
10,7,3.0,flower3.jpg,,,,15.0,right,0.0,1.0746,3.0,flower4.jpg,flower4_pair.jpg,left,A2LMSIDVE4E4IO
11,8,4.0,flower4.jpg,,,,16.0,left,0.0,1.494,4.0,flower5_pair.jpg,flower5.jpg,right,A2LMSIDVE4E4IO
12,9,5.0,flower5.jpg,,,,17.0,right,0.0,2.1315,5.0,flower6.jpg,flower6_pair.jpg,left,A2LMSIDVE4E4IO
13,10,6.0,flower6.jpg,,,,,,,,,,,,A2LMSIDVE4E4IO
14,4,0.0,flower1.jpg,,,,12.0,left,1.0,175.0845,0.0,flower1.jpg,flower1_pair.jpg,left,A2TI9ZTXN1GNTV
15,5,1.0,flower2.jpg,,,,13.0,right,1.0,0.1624,1.0,flower2_pair.jpg,flower2.jpg,right,A2TI9ZTXN1GNTV
16,6,2.0,left.jpg,left,,,14.0,right,0.0,1.014,2.0,flower3.jpg,flower3_pair.jpg,left,A2TI9ZTXN1GNTV
17,7,3.0,flower3.jpg,,,,15.0,right,0.0,1.488,3.0,flower4.jpg,flower4_pair.jpg,left,A2TI9ZTXN1GNTV
18,8,4.0,flower4.jpg,,,,16.0,left,0.0,0.3189,4.0,flower5_pair.jpg,flower5.jpg,right,A2TI9ZTXN1GNTV
19,9,5.0,flower5.jpg,,,,17.0,right,0.0,0.1603,5.0,flower6.jpg,flower6_pair.jpg,left,A2TI9ZTXN1GNTV
20,10,6.0,flower6.jpg,,,,,,,,,,,,A2TI9ZTXN1GNTV
21,4,0.0,flower1.jpg,,,,12.0,left,1.0,6.3239,0.0,flower1.jpg,flower1_pair.jpg,left,A3DFUI6OKBNNGI
22,5,1.0,flower2.jpg,,,,13.0,left,0.0,3.355,1.0,flower2_pair.jpg,flower2.jpg,right,A3DFUI6OKBNNGI
23,6,2.0,left.jpg,left,1.7772,right,14.0,left,1.0,2.6832,2.0,flower3.jpg,flower3_pair.jpg,left,A3DFUI6OKBNNGI
24,7,3.0,flower3.jpg,,,,15.0,left,1.0,1.6835,3.0,flower4.jpg,flower4_pair.jpg,left,A3DFUI6OKBNNGI
25,8,4.0,flower4.jpg,,,,16.0,right,1.0,1.9664,4.0,flower5_pair.jpg,flower5.jpg,right,A3DFUI6OKBNNGI
26,9,5.0,flower5.jpg,,,,17.0,left,1.0,1.3269,5.0,flower6.jpg,flower6_pair.jpg,left,A3DFUI6OKBNNGI
27,10,6.0,flower6.jpg,,,,,,,,,,,,A3DFUI6OKBNNGI
28,4,0.0,flower1.jpg,,,,12.0,right,0.0,2.5066,0.0,flower1.jpg,flower1_pair.jpg,left,A1DEYILIW8BKPC
29,5,1.0,flower2.jpg,,,,13.0,left,0.0,1.0591,1.0,flower2_pair.jpg,flower2.jpg,right,A1DEYILIW8BKPC
30,6,2.0,left.jpg,left,1.79,left,14.0,right,0.0,0.7678,2.0,flower3.jpg,flower3_pair.jpg,left,A1DEYILIW8BKPC
31,7,3.0,flower3.jpg,,,,15.0,left,1.0,0.7715,3.0,flower4.jpg,flower4_pair.jpg,left,A1DEYILIW8BKPC
32,8,4.0,flower4.jpg,,,,16.0,right,1.0,1.4385,4.0,flower5_pair.jpg,flower5.jpg,right,A1DEYILIW8BKPC
33,9,5.0,flower5.jpg,,,,17.0,left,1.0,0.7765,5.0,flower6.jpg,flower6_pair.jpg,left,A1DEYILIW8BKPC
34,10,6.0,flower6.jpg,,,,,,,,,,,,A1DEYILIW8BKPC
35,4,0.0,flower1.jpg,,,,12.0,left,1.0,6.528,0.0,flower1.jpg,flower1_pair.jpg,left,A5JUTCI1XLTTD
36,5,1.0,flower2.jpg,,,,13.0,left,0.0,13.2811,1.0,flower2_pair.jpg,flower2.jpg,right,A5JUTCI1XLTTD
37,6,2.0,left.jpg,left,,,14.0,left,1.0,2.4895,2.0,flower3.jpg,flower3_pair.jpg,left,A5JUTCI1XLTTD
38,7,3.0,flower3.jpg,,,,15.0,left,1.0,2.4697,3.0,flower4.jpg,flower4_pair.jpg,left,A5JUTCI1XLTTD
39,8,4.0,flower4.jpg,,,,16.0,right,1.0,2.9901,4.0,flower5_pair.jpg,flower5.jpg,right,A5JUTCI1XLTTD
40,9,5.0,flower5.jpg,,,,17.0,left,1.0,2.3009,5.0,flower6.jpg,flower6_pair.jpg,left,A5JUTCI1XLTTD
41,10,6.0,flower6.jpg,,,,,,,,,,,,A5JUTCI1XLTTD
42,4,0.0,flower1.jpg,,,,12.0,left,1.0,2.9413,0.0,flower1.jpg,flower1_pair.jpg,left,A1LSSI3O205X7F
43,5,1.0,flower2.jpg,,,,13.0,right,1.0,2.9422,1.0,flower2_pair.jpg,flower2.jpg,right,A1LSSI3O205X7F
44,6,2.0,left.jpg,left,,,14.0,left,1.0,1.2306,2.0,flower3.jpg,flower3_pair.jpg,left,A1LSSI3O205X7F
45,7,3.0,flower3.jpg,,,,15.0,right,0.0,1.3467,3.0,flower4.jpg,flower4_pair.jpg,left,A1LSSI3O205X7F
46,8,4.0,flower4.jpg,,,,16.0,right,1.0,1.9802,4.0,flower5_pair.jpg,flower5.jpg,right,A1LSSI3O205X7F
47,9,5.0,flower5.jpg,,,,17.0,left,1.0,2.4553,5.0,flower6.jpg,flower6_pair.jpg,left,A1LSSI3O205X7F
48,10,6.0,flower6.jpg,,,,,,,,,,,,A1LSSI3O205X7F
49,4,0.0,flower1.jpg,,,,12.0,right,0.0,3.4882,0.0,flower1.jpg,flower1_pair.jpg,left,A17JUIY13I7RL8
50,5,1.0,flower2.jpg,,,,13.0,left,0.0,1.3417,1.0,flower2_pair.jpg,flower2.jpg,right,A17JUIY13I7RL8
51,6,2.0,left.jpg,left,1.5821,left,14.0,left,1.0,1.5222,2.0,flower3.jpg,flower3_pair.jpg,left,A17JUIY13I7RL8
52,7,3.0,flower3.jpg,,,,15.0,right,0.0,1.4924,3.0,flower4.jpg,flower4_pair.jpg,left,A17JUIY13I7RL8
53,8,4.0,flower4.jpg,,,,16.0,left,0.0,1.7034,4.0,flower5_pair.jpg,flower5.jpg,right,A17JUIY13I7RL8
54,9,5.0,flower5.jpg,,,,17.0,right,0.0,1.7002,5.0,flower6.jpg,flower6_pair.jpg,left,A17JUIY13I7RL8
55,10,6.0,flower6.jpg,,,,,,,,,,,,A17JUIY13I7RL8
56,4,0.0,flower1.jpg,,,,12.0,right,0.0,4.1846,0.0,flower1.jpg,flower1_pair.jpg,left,A344BXT88DM2ZH
57,5,1.0,flower2.jpg,,,,13.0,left,0.0,1.8431,1.0,flower2_pair.jpg,flower2.jpg,right,A344BXT88DM2ZH
58,6,2.0,left.jpg,left,1.874,left,14.0,left,1.0,1.6587,2.0,flower3.jpg,flower3_pair.jpg,left,A344BXT88DM2ZH
59,7,3.0,flower3.jpg,,,,15.0,right,0.0,1.3052,3.0,flower4.jpg,flower4_pair.jpg,left,A344BXT88DM2ZH
60,8,4.0,flower4.jpg,,,,16.0,right,1.0,2.0514,4.0,flower5_pair.jpg,flower5.jpg,right,A344BXT88DM2ZH
61,9,5.0,flower5.jpg,,,,17.0,left,1.0,1.669,5.0,flower6.jpg,flower6_pair.jpg,left,A344BXT88DM2ZH
62,10,6.0,flower6.jpg,,,,,,,,,,,,A344BXT88DM2ZH
63,4,0.0,flower1.jpg,,,,12.0,right,0.0,1.7033,0.0,flower1.jpg,flower1_pair.jpg,left,A3E0IFFHYQPLFE
64,5,1.0,flower2.jpg,,,,13.0,left,0.0,0.1863,1.0,flower2_pair.jpg,flower2.jpg,right,A3E0IFFHYQPLFE
65,6,2.0,left.jpg,left,0.007,right,14.0,right,0.0,0.0963,2.0,flower3.jpg,flower3_pair.jpg,left,A3E0IFFHYQPLFE
66,7,3.0,flower3.jpg,,,,15.0,left,1.0,0.0071,3.0,flower4.jpg,flower4_pair.jpg,left,A3E0IFFHYQPLFE
67,8,4.0,flower4.jpg,,,,16.0,right,1.0,0.0963,4.0,flower5_pair.jpg,flower5.jpg,right,A3E0IFFHYQPLFE
68,9,5.0,flower5.jpg,,,,17.0,right,0.0,0.1858,5.0,flower6.jpg,flower6_pair.jpg,left,A3E0IFFHYQPLFE
69,10,6.0,flower6.jpg,,,,,,,,,,,,A3E0IFFHYQPLFE
70,4,0.0,flower1.jpg,,,,12.0,left,1.0,2.5253,0.0,flower1.jpg,flower1_pair.jpg,left,A3JQOR9SGS3YFS
71,5,1.0,flower2.jpg,,,,13.0,right,1.0,1.5622,1.0,flower2_pair.jpg,flower2.jpg,right,A3JQOR9SGS3YFS
72,6,2.0,left.jpg,left,1.9364,left,14.0,left,1.0,1.2186,2.0,flower3.jpg,flower3_pair.jpg,left,A3JQOR9SGS3YFS
73,7,3.0,flower3.jpg,,,,15.0,right,0.0,1.2104,3.0,flower4.jpg,flower4_pair.jpg,left,A3JQOR9SGS3YFS
74,8,4.0,flower4.jpg,,,,16.0,right,1.0,2.1502,4.0,flower5_pair.jpg,flower5.jpg,right,A3JQOR9SGS3YFS
75,9,5.0,flower5.jpg,,,,17.0,right,0.0,1.4707,5.0,flower6.jpg,flower6_pair.jpg,left,A3JQOR9SGS3YFS
76,10,6.0,flower6.jpg,,,,,,,,,,,,A3JQOR9SGS3YFS
77,4,0.0,flower1.jpg,,,,12.0,right,0.0,1.9472,0.0,flower1.jpg,flower1_pair.jpg,left,A1KR5B9ABZ7U4O
78,5,1.0,flower2.jpg,,,,13.0,left,0.0,0.1472,1.0,flower2_pair.jpg,flower2.jpg,right,A1KR5B9ABZ7U4O
79,6,2.0,left.jpg,left,0.0078,right,14.0,left,1.0,0.2535,2.0,flower3.jpg,flower3_pair.jpg,left,A1KR5B9ABZ7U4O
80,7,3.0,flower3.jpg,,,,15.0,left,1.0,0.1364,3.0,flower4.jpg,flower4_pair.jpg,left,A1KR5B9ABZ7U4O
81,8,4.0,flower4.jpg,,,,16.0,left,0.0,0.135,4.0,flower5_pair.jpg,flower5.jpg,right,A1KR5B9ABZ7U4O
82,9,5.0,flower5.jpg,,,,17.0,left,1.0,0.1252,5.0,flower6.jpg,flower6_pair.jpg,left,A1KR5B9ABZ7U4O
83,10,6.0,flower6.jpg,,,,,,,,,,,,A1KR5B9ABZ7U4O
84,4,0.0,flower1.jpg,,,,12.0,left,1.0,2.513,0.0,flower1.jpg,flower1_pair.jpg,left,A38L8T6E70LVYE
85,5,1.0,flower2.jpg,,,,13.0,left,0.0,2.1972,1.0,flower2_pair.jpg,flower2.jpg,right,A38L8T6E70LVYE
86,6,2.0,left.jpg,left,1.8574,left,14.0,left,1.0,2.2666,2.0,flower3.jpg,flower3_pair.jpg,left,A38L8T6E70LVYE
87,7,3.0,flower3.jpg,,,,15.0,left,1.0,1.8991,3.0,flower4.jpg,flower4_pair.jpg,left,A38L8T6E70LVYE
88,8,4.0,flower4.jpg,,,,16.0,right,1.0,2.1257,4.0,flower5_pair.jpg,flower5.jpg,right,A38L8T6E70LVYE
89,9,5.0,flower5.jpg,,,,17.0,left,1.0,1.3928,5.0,flower6.jpg,flower6_pair.jpg,left,A38L8T6E70LVYE
90,10,6.0,flower6.jpg,,,,,,,,,,,,A38L8T6E70LVYE
91,4,0.0,flower1.jpg,,,,12.0,left,1.0,3.4683,0.0,flower1.jpg,flower1_pair.jpg,left,ATOUNVWV5W8W2
92,5,1.0,flower2.jpg,,,,13.0,right,1.0,1.7633,1.0,flower2_pair.jpg,flower2.jpg,right,ATOUNVWV5W8W2
93,6,2.0,left.jpg,left,,,14.0,left,1.0,1.3404,2.0,flower3.jpg,flower3_pair.jpg,left,ATOUNVWV5W8W2
94,7,3.0,flower3.jpg,,,,15.0,right,0.0,1.2593,3.0,flower4.jpg,flower4_pair.jpg,left,ATOUNVWV5W8W2
95,8,4.0,flower4.jpg,,,,16.0,left,0.0,1.9997,4.0,flower5_pair.jpg,flower5.jpg,right,ATOUNVWV5W8W2
96,9,5.0,flower5.jpg,,,,17.0,left,1.0,1.4492,5.0,flower6.jpg,flower6_pair.jpg,left,ATOUNVWV5W8W2
97,10,6.0,flower6.jpg,,,,,,,,,,,,ATOUNVWV5W8W2
98,4,0.0,flower1.jpg,,,,12.0,left,1.0,6.111,0.0,flower1.jpg,flower1_pair.jpg,left,A2YIOEOXTOWKMK
99,5,1.0,flower2.jpg,,,,13.0,left,0.0,7.17,1.0,flower2_pair.jpg,flower2.jpg,right,A2YIOEOXTOWKMK
100,6,2.0,left.jpg,left,,,14.0,left,1.0,38.733,2.0,flower3.jpg,flower3_pair.jpg,left,A2YIOEOXTOWKMK
101,7,3.0,flower3.jpg,,,,15.0,right,0.0,7.985,3.0,flower4.jpg,flower4_pair.jpg,left,A2YIOEOXTOWKMK
102,8,4.0,flower4.jpg,,,,16.0,left,0.0,8.507,4.0,flower5_pair.jpg,flower5.jpg,right,A2YIOEOXTOWKMK
103,9,5.0,flower5.jpg,,,,17.0,left,1.0,3.516,5.0,flower6.jpg,flower6_pair.jpg,left,A2YIOEOXTOWKMK
104,10,6.0,flower6.jpg,,,,,,,,,,,,A2YIOEOXTOWKMK
105,4,0.0,flower1.jpg,,,,12.0,right,0.0,2.5506,0.0,flower1.jpg,flower1_pair.jpg,left,AS66AO98XNCUP
106,5,1.0,flower2.jpg,,,,13.0,right,1.0,2.0749,1.0,flower2_pair.jpg,flower2.jpg,right,AS66AO98XNCUP
107,6,2.0,left.jpg,left,0.1013,right,14.0,right,0.0,2.65,2.0,flower3.jpg,flower3_pair.jpg,left,AS66AO98XNCUP
108,7,3.0,flower3.jpg,,,,15.0,right,0.0,1.6551,3.0,flower4.jpg,flower4_pair.jpg,left,AS66AO98XNCUP
109,8,4.0,flower4.jpg,,,,16.0,right,1.0,2.1605,4.0,flower5_pair.jpg,flower5.jpg,right,AS66AO98XNCUP
110,9,5.0,flower5.jpg,,,,17.0,right,0.0,1.1475,5.0,flower6.jpg,flower6_pair.jpg,left,AS66AO98XNCUP
111,10,6.0,flower6.jpg,,,,,,,,,,,,AS66AO98XNCUP
112,4,0.0,flower1.jpg,,,,12.0,right,0.0,523.7711,0.0,flower1.jpg,flower1_pair.jpg,left,A1G75OL3VL0RPJ
113,5,1.0,flower2.jpg,,,,13.0,right,1.0,17.392,1.0,flower2_pair.jpg,flower2.jpg,right,A1G75OL3VL0RPJ
114,6,2.0,left.jpg,left,,,14.0,right,0.0,3.1687,2.0,flower3.jpg,flower3_pair.jpg,left,A1G75OL3VL0RPJ
115,7,3.0,flower3.jpg,,,,15.0,right,0.0,4.0672,3.0,flower4.jpg,flower4_pair.jpg,left,A1G75OL3VL0RPJ
116,8,4.0,flower4.jpg,,,,16.0,right,1.0,4.9735,4.0,flower5_pair.jpg,flower5.jpg,right,A1G75OL3VL0RPJ
117,9,5.0,flower5.jpg,,,,17.0,right,0.0,13.1563,5.0,flower6.jpg,flower6_pair.jpg,left,A1G75OL3VL0RPJ
118,10,6.0,flower6.jpg,,,,,,,,,,,,A1G75OL3VL0RPJ
119,4,0.0,flower1.jpg,,,,12.0,left,1.0,6.5182,0.0,flower1.jpg,flower1_pair.jpg,left,A1F2APQMJSQVFK
120,5,1.0,flower2.jpg,,,,13.0,left,0.0,6.2563,1.0,flower2_pair.jpg,flower2.jpg,right,A1F2APQMJSQVFK
121,6,2.0,left.jpg,left,2.6012,left,14.0,left,1.0,3.3538,2.0,flower3.jpg,flower3_pair.jpg,left,A1F2APQMJSQVFK
122,7,3.0,flower3.jpg,,,,15.0,right,0.0,2.6897,3.0,flower4.jpg,flower4_pair.jpg,left,A1F2APQMJSQVFK
123,8,4.0,flower4.jpg,,,,16.0,left,0.0,4.2971,4.0,flower5_pair.jpg,flower5.jpg,right,A1F2APQMJSQVFK
124,9,5.0,flower5.jpg,,,,17.0,right,0.0,3.7912,5.0,flower6.jpg,flower6_pair.jpg,left,A1F2APQMJSQVFK
125,10,6.0,flower6.jpg,,,,,,,,,,,,A1F2APQMJSQVFK
126,4,0.0,flower1.jpg,,,,12.0,left,1.0,3.6903,0.0,flower1.jpg,flower1_pair.jpg,left,A2Z9PNETGAD9MS
127,5,1.0,flower2.jpg,,,,13.0,right,1.0,3.451,1.0,flower2_pair.jpg,flower2.jpg,right,A2Z9PNETGAD9MS
128,6,2.0,left.jpg,left,1.4877,left,14.0,left,1.0,2.0027,2.0,flower3.jpg,flower3_pair.jpg,left,A2Z9PNETGAD9MS
129,7,3.0,flower3.jpg,,,,15.0,left,1.0,2.7881,3.0,flower4.jpg,flower4_pair.jpg,left,A2Z9PNETGAD9MS
130,8,4.0,flower4.jpg,,,,16.0,right,1.0,2.7808,4.0,flower5_pair.jpg,flower5.jpg,right,A2Z9PNETGAD9MS
131,9,5.0,flower5.jpg,,,,17.0,left,1.0,2.0982,5.0,flower6.jpg,flower6_pair.jpg,left,A2Z9PNETGAD9MS
132,10,6.0,flower6.jpg,,,,,,,,,,,,A2Z9PNETGAD9MS
133,4,0.0,flower1.jpg,,,,12.0,right,0.0,3.05,0.0,flower1.jpg,flower1_pair.jpg,left,A2N8PVHOT7XR1W
134,5,1.0,flower2.jpg,,,,13.0,right,1.0,0.3976,1.0,flower2_pair.jpg,flower2.jpg,right,A2N8PVHOT7XR1W
135,6,2.0,left.jpg,left,0.0072,right,14.0,left,1.0,0.0082,2.0,flower3.jpg,flower3_pair.jpg,left,A2N8PVHOT7XR1W
136,7,3.0,flower3.jpg,,,,15.0,right,0.0,0.1031,3.0,flower4.jpg,flower4_pair.jpg,left,A2N8PVHOT7XR1W
137,8,4.0,flower4.jpg,,,,16.0,left,0.0,0.1069,4.0,flower5_pair.jpg,flower5.jpg,right,A2N8PVHOT7XR1W
138,9,5.0,flower5.jpg,,,,17.0,right,0.0,0.0084,5.0,flower6.jpg,flower6_pair.jpg,left,A2N8PVHOT7XR1W
139,10,6.0,flower6.jpg,,,,,,,,,,,,A2N8PVHOT7XR1W
140,4,0.0,flower1.jpg,,,,12.0,left,1.0,6.9538,0.0,flower1.jpg,flower1_pair.jpg,left,A39Z3FVA8SIQFE
141,5,1.0,flower2.jpg,,,,13.0,right,1.0,3.2436,1.0,flower2_pair.jpg,flower2.jpg,right,A39Z3FVA8SIQFE
142,6,2.0,left.jpg,left,,,14.0,left,1.0,1.7427,2.0,flower3.jpg,flower3_pair.jpg,left,A39Z3FVA8SIQFE
143,7,3.0,flower3.jpg,,,,15.0,left,1.0,2.1524,3.0,flower4.jpg,flower4_pair.jpg,left,A39Z3FVA8SIQFE
144,8,4.0,flower4.jpg,,,,16.0,right,1.0,25.4942,4.0,flower5_pair.jpg,flower5.jpg,right,A39Z3FVA8SIQFE
145,9,5.0,flower5.jpg,,,,17.0,left,1.0,5.2038,5.0,flower6.jpg,flower6_pair.jpg,left,A39Z3FVA8SIQFE
146,10,6.0,flower6.jpg,,,,,,,,,,,,A39Z3FVA8SIQFE
147,4,0.0,flower1.jpg,,,,12.0,left,1.0,1.5234,0.0,flower1.jpg,flower1_pair.jpg,left,A2QGCZDG0PIFEL
148,5,1.0,flower2.jpg,,,,13.0,right,1.0,2.503,1.0,flower2_pair.jpg,flower2.jpg,right,A2QGCZDG0PIFEL
149,6,2.0,left.jpg,left,1.1775,left,14.0,left,1.0,1.5379,2.0,flower3.jpg,flower3_pair.jpg,left,A2QGCZDG0PIFEL
150,7,3.0,flower3.jpg,,,,15.0,right,0.0,2.0677,3.0,flower4.jpg,flower4_pair.jpg,left,A2QGCZDG0PIFEL
151,8,4.0,flower4.jpg,,,,16.0,right,1.0,2.478,4.0,flower5_pair.jpg,flower5.jpg,right,A2QGCZDG0PIFEL
152,9,5.0,flower5.jpg,,,,17.0,left,1.0,1.5269,5.0,flower6.jpg,flower6_pair.jpg,left,A2QGCZDG0PIFEL
153,10,6.0,flower6.jpg,,,,,,,,,,,,A2QGCZDG0PIFEL
154,4,0.0,flower1.jpg,,,,12.0,left,1.0,2.5565,0.0,flower1.jpg,flower1_pair.jpg,left,A2LB6A57BDB1X0
155,5,1.0,flower2.jpg,,,,13.0,left,0.0,2.9536,1.0,flower2_pair.jpg,flower2.jpg,right,A2LB6A57BDB1X0
156,6,2.0,left.jpg,left,1.5094,left,14.0,left,1.0,1.7735,2.0,flower3.jpg,flower3_pair.jpg,left,A2LB6A57BDB1X0
157,7,3.0,flower3.jpg,,,,15.0,right,0.0,2.2144,3.0,flower4.jpg,flower4_pair.jpg,left,A2LB6A57BDB1X0
158,8,4.0,flower4.jpg,,,,16.0,right,1.0,1.6385,4.0,flower5_pair.jpg,flower5.jpg,right,A2LB6A57BDB1X0
159,9,5.0,flower5.jpg,,,,17.0,left,1.0,1.7614,5.0,flower6.jpg,flower6_pair.jpg,left,A2LB6A57BDB1X0
160,10,6.0,flower6.jpg,,,,,,,,,,,,A2LB6A57BDB1X0
161,4,0.0,flower1.jpg,,,,12.0,left,1.0,1.5458,0.0,flower1.jpg,flower1_pair.jpg,left,ACXPNVY0QDNHR
162,5,1.0,flower2.jpg,,,,13.0,right,1.0,2.0419,1.0,flower2_pair.jpg,flower2.jpg,right,ACXPNVY0QDNHR
163,6,2.0,left.jpg,left,0.7555,left,14.0,left,1.0,1.1483,2.0,flower3.jpg,flower3_pair.jpg,left,ACXPNVY0QDNHR
164,7,3.0,flower3.jpg,,,,15.0,left,1.0,1.4893,3.0,flower4.jpg,flower4_pair.jpg,left,ACXPNVY0QDNHR
165,8,4.0,flower4.jpg,,,,16.0,right,1.0,1.7182,4.0,flower5_pair.jpg,flower5.jpg,right,ACXPNVY0QDNHR
166,9,5.0,flower5.jpg,,,,17.0,left,1.0,2.3218,5.0,flower6.jpg,flower6_pair.jpg,left,ACXPNVY0QDNHR
167,10,6.0,flower6.jpg,,,,,,,,,,,,ACXPNVY0QDNHR
168,4,0.0,flower1.jpg,,,,12.0,right,0.0,3.4473,0.0,flower1.jpg,flower1_pair.jpg,left,ACNQDKXV6Z7DD
169,5,1.0,flower2.jpg,,,,13.0,right,1.0,0.2947,1.0,flower2_pair.jpg,flower2.jpg,right,ACNQDKXV6Z7DD
170,6,2.0,left.jpg,left,1.4044,left,14.0,right,0.0,0.1027,2.0,flower3.jpg,flower3_pair.jpg,left,ACNQDKXV6Z7DD
171,7,3.0,flower3.jpg,,,,15.0,right,0.0,0.4025,3.0,flower4.jpg,flower4_pair.jpg,left,ACNQDKXV6Z7DD
172,8,4.0,flower4.jpg,,,,16.0,right,1.0,0.2025,4.0,flower5_pair.jpg,flower5.jpg,right,ACNQDKXV6Z7DD
173,9,5.0,flower5.jpg,,,,17.0,right,0.0,0.1029,5.0,flower6.jpg,flower6_pair.jpg,left,ACNQDKXV6Z7DD
174,10,6.0,flower6.jpg,,,,,,,,,,,,ACNQDKXV6Z7DD
175,4,0.0,flower1.jpg,,,,12.0,right,0.0,4.588,0.0,flower1.jpg,flower1_pair.jpg,left,AJY73B73U0TG6
176,5,1.0,flower2.jpg,,,,13.0,right,1.0,1.986,1.0,flower2_pair.jpg,flower2.jpg,right,AJY73B73U0TG6
177,6,2.0,left.jpg,left,2.523,left,14.0,left,1.0,1.657,2.0,flower3.jpg,flower3_pair.jpg,left,AJY73B73U0TG6
178,7,3.0,flower3.jpg,,,,15.0,right,0.0,1.966,3.0,flower4.jpg,flower4_pair.jpg,left,AJY73B73U0TG6
179,8,4.0,flower4.jpg,,,,16.0,left,0.0,3.056,4.0,flower5_pair.jpg,flower5.jpg,right,AJY73B73U0TG6
180,9,5.0,flower5.jpg,,,,17.0,left,1.0,2.386,5.0,flower6.jpg,flower6_pair.jpg,left,AJY73B73U0TG6
181,10,6.0,flower6.jpg,,,,,,,,,,,,AJY73B73U0TG6
182,4,0.0,flower1.jpg,,,,12.0,left,1.0,2.9235,0.0,flower1.jpg,flower1_pair.jpg,left,A1AC4JQFYLQFHV
183,5,1.0,flower2.jpg,,,,13.0,left,0.0,1.5106,1.0,flower2_pair.jpg,flower2.jpg,right,A1AC4JQFYLQFHV
184,6,2.0,left.jpg,left,,,14.0,left,1.0,2.3039,2.0,flower3.jpg,flower3_pair.jpg,left,A1AC4JQFYLQFHV
185,7,3.0,flower3.jpg,,,,15.0,right,0.0,1.5106,3.0,flower4.jpg,flower4_pair.jpg,left,A1AC4JQFYLQFHV
186,8,4.0,flower4.jpg,,,,16.0,left,0.0,1.2919,4.0,flower5_pair.jpg,flower5.jpg,right,A1AC4JQFYLQFHV
187,9,5.0,flower5.jpg,,,,17.0,left,1.0,1.4219,5.0,flower6.jpg,flower6_pair.jpg,left,A1AC4JQFYLQFHV
188,10,6.0,flower6.jpg,,,,,,,,,,,,A1AC4JQFYLQFHV
189,4,0.0,flower1.jpg,,,,12.0,left,1.0,5.543,0.0,flower1.jpg,flower1_pair.jpg,left,A165ZC634AIYVY
190,5,1.0,flower2.jpg,,,,13.0,right,1.0,4.37,1.0,flower2_pair.jpg,flower2.jpg,right,A165ZC634AIYVY
191,6,2.0,left.jpg,left,,,14.0,left,1.0,11.564,2.0,flower3.jpg,flower3_pair.jpg,left,A165ZC634AIYVY
192,7,3.0,flower3.jpg,,,,15.0,right,0.0,3.282,3.0,flower4.jpg,flower4_pair.jpg,left,A165ZC634AIYVY
193,8,4.0,flower4.jpg,,,,16.0,right,1.0,2.175,4.0,flower5_pair.jpg,flower5.jpg,right,A165ZC634AIYVY
194,9,5.0,flower5.jpg,,,,17.0,left,1.0,1.75,5.0,flower6.jpg,flower6_pair.jpg,left,A165ZC634AIYVY
195,10,6.0,flower6.jpg,,,,,,,,,,,,A165ZC634AIYVY
196,4,0.0,flower1.jpg,,,,12.0,right,0.0,4.477,0.0,flower1.jpg,flower1_pair.jpg,left,A1CA2CKNFKL1H5
197,5,1.0,flower2.jpg,,,,13.0,right,1.0,2.759,1.0,flower2_pair.jpg,flower2.jpg,right,A1CA2CKNFKL1H5
198,6,2.0,left.jpg,left,,,14.0,right,0.0,2.776,2.0,flower3.jpg,flower3_pair.jpg,left,A1CA2CKNFKL1H5
199,7,3.0,flower3.jpg,,,,15.0,right,0.0,1.389,3.0,flower4.jpg,flower4_pair.jpg,left,A1CA2CKNFKL1H5
200,8,4.0,flower4.jpg,,,,16.0,left,0.0,2.004,4.0,flower5_pair.jpg,flower5.jpg,right,A1CA2CKNFKL1H5
201,9,5.0,flower5.jpg,,,,17.0,right,0.0,2.165,5.0,flower6.jpg,flower6_pair.jpg,left,A1CA2CKNFKL1H5
202,10,6.0,flower6.jpg,,,,,,,,,,,,A1CA2CKNFKL1H5
203,4,0.0,flower1.jpg,,,,12.0,right,0.0,43.2839,0.0,flower1.jpg,flower1_pair.jpg,left,AE2VPQ86DH4W5
204,5,1.0,flower2.jpg,,,,13.0,right,1.0,0.1071,1.0,flower2_pair.jpg,flower2.jpg,right,AE2VPQ86DH4W5
205,6,2.0,left.jpg,left,,,14.0,right,0.0,0.2133,2.0,flower3.jpg,flower3_pair.jpg,left,AE2VPQ86DH4W5
206,7,3.0,flower3.jpg,,,,15.0,right,0.0,0.1085,3.0,flower4.jpg,flower4_pair.jpg,left,AE2VPQ86DH4W5
207,8,4.0,flower4.jpg,,,,16.0,right,1.0,0.4101,4.0,flower5_pair.jpg,flower5.jpg,right,AE2VPQ86DH4W5
208,9,5.0,flower5.jpg,,,,17.0,right,0.0,0.1109,5.0,flower6.jpg,flower6_pair.jpg,left,AE2VPQ86DH4W5
209,10,6.0,flower6.jpg,,,,,,,,,,,,AE2VPQ86DH4W5
