,index,test_encoding_response.keys,test_encoding_response.corr,trials.thisTrialN,target_image,pair,layer,correct,test_encoding_response.rt,key_resp_end.keys,subject
0,20,,1.0,0.0,2986451363-73599.jpg,2238434559-90406.jpg,3.0,,,,A33U3GZXTFC4M4
1,21,,1.0,1.0,2460547508-51571.jpg,2901941438-69835.jpg,3.0,,,,A33U3GZXTFC4M4
2,22,,1.0,2.0,2898635428-69104.jpg,2901943411-292945.jpg,2.0,,,,A33U3GZXTFC4M4
3,23,,1.0,3.0,2592379964-131054.jpg,2238479053-19457.jpg,2.0,,,,A33U3GZXTFC4M4
4,24,,1.0,4.0,2238480677-317399.jpg,2238573546-258454.jpg,2.0,,,,A33U3GZXTFC4M4
5,25,,1.0,5.0,2981231403-71642.jpg,2427873763-47290.jpg,3.0,,,,A33U3GZXTFC4M4
6,26,,1.0,6.0,2901939379-143480.jpg,2981229442-369621.jpg,2.0,,,,A33U3GZXTFC4M4
7,27,left,1.0,7.0,left.jpg,,,left,2.1744,,A33U3GZXTFC4M4
8,28,,1.0,8.0,2460547467-349421.jpg,2898631394-142727.jpg,1.0,,,,A33U3GZXTFC4M4
9,29,,1.0,9.0,2575120738-55529.jpg,2575120738-55528.jpg,2.0,,,,A33U3GZXTFC4M4
10,30,,1.0,10.0,2592380177-354629.jpg,2512875587-350044.jpg,3.0,,,,A33U3GZXTFC4M4
11,31,,1.0,11.0,2868474407-362883.jpg,2981246400-220363.jpg,2.0,,,,A33U3GZXTFC4M4
12,32,,1.0,12.0,2238560245-182099.jpg,2592380255-205553.jpg,1.0,,,,A33U3GZXTFC4M4
13,33,,1.0,13.0,2901952513-70703.jpg,2864907361-287062.jpg,1.0,,,,A33U3GZXTFC4M4
14,34,,1.0,14.0,2512875899-126682.jpg,2986447332-371497.jpg,3.0,,,,A33U3GZXTFC4M4
15,35,,1.0,15.0,2449442529-124445.jpg,2452380171-273112.jpg,1.0,,,,A33U3GZXTFC4M4
16,36,,1.0,16.0,2898635427-367120.jpg,2898621427-366486.jpg,3.0,,,,A33U3GZXTFC4M4
17,37,right,1.0,17.0,right.jpg,,,right,2.0719,,A33U3GZXTFC4M4
18,38,,1.0,18.0,2898617468-68274.jpg,2901943387-368037.jpg,2.0,,,,A33U3GZXTFC4M4
19,39,,1.0,19.0,2874302418-65979.jpg,2237857458-1325.jpg,1.0,,,,A33U3GZXTFC4M4
20,40,,1.0,20.0,2901947423-70311.jpg,2238573447-333826.jpg,2.0,,,,A33U3GZXTFC4M4
21,41,,1.0,21.0,2446759803-49249.jpg,2446760601-272099.jpg,1.0,,,,A33U3GZXTFC4M4
22,42,,1.0,22.0,2986451363-73598.jpg,2984628361-295995.jpg,2.0,,,,A33U3GZXTFC4M4
23,43,,1.0,23.0,2864907432-362042.jpg,2989726338-74002.jpg,3.0,,,,A33U3GZXTFC4M4
24,44,,1.0,24.0,2898634397-367080.jpg,2901934408-69289.jpg,2.0,,,,A33U3GZXTFC4M4
25,45,,1.0,25.0,2238580740-186218.jpg,2238521193-26285.jpg,2.0,,,,A33U3GZXTFC4M4
26,46,,1.0,26.0,2446758985-197609.jpg,2981240424-145795.jpg,1.0,,,,A33U3GZXTFC4M4
27,47,right,1.0,27.0,right.jpg,,,right,2.0416,,A33U3GZXTFC4M4
28,48,,1.0,28.0,2868475410-213219.jpg,2901946465-218350.jpg,1.0,,,,A33U3GZXTFC4M4
29,49,,1.0,29.0,2452381505-199546.jpg,2901938432-367627.jpg,1.0,,,,A33U3GZXTFC4M4
30,50,,1.0,30.0,2964218374-144967.jpg,2446759306-271734.jpg,2.0,,,,A33U3GZXTFC4M4
31,51,,1.0,31.0,2898624426-291546.jpg,2981236443-71859.jpg,2.0,,,,A33U3GZXTFC4M4
32,52,,1.0,32.0,2238481928-19949.jpg,2981241419-145844.jpg,3.0,,,,A33U3GZXTFC4M4
33,53,,1.0,33.0,2874301407-363895.jpg,2446761374-124213.jpg,1.0,,,,A33U3GZXTFC4M4
34,54,,1.0,34.0,2238428357-313623.jpg,2984615361-295509.jpg,2.0,,,,A33U3GZXTFC4M4
35,55,,1.0,35.0,2964213381-294060.jpg,2964213381-294061.jpg,3.0,,,,A33U3GZXTFC4M4
36,56,,1.0,36.0,2874302418-65978.jpg,2238481198-19823.jpg,2.0,,,,A33U3GZXTFC4M4
37,57,,1.0,37.0,2964216465-219242.jpg,2898619327-366362.jpg,3.0,,,,A33U3GZXTFC4M4
38,58,,1.0,38.0,2898618390-216538.jpg,2901939327-367670.jpg,2.0,,,,A33U3GZXTFC4M4
39,59,right,1.0,39.0,right.jpg,,,right,1.8304,,A33U3GZXTFC4M4
40,60,,1.0,40.0,2592380177-354626.jpg,2238117096-228518.jpg,3.0,,,,A33U3GZXTFC4M4
41,61,,1.0,41.0,2883268412-365898.jpg,2238436252-314037.jpg,3.0,,,,A33U3GZXTFC4M4
42,62,,1.0,42.0,2874299429-139695.jpg,2446760917-347439.jpg,3.0,,,,A33U3GZXTFC4M4
43,63,,1.0,43.0,2901939379-143479.jpg,2460547467-349423.jpg,1.0,,,,A33U3GZXTFC4M4
44,64,,1.0,44.0,2964223381-294447.jpg,2427874231-269884.jpg,1.0,,,,A33U3GZXTFC4M4
45,65,,1.0,45.0,2964222378-71332.jpg,2981240427-370099.jpg,3.0,,,,A33U3GZXTFC4M4
46,66,left,1.0,46.0,left.jpg,,,left,1.9327,,A33U3GZXTFC4M4
47,67,,1.0,47.0,2901941401-292798.jpg,2898618327-366317.jpg,1.0,,,,A33U3GZXTFC4M4
48,68,,1.0,48.0,2874303365-214262.jpg,2274829821-263682.jpg,1.0,,,,A33U3GZXTFC4M4
49,69,,1.0,49.0,2238481198-19822.jpg,2238480803-19737.jpg,3.0,,,,A33U3GZXTFC4M4
50,70,,1.0,50.0,2883273443-68193.jpg,2898627427-366763.jpg,3.0,,,,A33U3GZXTFC4M4
51,71,,1.0,51.0,2238572663-35822.jpg,2864903351-286874.jpg,3.0,,,,A33U3GZXTFC4M4
52,72,,1.0,52.0,2981241414-145842.jpg,2238516618-25604.jpg,1.0,,,,A33U3GZXTFC4M4
53,73,,1.0,53.0,2874299429-139694.jpg,2981244403-72215.jpg,2.0,,,,A33U3GZXTFC4M4
54,74,,1.0,54.0,2898633421-291973.jpg,2512876023-52283.jpg,1.0,,,,A33U3GZXTFC4M4
55,75,,1.0,55.0,2864910426-287204.jpg,2883268412-365899.jpg,2.0,,,,A33U3GZXTFC4M4
56,76,,1.0,56.0,2449442529-124446.jpg,2460547536-274181.jpg,2.0,,,,A33U3GZXTFC4M4
57,77,,1.0,57.0,2460547467-349422.jpg,2864909447-362146.jpg,3.0,,,,A33U3GZXTFC4M4
58,78,,1.0,58.0,2238425482-313537.jpg,2238471391-240918.jpg,1.0,,,,A33U3GZXTFC4M4
59,79,,1.0,59.0,2898618444-142233.jpg,2238555262-330312.jpg,2.0,,,,A33U3GZXTFC4M4
60,80,,1.0,60.0,2874307433-66280.jpg,2984615358-72439.jpg,1.0,,,,A33U3GZXTFC4M4
61,81,,1.0,61.0,2883268471-290842.jpg,2883268471-290843.jpg,1.0,,,,A33U3GZXTFC4M4
62,82,,1.0,62.0,2458347385-199723.jpg,2238480434-93829.jpg,1.0,,,,A33U3GZXTFC4M4
63,83,,1.0,63.0,2883256307-365057.jpg,2864904453-63933.jpg,3.0,,,,A33U3GZXTFC4M4
64,84,,1.0,64.0,2452380832-348593.jpg,2237858942-299356.jpg,3.0,,,,A33U3GZXTFC4M4
65,20,,1.0,0.0,2238428357-313623.jpg,2984615361-295509.jpg,2.0,,,,A3POUEYN59J30P
66,21,,1.0,1.0,2898617468-68274.jpg,2964207374-144577.jpg,3.0,,,,A3POUEYN59J30P
67,22,,1.0,2.0,2874301407-363895.jpg,2901947323-70275.jpg,3.0,,,,A3POUEYN59J30P
68,23,,1.0,3.0,2964216465-219242.jpg,2898619327-366362.jpg,3.0,,,,A3POUEYN59J30P
69,24,,1.0,4.0,2981241414-145842.jpg,2874301404-139813.jpg,2.0,,,,A3POUEYN59J30P
70,25,,1.0,5.0,2512875899-126682.jpg,2592380177-354628.jpg,2.0,,,,A3POUEYN59J30P
71,26,,1.0,6.0,2868475410-213219.jpg,2901946465-218350.jpg,1.0,,,,A3POUEYN59J30P
72,27,,1.0,7.0,2452380832-348593.jpg,2238328478-11678.jpg,1.0,,,,A3POUEYN59J30P
73,28,,0.0,8.0,right.jpg,,,right,,,A3POUEYN59J30P
74,29,,1.0,9.0,2874299429-139694.jpg,2981244403-72215.jpg,2.0,,,,A3POUEYN59J30P
75,30,,1.0,10.0,2446758985-197609.jpg,2864909447-362144.jpg,2.0,,,,A3POUEYN59J30P
76,31,,1.0,11.0,2901941401-292798.jpg,2898631468-68931.jpg,3.0,,,,A3POUEYN59J30P
77,32,,1.0,12.0,2575120738-55529.jpg,2238531493-28260.jpg,3.0,,,,A3POUEYN59J30P
78,33,,1.0,13.0,2868474407-362883.jpg,2981246400-220363.jpg,2.0,,,,A3POUEYN59J30P
79,34,,1.0,14.0,2964222378-71332.jpg,2981240424-145794.jpg,1.0,,,,A3POUEYN59J30P
80,35,,1.0,15.0,2883273443-68193.jpg,2898627427-366763.jpg,3.0,,,,A3POUEYN59J30P
81,36,,1.0,16.0,2238425482-313537.jpg,2238471391-240918.jpg,1.0,,,,A3POUEYN59J30P
82,37,,1.0,17.0,2986451363-73598.jpg,2901942443-69925.jpg,3.0,,,,A3POUEYN59J30P
83,38,,1.0,18.0,2874299429-139695.jpg,2901942443-69923.jpg,2.0,,,,A3POUEYN59J30P
84,39,,1.0,19.0,2898633421-291973.jpg,2512876023-52283.jpg,1.0,,,,A3POUEYN59J30P
85,40,,1.0,20.0,2460547508-51571.jpg,2901941438-69835.jpg,3.0,,,,A3POUEYN59J30P
86,41,,0.0,21.0,left.jpg,,,left,,,A3POUEYN59J30P
87,42,,1.0,22.0,2874302418-65978.jpg,2964224310-219528.jpg,1.0,,,,A3POUEYN59J30P
88,43,,1.0,23.0,2964223381-294447.jpg,2427874231-269884.jpg,1.0,,,,A3POUEYN59J30P
89,44,,1.0,24.0,2898635428-69104.jpg,2446759803-49250.jpg,1.0,,,,A3POUEYN59J30P
90,45,,1.0,25.0,2592380177-354626.jpg,2864901386-286797.jpg,2.0,,,,A3POUEYN59J30P
91,46,,1.0,26.0,2238481198-19822.jpg,2238480803-19737.jpg,3.0,,,,A3POUEYN59J30P
92,47,,1.0,27.0,2964213381-294060.jpg,2458348012-349114.jpg,2.0,,,,A3POUEYN59J30P
93,48,,1.0,28.0,2238580740-186218.jpg,2964220333-71258.jpg,3.0,,,,A3POUEYN59J30P
94,49,,1.0,29.0,2964218374-144967.jpg,2964218374-144968.jpg,1.0,,,,A3POUEYN59J30P
95,50,,1.0,30.0,2981231403-71642.jpg,2579432519-130698.jpg,1.0,,,,A3POUEYN59J30P
96,51,,1.0,31.0,2901939379-143480.jpg,2901942428-69919.jpg,1.0,,,,A3POUEYN59J30P
97,52,,0.0,32.0,right.jpg,,,right,,,A3POUEYN59J30P
98,53,,1.0,33.0,2449442529-124445.jpg,2452380171-273112.jpg,1.0,,,,A3POUEYN59J30P
99,54,,1.0,34.0,2460547467-349422.jpg,2864909447-362146.jpg,3.0,,,,A3POUEYN59J30P
100,55,,1.0,35.0,2901952513-70703.jpg,2238481198-19821.jpg,3.0,,,,A3POUEYN59J30P
101,56,,1.0,36.0,2446759803-49249.jpg,2901951392-368654.jpg,3.0,,,,A3POUEYN59J30P
102,57,,1.0,37.0,2864910426-287204.jpg,2883268412-365899.jpg,2.0,,,,A3POUEYN59J30P
103,58,,1.0,38.0,2901947423-70311.jpg,2238577590-185467.jpg,3.0,,,,A3POUEYN59J30P
104,59,,1.0,39.0,2883256307-365057.jpg,2611628310-206388.jpg,1.0,,,,A3POUEYN59J30P
105,60,,1.0,40.0,2238560245-182099.jpg,2874314526-289684.jpg,2.0,,,,A3POUEYN59J30P
106,61,,1.0,41.0,2592380177-354629.jpg,2579432534-130704.jpg,2.0,,,,A3POUEYN59J30P
107,62,,1.0,42.0,2898618444-142233.jpg,2238555262-330312.jpg,2.0,,,,A3POUEYN59J30P
108,63,,1.0,43.0,2238572663-35822.jpg,2864903351-286874.jpg,3.0,,,,A3POUEYN59J30P
109,64,,0.0,44.0,left.jpg,,,left,,,A3POUEYN59J30P
110,65,,1.0,45.0,2883268471-290842.jpg,2901947448-70314.jpg,3.0,,,,A3POUEYN59J30P
111,66,,1.0,46.0,2238480677-317399.jpg,2238573546-258454.jpg,2.0,,,,A3POUEYN59J30P
112,67,,1.0,47.0,2592379964-131054.jpg,2575963989-130576.jpg,1.0,,,,A3POUEYN59J30P
113,68,,0.0,48.0,left.jpg,,,left,,,A3POUEYN59J30P
114,69,,1.0,49.0,2898624426-291546.jpg,2981236443-71859.jpg,2.0,,,,A3POUEYN59J30P
115,70,,1.0,50.0,2986451363-73599.jpg,2898626385-216899.jpg,1.0,,,,A3POUEYN59J30P
116,71,,1.0,51.0,2452381505-199546.jpg,2898632385-217138.jpg,2.0,,,,A3POUEYN59J30P
117,72,,1.0,52.0,2460547467-349421.jpg,2898631394-142727.jpg,1.0,,,,A3POUEYN59J30P
118,73,,1.0,53.0,2898618390-216538.jpg,2901939327-367670.jpg,2.0,,,,A3POUEYN59J30P
119,74,,1.0,54.0,2449442529-124446.jpg,2446759803-49251.jpg,1.0,,,,A3POUEYN59J30P
120,75,,1.0,55.0,2864907432-362042.jpg,2989726338-74002.jpg,3.0,,,,A3POUEYN59J30P
121,76,,1.0,56.0,2901939379-143479.jpg,2446758985-197610.jpg,2.0,,,,A3POUEYN59J30P
122,77,,1.0,57.0,2898635427-367120.jpg,2868479517-363220.jpg,2.0,,,,A3POUEYN59J30P
123,78,,1.0,58.0,2458347385-199723.jpg,2238480434-93829.jpg,1.0,,,,A3POUEYN59J30P
124,79,,1.0,59.0,2883268412-365898.jpg,2238436252-314037.jpg,3.0,,,,A3POUEYN59J30P
125,80,,1.0,60.0,2874303365-214262.jpg,2274829821-263682.jpg,1.0,,,,A3POUEYN59J30P
126,81,,1.0,61.0,2898634397-367080.jpg,2237944827-301472.jpg,1.0,,,,A3POUEYN59J30P
127,82,,1.0,62.0,2874307433-66280.jpg,2981231422-369714.jpg,3.0,,,,A3POUEYN59J30P
128,83,,1.0,63.0,2874302418-65979.jpg,2238578544-111698.jpg,3.0,,,,A3POUEYN59J30P
129,84,,1.0,64.0,2238481928-19949.jpg,2864900357-361688.jpg,2.0,,,,A3POUEYN59J30P
130,20,,1.0,0.0,2874299429-139695.jpg,2883266388-67750.jpg,1.0,,,,A208F2PSMBFG0R
131,21,,1.0,1.0,2458347385-199723.jpg,2238480434-93829.jpg,1.0,,,,A208F2PSMBFG0R
132,22,,1.0,2.0,2868475410-213219.jpg,2238480803-19739.jpg,2.0,,,,A208F2PSMBFG0R
133,23,,1.0,3.0,2901941401-292798.jpg,2981243412-370222.jpg,2.0,,,,A208F2PSMBFG0R
134,24,,1.0,4.0,2874307433-66280.jpg,2981231422-369714.jpg,3.0,,,,A208F2PSMBFG0R
135,25,,1.0,5.0,2874302418-65978.jpg,2238481198-19823.jpg,2.0,,,,A208F2PSMBFG0R
136,26,,1.0,6.0,2592380177-354626.jpg,2864901386-286797.jpg,2.0,,,,A208F2PSMBFG0R
137,27,,1.0,7.0,2238560245-182099.jpg,2874314526-289684.jpg,2.0,,,,A208F2PSMBFG0R
138,28,,1.0,8.0,2898618390-216538.jpg,2237856148-989.jpg,1.0,,,,A208F2PSMBFG0R
139,29,,1.0,9.0,2883273443-68193.jpg,2460547508-51572.jpg,2.0,,,,A208F2PSMBFG0R
140,30,,1.0,10.0,2460547467-349422.jpg,2898618440-216545.jpg,1.0,,,,A208F2PSMBFG0R
141,31,,1.0,11.0,2864907432-362042.jpg,2989726338-74002.jpg,3.0,,,,A208F2PSMBFG0R
142,32,left,1.0,12.0,left.jpg,,,left,2.291,,A208F2PSMBFG0R
143,33,,1.0,13.0,2981231403-71642.jpg,2874305405-214397.jpg,2.0,,,,A208F2PSMBFG0R
144,34,,1.0,14.0,2986451363-73599.jpg,2238434559-90406.jpg,3.0,,,,A208F2PSMBFG0R
145,35,,1.0,15.0,2864910426-287204.jpg,2864902304-137862.jpg,1.0,,,,A208F2PSMBFG0R
146,36,,1.0,16.0,2986451363-73598.jpg,2237857458-1324.jpg,1.0,,,,A208F2PSMBFG0R
147,37,,1.0,17.0,2874302418-65979.jpg,2238578544-111698.jpg,3.0,,,,A208F2PSMBFG0R
148,38,,1.0,18.0,2592380177-354629.jpg,2898633421-291974.jpg,1.0,,,,A208F2PSMBFG0R
149,39,,1.0,19.0,2238580740-186218.jpg,2238550816-254000.jpg,1.0,,,,A208F2PSMBFG0R
150,40,,1.0,20.0,2446759803-49249.jpg,2898618440-216547.jpg,2.0,,,,A208F2PSMBFG0R
151,41,,1.0,21.0,2898617468-68274.jpg,2901946439-144040.jpg,1.0,,,,A208F2PSMBFG0R
152,42,right,1.0,22.0,right.jpg,,,right,2.589,,A208F2PSMBFG0R
153,43,,1.0,23.0,2874303365-214262.jpg,2864911457-362260.jpg,3.0,,,,A208F2PSMBFG0R
154,44,,1.0,24.0,2238428357-313623.jpg,2986408339-146952.jpg,3.0,,,,A208F2PSMBFG0R
155,45,,1.0,25.0,2901939379-143479.jpg,2964216376-294181.jpg,3.0,,,,A208F2PSMBFG0R
156,46,,1.0,26.0,2964223381-294447.jpg,2427874231-269884.jpg,1.0,,,,A208F2PSMBFG0R
157,47,,1.0,27.0,2592379964-131054.jpg,2238479053-19457.jpg,2.0,,,,A208F2PSMBFG0R
158,48,,1.0,28.0,2898633421-291973.jpg,2575118671-277663.jpg,2.0,,,,A208F2PSMBFG0R
159,49,,1.0,29.0,2238481928-19949.jpg,2883264367-365620.jpg,1.0,,,,A208F2PSMBFG0R
160,50,,1.0,30.0,2452380832-348593.jpg,2237858942-299356.jpg,3.0,,,,A208F2PSMBFG0R
161,51,left,1.0,31.0,left.jpg,,,left,1.65,,A208F2PSMBFG0R
162,52,,1.0,32.0,2874299429-139694.jpg,2986447306-296584.jpg,1.0,,,,A208F2PSMBFG0R
163,53,,1.0,33.0,2901947423-70311.jpg,2238577590-185467.jpg,3.0,,,,A208F2PSMBFG0R
164,54,,1.0,34.0,2868474407-362883.jpg,2901948383-70363.jpg,3.0,,,,A208F2PSMBFG0R
165,55,,1.0,35.0,2898618444-142233.jpg,2898618444-142232.jpg,3.0,,,,A208F2PSMBFG0R
166,56,,1.0,36.0,2901952513-70703.jpg,2864907361-287062.jpg,1.0,,,,A208F2PSMBFG0R
167,57,,1.0,37.0,2238425482-313537.jpg,2898633480-217190.jpg,3.0,,,,A208F2PSMBFG0R
168,58,,1.0,38.0,2452381505-199546.jpg,2994401319-148290.jpg,3.0,,,,A208F2PSMBFG0R
169,59,,1.0,39.0,2898624426-291546.jpg,2981236443-71859.jpg,2.0,,,,A208F2PSMBFG0R
170,60,,1.0,40.0,2575120738-55529.jpg,2575120738-55528.jpg,2.0,,,,A208F2PSMBFG0R
171,61,,1.0,41.0,2512875899-126682.jpg,2986447332-371497.jpg,3.0,,,,A208F2PSMBFG0R
172,62,,1.0,42.0,2460547467-349421.jpg,2898631394-142727.jpg,1.0,,,,A208F2PSMBFG0R
173,63,,1.0,43.0,2964213381-294060.jpg,2981244394-145974.jpg,1.0,,,,A208F2PSMBFG0R
174,64,left,1.0,44.0,left.jpg,,,left,1.884,,A208F2PSMBFG0R
175,65,,1.0,45.0,2898634397-367080.jpg,2237944827-301472.jpg,1.0,,,,A208F2PSMBFG0R
176,66,,1.0,46.0,2964222378-71332.jpg,2981240427-370099.jpg,3.0,,,,A208F2PSMBFG0R
177,67,left,1.0,47.0,left.jpg,,,left,1.796,,A208F2PSMBFG0R
178,68,,1.0,48.0,2449442529-124445.jpg,2986408373-73286.jpg,2.0,,,,A208F2PSMBFG0R
179,69,,1.0,49.0,2981241414-145842.jpg,2238516618-25604.jpg,1.0,,,,A208F2PSMBFG0R
180,70,,1.0,50.0,2964218374-144967.jpg,2981231446-294732.jpg,3.0,,,,A208F2PSMBFG0R
181,71,,1.0,51.0,2460547508-51571.jpg,2981232437-369759.jpg,2.0,,,,A208F2PSMBFG0R
182,72,,1.0,52.0,2901939379-143480.jpg,2981229442-369621.jpg,2.0,,,,A208F2PSMBFG0R
183,73,,1.0,53.0,2964216465-219242.jpg,2238544191-252422.jpg,1.0,,,,A208F2PSMBFG0R
184,74,,1.0,54.0,2449442529-124446.jpg,2460547536-274178.jpg,3.0,,,,A208F2PSMBFG0R
185,75,,1.0,55.0,2898635427-367120.jpg,2898621427-366486.jpg,3.0,,,,A208F2PSMBFG0R
186,76,,1.0,56.0,2898635428-69104.jpg,2898625336-291572.jpg,3.0,,,,A208F2PSMBFG0R
187,77,,1.0,57.0,2446758985-197609.jpg,2981240424-145795.jpg,1.0,,,,A208F2PSMBFG0R
188,78,,1.0,58.0,2883268412-365898.jpg,2984615361-295510.jpg,2.0,,,,A208F2PSMBFG0R
189,79,,1.0,59.0,2883268471-290842.jpg,2883255450-215310.jpg,2.0,,,,A208F2PSMBFG0R
190,80,,1.0,60.0,2238480677-317399.jpg,2238480278-19661.jpg,3.0,,,,A208F2PSMBFG0R
191,81,,1.0,61.0,2238481198-19822.jpg,2901946436-293242.jpg,2.0,,,,A208F2PSMBFG0R
192,82,,1.0,62.0,2883256307-365057.jpg,2964210336-293945.jpg,2.0,,,,A208F2PSMBFG0R
193,83,,1.0,63.0,2874301407-363895.jpg,2446761374-124213.jpg,1.0,,,,A208F2PSMBFG0R
194,84,,1.0,64.0,2238572663-35822.jpg,2238571930-184143.jpg,2.0,,,,A208F2PSMBFG0R
195,20,,1.0,0.0,2449442529-124445.jpg,2986408373-73286.jpg,2.0,,,,A1AD2BDQYTTJIL
196,21,,1.0,1.0,2901941401-292798.jpg,2898631468-68931.jpg,3.0,,,,A1AD2BDQYTTJIL
197,22,,1.0,2.0,2898618390-216538.jpg,2575120609-129862.jpg,3.0,,,,A1AD2BDQYTTJIL
198,23,,1.0,3.0,2964213381-294060.jpg,2981244394-145974.jpg,1.0,,,,A1AD2BDQYTTJIL
199,24,,1.0,4.0,2592380177-354626.jpg,2238117096-228518.jpg,3.0,,,,A1AD2BDQYTTJIL
200,25,,1.0,5.0,2446758985-197609.jpg,2864909447-362144.jpg,2.0,,,,A1AD2BDQYTTJIL
201,26,,1.0,6.0,2460547508-51571.jpg,2981232437-369759.jpg,2.0,,,,A1AD2BDQYTTJIL
202,27,,1.0,7.0,2883273443-68193.jpg,2898627427-366763.jpg,3.0,,,,A1AD2BDQYTTJIL
203,28,,1.0,8.0,2981231403-71642.jpg,2874305405-214397.jpg,2.0,,,,A1AD2BDQYTTJIL
204,29,left,1.0,9.0,left.jpg,,,left,1.804,,A1AD2BDQYTTJIL
205,30,,1.0,10.0,2238425482-313537.jpg,2238471391-240918.jpg,1.0,,,,A1AD2BDQYTTJIL
206,31,,1.0,11.0,2592380177-354629.jpg,2579432534-130704.jpg,2.0,,,,A1AD2BDQYTTJIL
207,32,,1.0,12.0,2460547467-349421.jpg,2981235446-294901.jpg,3.0,,,,A1AD2BDQYTTJIL
208,33,,1.0,13.0,2898618444-142233.jpg,2898631359-142721.jpg,1.0,,,,A1AD2BDQYTTJIL
209,34,,1.0,14.0,2575120738-55529.jpg,2238531493-28260.jpg,3.0,,,,A1AD2BDQYTTJIL
210,35,,1.0,15.0,2898633421-291973.jpg,2512876023-52283.jpg,1.0,,,,A1AD2BDQYTTJIL
211,36,,1.0,16.0,2458347385-199723.jpg,2238480434-93829.jpg,1.0,,,,A1AD2BDQYTTJIL
212,37,,1.0,17.0,2964216465-219242.jpg,2864900319-137787.jpg,2.0,,,,A1AD2BDQYTTJIL
213,38,,1.0,18.0,2238428357-313623.jpg,2984615361-295509.jpg,2.0,,,,A1AD2BDQYTTJIL
214,39,,1.0,19.0,2864910426-287204.jpg,2864902304-137862.jpg,1.0,,,,A1AD2BDQYTTJIL
215,40,right,1.0,20.0,right.jpg,,,right,2.353,,A1AD2BDQYTTJIL
216,41,,1.0,21.0,2238572663-35822.jpg,2864903351-286874.jpg,3.0,,,,A1AD2BDQYTTJIL
217,42,,1.0,22.0,2898635428-69104.jpg,2898625336-291572.jpg,3.0,,,,A1AD2BDQYTTJIL
218,43,,1.0,23.0,2238580740-186218.jpg,2238550816-254000.jpg,1.0,,,,A1AD2BDQYTTJIL
219,44,,1.0,24.0,2901939379-143480.jpg,2898632385-217139.jpg,3.0,,,,A1AD2BDQYTTJIL
220,45,,1.0,25.0,2898624426-291546.jpg,2981235446-294900.jpg,3.0,,,,A1AD2BDQYTTJIL
221,46,,1.0,26.0,2874303365-214262.jpg,2864911457-362260.jpg,3.0,,,,A1AD2BDQYTTJIL
222,47,,1.0,27.0,2874302418-65979.jpg,2238578544-111698.jpg,3.0,,,,A1AD2BDQYTTJIL
223,48,,1.0,28.0,2592379964-131054.jpg,2238479053-19457.jpg,2.0,,,,A1AD2BDQYTTJIL
224,49,,1.0,29.0,2238480677-317399.jpg,2238573546-258454.jpg,2.0,,,,A1AD2BDQYTTJIL
225,50,,1.0,30.0,2901952513-70703.jpg,2868469411-287540.jpg,2.0,,,,A1AD2BDQYTTJIL
226,51,,1.0,31.0,2452380832-348593.jpg,2238328478-11678.jpg,1.0,,,,A1AD2BDQYTTJIL
227,52,,1.0,32.0,2874299429-139694.jpg,2986447306-296584.jpg,1.0,,,,A1AD2BDQYTTJIL
228,53,,1.0,33.0,2449442529-124446.jpg,2446759803-49251.jpg,1.0,,,,A1AD2BDQYTTJIL
229,54,,0.0,34.0,left.jpg,,,left,,,A1AD2BDQYTTJIL
230,55,,1.0,35.0,2874307433-66280.jpg,2981246400-220365.jpg,2.0,,,,A1AD2BDQYTTJIL
231,56,,1.0,36.0,2864907432-362042.jpg,2864901420-212147.jpg,1.0,,,,A1AD2BDQYTTJIL
232,57,,1.0,37.0,2874299429-139695.jpg,2901942443-69923.jpg,2.0,,,,A1AD2BDQYTTJIL
233,58,,1.0,38.0,2898634397-367080.jpg,2901934408-69289.jpg,2.0,,,,A1AD2BDQYTTJIL
234,59,,1.0,39.0,2512875899-126682.jpg,2592380177-354628.jpg,2.0,,,,A1AD2BDQYTTJIL
235,60,,1.0,40.0,2238481198-19822.jpg,2862691449-137104.jpg,1.0,,,,A1AD2BDQYTTJIL
236,61,,1.0,41.0,2981241414-145842.jpg,2874301404-139813.jpg,2.0,,,,A1AD2BDQYTTJIL
237,62,,1.0,42.0,2238560245-182099.jpg,2238480980-168129.jpg,3.0,,,,A1AD2BDQYTTJIL
238,63,,0.0,43.0,left.jpg,,,left,,,A1AD2BDQYTTJIL
239,64,,1.0,44.0,2883268471-290842.jpg,2901947448-70314.jpg,3.0,,,,A1AD2BDQYTTJIL
240,65,,1.0,45.0,2964218374-144967.jpg,2446759306-271734.jpg,2.0,,,,A1AD2BDQYTTJIL
241,66,,1.0,46.0,2874302418-65978.jpg,2964224310-219528.jpg,1.0,,,,A1AD2BDQYTTJIL
242,67,,1.0,47.0,2901939379-143479.jpg,2964216376-294181.jpg,3.0,,,,A1AD2BDQYTTJIL
243,68,,0.0,48.0,right.jpg,,,right,,,A1AD2BDQYTTJIL
244,69,,1.0,49.0,2901947423-70311.jpg,2238573447-333826.jpg,2.0,,,,A1AD2BDQYTTJIL
245,70,,1.0,50.0,2898617468-68274.jpg,2901946439-144040.jpg,1.0,,,,A1AD2BDQYTTJIL
246,71,,1.0,51.0,2898635427-367120.jpg,2964221435-219434.jpg,1.0,,,,A1AD2BDQYTTJIL
247,72,,1.0,52.0,2883256307-365057.jpg,2611628310-206388.jpg,1.0,,,,A1AD2BDQYTTJIL
248,73,,1.0,53.0,2868474407-362883.jpg,2981246400-220363.jpg,2.0,,,,A1AD2BDQYTTJIL
249,74,,1.0,54.0,2446759803-49249.jpg,2901951392-368654.jpg,3.0,,,,A1AD2BDQYTTJIL
250,75,,1.0,55.0,2238481928-19949.jpg,2864900357-361688.jpg,2.0,,,,A1AD2BDQYTTJIL
251,76,,1.0,56.0,2964223381-294447.jpg,2898628438-68785.jpg,3.0,,,,A1AD2BDQYTTJIL
252,77,,1.0,57.0,2964222378-71332.jpg,2981240427-370099.jpg,3.0,,,,A1AD2BDQYTTJIL
253,78,,1.0,58.0,2874301407-363895.jpg,2446761374-124213.jpg,1.0,,,,A1AD2BDQYTTJIL
254,79,,1.0,59.0,2986451363-73599.jpg,2898626385-216899.jpg,1.0,,,,A1AD2BDQYTTJIL
255,80,,1.0,60.0,2986451363-73598.jpg,2984628361-295995.jpg,2.0,,,,A1AD2BDQYTTJIL
256,81,,1.0,61.0,2460547467-349422.jpg,2864909447-362146.jpg,3.0,,,,A1AD2BDQYTTJIL
257,82,,1.0,62.0,2452381505-199546.jpg,2994401319-148290.jpg,3.0,,,,A1AD2BDQYTTJIL
258,83,,1.0,63.0,2868475410-213219.jpg,2901946465-218350.jpg,1.0,,,,A1AD2BDQYTTJIL
259,84,,1.0,64.0,2883268412-365898.jpg,2984626312-370849.jpg,1.0,,,,A1AD2BDQYTTJIL
260,20,,1.0,0.0,2238560245-182099.jpg,2238480980-168129.jpg,3.0,,,,A22PT6K5XNIFLA
261,21,,1.0,1.0,2452381505-199546.jpg,2898632385-217138.jpg,2.0,,,,A22PT6K5XNIFLA
262,22,,1.0,2.0,2868475410-213219.jpg,2868474407-362885.jpg,3.0,,,,A22PT6K5XNIFLA
263,23,,1.0,3.0,2898635428-69104.jpg,2901943411-292945.jpg,2.0,,,,A22PT6K5XNIFLA
264,24,,1.0,4.0,2901939379-143480.jpg,2898632385-217139.jpg,3.0,,,,A22PT6K5XNIFLA
265,25,,1.0,5.0,2901947423-70311.jpg,2860312398-62572.jpg,1.0,,,,A22PT6K5XNIFLA
266,26,,1.0,6.0,2964216465-219242.jpg,2238544191-252422.jpg,1.0,,,,A22PT6K5XNIFLA
267,27,,1.0,7.0,2898618444-142233.jpg,2898631359-142721.jpg,1.0,,,,A22PT6K5XNIFLA
268,28,,1.0,8.0,2964223381-294447.jpg,2901941438-69836.jpg,2.0,,,,A22PT6K5XNIFLA
269,29,,0.0,9.0,left.jpg,,,left,,,A22PT6K5XNIFLA
270,30,,1.0,10.0,2981241414-145842.jpg,2427873848-47312.jpg,3.0,,,,A22PT6K5XNIFLA
271,31,,1.0,11.0,2964218374-144967.jpg,2446759306-271734.jpg,2.0,,,,A22PT6K5XNIFLA
272,32,,1.0,12.0,2460547467-349422.jpg,2898618440-216545.jpg,1.0,,,,A22PT6K5XNIFLA
273,33,,1.0,13.0,2986451363-73599.jpg,2238434559-90406.jpg,3.0,,,,A22PT6K5XNIFLA
274,34,,1.0,14.0,2874307433-66280.jpg,2981231422-369714.jpg,3.0,,,,A22PT6K5XNIFLA
275,35,,1.0,15.0,2458347385-199723.jpg,2238480434-93829.jpg,1.0,,,,A22PT6K5XNIFLA
276,36,,1.0,16.0,2592380177-354629.jpg,2512875587-350044.jpg,3.0,,,,A22PT6K5XNIFLA
277,37,,1.0,17.0,2901941401-292798.jpg,2981243412-370222.jpg,2.0,,,,A22PT6K5XNIFLA
278,38,,1.0,18.0,2592380177-354626.jpg,2864901386-286797.jpg,2.0,,,,A22PT6K5XNIFLA
279,39,,1.0,19.0,2898633421-291973.jpg,2575118671-277663.jpg,2.0,,,,A22PT6K5XNIFLA
280,40,,1.0,20.0,2238572663-35822.jpg,2238571930-184143.jpg,2.0,,,,A22PT6K5XNIFLA
281,41,,1.0,21.0,2449442529-124446.jpg,2446759803-49251.jpg,1.0,,,,A22PT6K5XNIFLA
282,42,,1.0,22.0,2883273443-68193.jpg,2460547508-51572.jpg,2.0,,,,A22PT6K5XNIFLA
283,43,,0.0,23.0,right.jpg,,,right,,,A22PT6K5XNIFLA
284,44,,1.0,24.0,2874302418-65979.jpg,2238578544-111698.jpg,3.0,,,,A22PT6K5XNIFLA
285,45,,1.0,25.0,2883256307-365057.jpg,2611628310-206388.jpg,1.0,,,,A22PT6K5XNIFLA
286,46,,1.0,26.0,2460547467-349421.jpg,2898631394-142727.jpg,1.0,,,,A22PT6K5XNIFLA
287,47,,1.0,27.0,2449442529-124445.jpg,2986408373-73286.jpg,2.0,,,,A22PT6K5XNIFLA
288,48,,1.0,28.0,2874301407-363895.jpg,2446761374-124213.jpg,1.0,,,,A22PT6K5XNIFLA
289,49,,1.0,29.0,2874299429-139694.jpg,2986447306-296584.jpg,1.0,,,,A22PT6K5XNIFLA
290,50,,1.0,30.0,2864907432-362042.jpg,2901947423-70310.jpg,2.0,,,,A22PT6K5XNIFLA
291,51,,0.0,31.0,right.jpg,,,right,,,A22PT6K5XNIFLA
292,52,,1.0,32.0,2898634397-367080.jpg,2964217461-294238.jpg,3.0,,,,A22PT6K5XNIFLA
293,53,,1.0,33.0,2238425482-313537.jpg,2898633480-217190.jpg,3.0,,,,A22PT6K5XNIFLA
294,54,,1.0,34.0,2964222378-71332.jpg,2901933382-367209.jpg,2.0,,,,A22PT6K5XNIFLA
295,55,,1.0,35.0,2898624426-291546.jpg,2981236443-71859.jpg,2.0,,,,A22PT6K5XNIFLA
296,56,,1.0,36.0,2238580740-186218.jpg,2964220333-71258.jpg,3.0,,,,A22PT6K5XNIFLA
297,57,,1.0,37.0,2898618390-216538.jpg,2901939327-367670.jpg,2.0,,,,A22PT6K5XNIFLA
298,58,right,1.0,38.0,right.jpg,,,right,0.194,,A22PT6K5XNIFLA
299,59,,1.0,39.0,2901952513-70703.jpg,2864907361-287062.jpg,1.0,,,,A22PT6K5XNIFLA
300,60,,1.0,40.0,2868474407-362883.jpg,2901948383-70363.jpg,3.0,,,,A22PT6K5XNIFLA
301,61,,1.0,41.0,2592379964-131054.jpg,2238479053-19457.jpg,2.0,,,,A22PT6K5XNIFLA
302,62,,1.0,42.0,2238481198-19822.jpg,2862691449-137104.jpg,1.0,,,,A22PT6K5XNIFLA
303,63,,1.0,43.0,2986451363-73598.jpg,2237857458-1324.jpg,1.0,,,,A22PT6K5XNIFLA
304,64,,1.0,44.0,2981231403-71642.jpg,2874305405-214397.jpg,2.0,,,,A22PT6K5XNIFLA
305,65,,1.0,45.0,2874303365-214262.jpg,2864911457-362260.jpg,3.0,,,,A22PT6K5XNIFLA
306,66,,1.0,46.0,2446758985-197609.jpg,2981240424-145795.jpg,1.0,,,,A22PT6K5XNIFLA
307,67,,1.0,47.0,2864910426-287204.jpg,2883268412-365899.jpg,2.0,,,,A22PT6K5XNIFLA
308,68,,0.0,48.0,left.jpg,,,left,,,A22PT6K5XNIFLA
309,69,,1.0,49.0,2446759803-49249.jpg,2446760601-272099.jpg,1.0,,,,A22PT6K5XNIFLA
310,70,,1.0,50.0,2898617468-68274.jpg,2901943387-368037.jpg,2.0,,,,A22PT6K5XNIFLA
311,71,,1.0,51.0,2452380832-348593.jpg,2237858942-299356.jpg,3.0,,,,A22PT6K5XNIFLA
312,72,,1.0,52.0,2883268412-365898.jpg,2984626312-370849.jpg,1.0,,,,A22PT6K5XNIFLA
313,73,,1.0,53.0,2901939379-143479.jpg,2964216376-294181.jpg,3.0,,,,A22PT6K5XNIFLA
314,74,,1.0,54.0,2964213381-294060.jpg,2458348012-349114.jpg,2.0,,,,A22PT6K5XNIFLA
315,75,,1.0,55.0,2238481928-19949.jpg,2883264367-365620.jpg,1.0,,,,A22PT6K5XNIFLA
316,76,,1.0,56.0,2238480677-317399.jpg,2238480278-19661.jpg,3.0,,,,A22PT6K5XNIFLA
317,77,,1.0,57.0,2238428357-313623.jpg,2984615361-295509.jpg,2.0,,,,A22PT6K5XNIFLA
318,78,,1.0,58.0,2512875899-126682.jpg,2986447332-371497.jpg,3.0,,,,A22PT6K5XNIFLA
319,79,,1.0,59.0,2460547508-51571.jpg,2452380166-273109.jpg,1.0,,,,A22PT6K5XNIFLA
320,80,,1.0,60.0,2874302418-65978.jpg,2964224310-219528.jpg,1.0,,,,A22PT6K5XNIFLA
321,81,,1.0,61.0,2898635427-367120.jpg,2898621427-366486.jpg,3.0,,,,A22PT6K5XNIFLA
322,82,,1.0,62.0,2883268471-290842.jpg,2901947448-70314.jpg,3.0,,,,A22PT6K5XNIFLA
323,83,,1.0,63.0,2874299429-139695.jpg,2883266388-67750.jpg,1.0,,,,A22PT6K5XNIFLA
324,84,,1.0,64.0,2575120738-55529.jpg,2238531493-28260.jpg,3.0,,,,A22PT6K5XNIFLA
325,20,,1.0,0.0,2446758985-197609.jpg,2898624426-291544.jpg,3.0,,,,A2RZYTE48OHTMZ
326,21,,1.0,1.0,2883268471-290842.jpg,2883268471-290843.jpg,1.0,,,,A2RZYTE48OHTMZ
327,22,,1.0,2.0,2901947423-70311.jpg,2238577590-185467.jpg,3.0,,,,A2RZYTE48OHTMZ
328,23,,1.0,3.0,2883268412-365898.jpg,2238436252-314037.jpg,3.0,,,,A2RZYTE48OHTMZ
329,24,,1.0,4.0,2874303365-214262.jpg,2274829821-263682.jpg,1.0,,,,A2RZYTE48OHTMZ
330,25,,1.0,5.0,2446759803-49249.jpg,2901951392-368654.jpg,3.0,,,,A2RZYTE48OHTMZ
331,26,,1.0,6.0,2874302418-65978.jpg,2238481198-19823.jpg,2.0,,,,A2RZYTE48OHTMZ
332,27,,1.0,7.0,2449442529-124445.jpg,2452380171-273112.jpg,1.0,,,,A2RZYTE48OHTMZ
333,28,,1.0,8.0,2592380177-354629.jpg,2579432534-130704.jpg,2.0,,,,A2RZYTE48OHTMZ
334,29,,1.0,9.0,2964216465-219242.jpg,2864900319-137787.jpg,2.0,,,,A2RZYTE48OHTMZ
335,30,,1.0,10.0,2981241414-145842.jpg,2427873848-47312.jpg,3.0,,,,A2RZYTE48OHTMZ
336,31,,1.0,11.0,2964218374-144967.jpg,2964218374-144968.jpg,1.0,,,,A2RZYTE48OHTMZ
337,32,,1.0,12.0,2238481928-19949.jpg,2864900357-361688.jpg,2.0,,,,A2RZYTE48OHTMZ
338,33,,1.0,13.0,2874299429-139694.jpg,2883266367-365742.jpg,3.0,,,,A2RZYTE48OHTMZ
339,34,,0.0,14.0,left.jpg,,,left,,,A2RZYTE48OHTMZ
340,35,,1.0,15.0,2238572663-35822.jpg,2864903351-286874.jpg,3.0,,,,A2RZYTE48OHTMZ
341,36,,1.0,16.0,2964223381-294447.jpg,2427874231-269884.jpg,1.0,,,,A2RZYTE48OHTMZ
342,37,,0.0,17.0,right.jpg,,,right,,,A2RZYTE48OHTMZ
343,38,,1.0,18.0,2460547508-51571.jpg,2981232437-369759.jpg,2.0,,,,A2RZYTE48OHTMZ
344,39,,1.0,19.0,2512875899-126682.jpg,2460547536-274179.jpg,1.0,,,,A2RZYTE48OHTMZ
345,40,,1.0,20.0,2592379964-131054.jpg,2575963989-130576.jpg,1.0,,,,A2RZYTE48OHTMZ
346,41,,1.0,21.0,2883256307-365057.jpg,2611628310-206388.jpg,1.0,,,,A2RZYTE48OHTMZ
347,42,,1.0,22.0,2449442529-124446.jpg,2460547536-274181.jpg,2.0,,,,A2RZYTE48OHTMZ
348,43,,1.0,23.0,2986451363-73598.jpg,2237857458-1324.jpg,1.0,,,,A2RZYTE48OHTMZ
349,44,,1.0,24.0,2460547467-349422.jpg,2864909447-362146.jpg,3.0,,,,A2RZYTE48OHTMZ
350,45,,1.0,25.0,2874299429-139695.jpg,2883266388-67750.jpg,1.0,,,,A2RZYTE48OHTMZ
351,46,,1.0,26.0,2452381505-199546.jpg,2901938432-367627.jpg,1.0,,,,A2RZYTE48OHTMZ
352,47,right,1.0,27.0,right.jpg,,,right,0.98,,A2RZYTE48OHTMZ
353,48,,1.0,28.0,2898624426-291546.jpg,2964218432-369263.jpg,1.0,,,,A2RZYTE48OHTMZ
354,49,,1.0,29.0,2901939379-143479.jpg,2964216376-294181.jpg,3.0,,,,A2RZYTE48OHTMZ
355,50,,1.0,30.0,2874302418-65979.jpg,2238578544-111698.jpg,3.0,,,,A2RZYTE48OHTMZ
356,51,,1.0,31.0,2238428357-313623.jpg,2986408339-146952.jpg,3.0,,,,A2RZYTE48OHTMZ
357,52,,1.0,32.0,2898635427-367120.jpg,2868479517-363220.jpg,2.0,,,,A2RZYTE48OHTMZ
358,53,,1.0,33.0,2458347385-199723.jpg,2427874554-121863.jpg,2.0,,,,A2RZYTE48OHTMZ
359,54,,1.0,34.0,2452380832-348593.jpg,2238481813-19930.jpg,2.0,,,,A2RZYTE48OHTMZ
360,55,,1.0,35.0,2238580740-186218.jpg,2238521193-26285.jpg,2.0,,,,A2RZYTE48OHTMZ
361,56,,1.0,36.0,2868475410-213219.jpg,2901946465-218350.jpg,1.0,,,,A2RZYTE48OHTMZ
362,57,,1.0,37.0,2592380177-354626.jpg,2238576792-334659.jpg,1.0,,,,A2RZYTE48OHTMZ
363,58,,1.0,38.0,2460547467-349421.jpg,2452380166-273110.jpg,2.0,,,,A2RZYTE48OHTMZ
364,59,,1.0,39.0,2898634397-367080.jpg,2964217461-294238.jpg,3.0,,,,A2RZYTE48OHTMZ
365,60,,1.0,40.0,2981231403-71642.jpg,2427873763-47290.jpg,3.0,,,,A2RZYTE48OHTMZ
366,61,,1.0,41.0,2986451363-73599.jpg,2898626385-216899.jpg,1.0,,,,A2RZYTE48OHTMZ
367,62,,1.0,42.0,2901939379-143480.jpg,2981229442-369621.jpg,2.0,,,,A2RZYTE48OHTMZ
368,63,,0.0,43.0,left.jpg,,,left,,,A2RZYTE48OHTMZ
369,64,,1.0,44.0,2898618444-142233.jpg,2898631359-142721.jpg,1.0,,,,A2RZYTE48OHTMZ
370,65,,1.0,45.0,2864910426-287204.jpg,2864902304-137862.jpg,1.0,,,,A2RZYTE48OHTMZ
371,66,,1.0,46.0,2874307433-66280.jpg,2981246400-220365.jpg,2.0,,,,A2RZYTE48OHTMZ
372,67,,1.0,47.0,2238481198-19822.jpg,2901946436-293242.jpg,2.0,,,,A2RZYTE48OHTMZ
373,68,,1.0,48.0,2901941401-292798.jpg,2981243412-370222.jpg,2.0,,,,A2RZYTE48OHTMZ
374,69,,1.0,49.0,2864907432-362042.jpg,2901947423-70310.jpg,2.0,,,,A2RZYTE48OHTMZ
375,70,,1.0,50.0,2874301407-363895.jpg,2901947323-70275.jpg,3.0,,,,A2RZYTE48OHTMZ
376,71,left,1.0,51.0,left.jpg,,,left,1.141,,A2RZYTE48OHTMZ
377,72,,1.0,52.0,2964213381-294060.jpg,2964213381-294061.jpg,3.0,,,,A2RZYTE48OHTMZ
378,73,,1.0,53.0,2901952513-70703.jpg,2864907361-287062.jpg,1.0,,,,A2RZYTE48OHTMZ
379,74,,1.0,54.0,2964222378-71332.jpg,2901933382-367209.jpg,2.0,,,,A2RZYTE48OHTMZ
380,75,,1.0,55.0,2238480677-317399.jpg,2238481630-168218.jpg,1.0,,,,A2RZYTE48OHTMZ
381,76,,1.0,56.0,2898635428-69104.jpg,2901943411-292945.jpg,2.0,,,,A2RZYTE48OHTMZ
382,77,,1.0,57.0,2883273443-68193.jpg,2898627427-366763.jpg,3.0,,,,A2RZYTE48OHTMZ
383,78,,1.0,58.0,2868474407-362883.jpg,2981246400-220363.jpg,2.0,,,,A2RZYTE48OHTMZ
384,79,,1.0,59.0,2238425482-313537.jpg,2898633480-217190.jpg,3.0,,,,A2RZYTE48OHTMZ
385,80,,1.0,60.0,2898633421-291973.jpg,2575118671-277663.jpg,2.0,,,,A2RZYTE48OHTMZ
386,81,,1.0,61.0,2898618390-216538.jpg,2575120609-129862.jpg,3.0,,,,A2RZYTE48OHTMZ
387,82,,1.0,62.0,2238560245-182099.jpg,2238480980-168129.jpg,3.0,,,,A2RZYTE48OHTMZ
388,83,,1.0,63.0,2898617468-68274.jpg,2901946439-144040.jpg,1.0,,,,A2RZYTE48OHTMZ
389,84,,1.0,64.0,2575120738-55529.jpg,2238531493-28260.jpg,3.0,,,,A2RZYTE48OHTMZ
390,20,,1.0,0.0,2460547467-349422.jpg,2898618440-216545.jpg,1.0,,,,A2R2ZA0STNZX9S
391,21,,1.0,1.0,2864907432-362042.jpg,2864901420-212147.jpg,1.0,,,,A2R2ZA0STNZX9S
392,22,,1.0,2.0,2592380177-354629.jpg,2898633421-291974.jpg,1.0,,,,A2R2ZA0STNZX9S
393,23,,1.0,3.0,2874302418-65978.jpg,2898633321-291943.jpg,3.0,,,,A2R2ZA0STNZX9S
394,24,,1.0,4.0,2898635428-69104.jpg,2901943411-292945.jpg,2.0,,,,A2R2ZA0STNZX9S
395,25,,1.0,5.0,2874299429-139695.jpg,2901942443-69923.jpg,2.0,,,,A2R2ZA0STNZX9S
396,26,,1.0,6.0,2901952513-70703.jpg,2238481198-19821.jpg,3.0,,,,A2R2ZA0STNZX9S
397,27,,1.0,7.0,2986451363-73599.jpg,2860302315-210704.jpg,2.0,,,,A2R2ZA0STNZX9S
398,28,,1.0,8.0,2868475410-213219.jpg,2901946465-218350.jpg,1.0,,,,A2R2ZA0STNZX9S
399,29,right,1.0,9.0,right.jpg,,,right,1.589,,A2R2ZA0STNZX9S
400,30,,1.0,10.0,2449442529-124446.jpg,2446759803-49251.jpg,1.0,,,,A2R2ZA0STNZX9S
401,31,,1.0,11.0,2874299429-139694.jpg,2883266367-365742.jpg,3.0,,,,A2R2ZA0STNZX9S
402,32,,1.0,12.0,2901941401-292798.jpg,2898618327-366317.jpg,1.0,,,,A2R2ZA0STNZX9S
403,33,,1.0,13.0,2901939379-143480.jpg,2898632385-217139.jpg,3.0,,,,A2R2ZA0STNZX9S
404,34,,1.0,14.0,2874303365-214262.jpg,2238563377-332054.jpg,2.0,,,,A2R2ZA0STNZX9S
405,35,,1.0,15.0,2898617468-68274.jpg,2901946439-144040.jpg,1.0,,,,A2R2ZA0STNZX9S
406,36,,1.0,16.0,2575120738-55529.jpg,2575120738-55528.jpg,2.0,,,,A2R2ZA0STNZX9S
407,37,,1.0,17.0,2981241414-145842.jpg,2427873848-47312.jpg,3.0,,,,A2R2ZA0STNZX9S
408,38,,1.0,18.0,2238572663-35822.jpg,2864903351-286874.jpg,3.0,,,,A2R2ZA0STNZX9S
409,39,,1.0,19.0,2458347385-199723.jpg,2238480434-93829.jpg,1.0,,,,A2R2ZA0STNZX9S
410,40,,1.0,20.0,2901947423-70311.jpg,2238577590-185467.jpg,3.0,,,,A2R2ZA0STNZX9S
411,41,,0.0,21.0,left.jpg,,,left,,,A2R2ZA0STNZX9S
412,42,,1.0,22.0,2460547467-349421.jpg,2981235446-294901.jpg,3.0,,,,A2R2ZA0STNZX9S
413,43,,1.0,23.0,2898634397-367080.jpg,2237944827-301472.jpg,1.0,,,,A2R2ZA0STNZX9S
414,44,,1.0,24.0,2238480677-317399.jpg,2238573546-258454.jpg,2.0,,,,A2R2ZA0STNZX9S
415,45,,1.0,25.0,2238481198-19822.jpg,2862691449-137104.jpg,1.0,,,,A2R2ZA0STNZX9S
416,46,,1.0,26.0,2883268412-365898.jpg,2238436252-314037.jpg,3.0,,,,A2R2ZA0STNZX9S
417,47,,1.0,27.0,2898618444-142233.jpg,2898631359-142721.jpg,1.0,,,,A2R2ZA0STNZX9S
418,48,,1.0,28.0,2883256307-365057.jpg,2864904453-63933.jpg,3.0,,,,A2R2ZA0STNZX9S
419,49,,1.0,29.0,2592380177-354626.jpg,2864901386-286797.jpg,2.0,,,,A2R2ZA0STNZX9S
420,50,left,1.0,30.0,left.jpg,,,left,2.351,,A2R2ZA0STNZX9S
421,51,,1.0,31.0,2874302418-65979.jpg,2238578544-111698.jpg,3.0,,,,A2R2ZA0STNZX9S
422,52,,1.0,32.0,2898633421-291973.jpg,2238550049-105691.jpg,3.0,,,,A2R2ZA0STNZX9S
423,53,,1.0,33.0,2446759803-49249.jpg,2446760601-272099.jpg,1.0,,,,A2R2ZA0STNZX9S
424,54,,1.0,34.0,2868474407-362883.jpg,2981246400-220363.jpg,2.0,,,,A2R2ZA0STNZX9S
425,55,,1.0,35.0,2874301407-363895.jpg,2446761374-124213.jpg,1.0,,,,A2R2ZA0STNZX9S
426,56,,1.0,36.0,2898635427-367120.jpg,2964221435-219434.jpg,1.0,,,,A2R2ZA0STNZX9S
427,57,,1.0,37.0,2874307433-66280.jpg,2984615358-72439.jpg,1.0,,,,A2R2ZA0STNZX9S
428,58,,1.0,38.0,2238428357-313623.jpg,2984615361-295509.jpg,2.0,,,,A2R2ZA0STNZX9S
429,59,,1.0,39.0,2452381505-199546.jpg,2994401319-148290.jpg,3.0,,,,A2R2ZA0STNZX9S
430,60,,1.0,40.0,2986451363-73598.jpg,2984628361-295995.jpg,2.0,,,,A2R2ZA0STNZX9S
431,61,,1.0,41.0,2446758985-197609.jpg,2864909447-362144.jpg,2.0,,,,A2R2ZA0STNZX9S
432,62,,1.0,42.0,2901939379-143479.jpg,2446758985-197610.jpg,2.0,,,,A2R2ZA0STNZX9S
433,63,,1.0,43.0,2864910426-287204.jpg,2864902304-137862.jpg,1.0,,,,A2R2ZA0STNZX9S
434,64,left,1.0,44.0,left.jpg,,,left,1.162,,A2R2ZA0STNZX9S
435,65,,1.0,45.0,2452380832-348593.jpg,2237858942-299356.jpg,3.0,,,,A2R2ZA0STNZX9S
436,66,,1.0,46.0,2964216465-219242.jpg,2898619327-366362.jpg,3.0,,,,A2R2ZA0STNZX9S
437,67,,1.0,47.0,2238481928-19949.jpg,2981241419-145844.jpg,3.0,,,,A2R2ZA0STNZX9S
438,68,,1.0,48.0,2898624426-291546.jpg,2981236443-71859.jpg,2.0,,,,A2R2ZA0STNZX9S
439,69,,1.0,49.0,2964213381-294060.jpg,2458348012-349114.jpg,2.0,,,,A2R2ZA0STNZX9S
440,70,,1.0,50.0,2238580740-186218.jpg,2238521193-26285.jpg,2.0,,,,A2R2ZA0STNZX9S
441,71,,1.0,51.0,2964218374-144967.jpg,2964218374-144968.jpg,1.0,,,,A2R2ZA0STNZX9S
442,72,right,1.0,52.0,right.jpg,,,right,1.485,,A2R2ZA0STNZX9S
443,73,,1.0,53.0,2964222378-71332.jpg,2901933382-367209.jpg,2.0,,,,A2R2ZA0STNZX9S
444,74,,1.0,54.0,2592379964-131054.jpg,2592380272-354673.jpg,3.0,,,,A2R2ZA0STNZX9S
445,75,,1.0,55.0,2883273443-68193.jpg,2460547508-51572.jpg,2.0,,,,A2R2ZA0STNZX9S
446,76,,1.0,56.0,2883268471-290842.jpg,2883255450-215310.jpg,2.0,,,,A2R2ZA0STNZX9S
447,77,,1.0,57.0,2512875899-126682.jpg,2460547536-274179.jpg,1.0,,,,A2R2ZA0STNZX9S
448,78,,1.0,58.0,2981231403-71642.jpg,2579432519-130698.jpg,1.0,,,,A2R2ZA0STNZX9S
449,79,,1.0,59.0,2964223381-294447.jpg,2898628438-68785.jpg,3.0,,,,A2R2ZA0STNZX9S
450,80,,1.0,60.0,2238560245-182099.jpg,2874314526-289684.jpg,2.0,,,,A2R2ZA0STNZX9S
451,81,,1.0,61.0,2460547508-51571.jpg,2981232437-369759.jpg,2.0,,,,A2R2ZA0STNZX9S
452,82,,1.0,62.0,2238425482-313537.jpg,2238471391-240918.jpg,1.0,,,,A2R2ZA0STNZX9S
453,83,,1.0,63.0,2449442529-124445.jpg,2898632385-217137.jpg,3.0,,,,A2R2ZA0STNZX9S
454,84,,1.0,64.0,2898618390-216538.jpg,2575120609-129862.jpg,3.0,,,,A2R2ZA0STNZX9S
455,20,,1.0,0.0,2868474407-362883.jpg,2901948383-70363.jpg,3.0,,,,A34LSCB90T5KYE
456,21,,1.0,1.0,2238428357-313623.jpg,2986408339-146952.jpg,3.0,,,,A34LSCB90T5KYE
457,22,,1.0,2.0,2986451363-73599.jpg,2898626385-216899.jpg,1.0,,,,A34LSCB90T5KYE
458,23,,1.0,3.0,2898635428-69104.jpg,2901943411-292945.jpg,2.0,,,,A34LSCB90T5KYE
459,24,,1.0,4.0,2901952513-70703.jpg,2868469411-287540.jpg,2.0,,,,A34LSCB90T5KYE
460,25,,1.0,5.0,2512875899-126682.jpg,2460547536-274179.jpg,1.0,,,,A34LSCB90T5KYE
461,26,,1.0,6.0,2449442529-124445.jpg,2986408373-73286.jpg,2.0,,,,A34LSCB90T5KYE
462,27,,1.0,7.0,2874302418-65978.jpg,2898633321-291943.jpg,3.0,,,,A34LSCB90T5KYE
463,28,,1.0,8.0,2458347385-199723.jpg,2238480434-93829.jpg,1.0,,,,A34LSCB90T5KYE
464,29,,1.0,9.0,2238572663-35822.jpg,2864903351-286874.jpg,3.0,,,,A34LSCB90T5KYE
465,30,,1.0,10.0,2460547508-51571.jpg,2452380166-273109.jpg,1.0,,,,A34LSCB90T5KYE
466,31,,1.0,11.0,2460547467-349422.jpg,2868487415-213924.jpg,2.0,,,,A34LSCB90T5KYE
467,32,,1.0,12.0,2868475410-213219.jpg,2868474407-362885.jpg,3.0,,,,A34LSCB90T5KYE
468,33,,1.0,13.0,2883268471-290842.jpg,2883255450-215310.jpg,2.0,,,,A34LSCB90T5KYE
469,34,right,1.0,14.0,right.jpg,,,right,0.8778,,A34LSCB90T5KYE
470,35,,1.0,15.0,2883268412-365898.jpg,2984615361-295510.jpg,2.0,,,,A34LSCB90T5KYE
471,36,,1.0,16.0,2874303365-214262.jpg,2274829821-263682.jpg,1.0,,,,A34LSCB90T5KYE
472,37,left,1.0,17.0,left.jpg,,,left,0.6836,,A34LSCB90T5KYE
473,38,,1.0,18.0,2238560245-182099.jpg,2874314526-289684.jpg,2.0,,,,A34LSCB90T5KYE
474,39,,1.0,19.0,2901941401-292798.jpg,2898618327-366317.jpg,1.0,,,,A34LSCB90T5KYE
475,40,,1.0,20.0,2986451363-73598.jpg,2901942443-69925.jpg,3.0,,,,A34LSCB90T5KYE
476,41,,1.0,21.0,2981231403-71642.jpg,2579432519-130698.jpg,1.0,,,,A34LSCB90T5KYE
477,42,,1.0,22.0,2452381505-199546.jpg,2898632385-217138.jpg,2.0,,,,A34LSCB90T5KYE
478,43,,1.0,23.0,2964218374-144967.jpg,2981231446-294732.jpg,3.0,,,,A34LSCB90T5KYE
479,44,,1.0,24.0,2883256307-365057.jpg,2864904453-63933.jpg,3.0,,,,A34LSCB90T5KYE
480,45,,1.0,25.0,2874299429-139695.jpg,2901942443-69923.jpg,2.0,,,,A34LSCB90T5KYE
481,46,,1.0,26.0,2901939379-143479.jpg,2460547467-349423.jpg,1.0,,,,A34LSCB90T5KYE
482,47,,1.0,27.0,2238580740-186218.jpg,2238550816-254000.jpg,1.0,,,,A34LSCB90T5KYE
483,48,,1.0,28.0,2964223381-294447.jpg,2898628438-68785.jpg,3.0,,,,A34LSCB90T5KYE
484,49,,1.0,29.0,2874299429-139694.jpg,2981244403-72215.jpg,2.0,,,,A34LSCB90T5KYE
485,50,left,1.0,30.0,left.jpg,,,left,0.621,,A34LSCB90T5KYE
486,51,,1.0,31.0,2898618390-216538.jpg,2901939327-367670.jpg,2.0,,,,A34LSCB90T5KYE
487,52,,1.0,32.0,2592379964-131054.jpg,2238479053-19457.jpg,2.0,,,,A34LSCB90T5KYE
488,53,,1.0,33.0,2592380177-354629.jpg,2512875587-350044.jpg,3.0,,,,A34LSCB90T5KYE
489,54,,1.0,34.0,2898618444-142233.jpg,2898618444-142232.jpg,3.0,,,,A34LSCB90T5KYE
490,55,,1.0,35.0,2446759803-49249.jpg,2446760601-272099.jpg,1.0,,,,A34LSCB90T5KYE
491,56,,1.0,36.0,2898624426-291546.jpg,2981236443-71859.jpg,2.0,,,,A34LSCB90T5KYE
492,57,right,1.0,37.0,right.jpg,,,right,0.6542,,A34LSCB90T5KYE
493,58,,1.0,38.0,2238481198-19822.jpg,2901946436-293242.jpg,2.0,,,,A34LSCB90T5KYE
494,59,,1.0,39.0,2883273443-68193.jpg,2460547508-51572.jpg,2.0,,,,A34LSCB90T5KYE
495,60,,1.0,40.0,2460547467-349421.jpg,2898631394-142727.jpg,1.0,,,,A34LSCB90T5KYE
496,61,,1.0,41.0,2864910426-287204.jpg,2864902304-137862.jpg,1.0,,,,A34LSCB90T5KYE
497,62,,1.0,42.0,2575120738-55529.jpg,2575120738-55528.jpg,2.0,,,,A34LSCB90T5KYE
498,63,,1.0,43.0,2964216465-219242.jpg,2238544191-252422.jpg,1.0,,,,A34LSCB90T5KYE
499,64,,1.0,44.0,2964213381-294060.jpg,2981244394-145974.jpg,1.0,,,,A34LSCB90T5KYE
500,65,,1.0,45.0,2864907432-362042.jpg,2864901420-212147.jpg,1.0,,,,A34LSCB90T5KYE
501,66,,1.0,46.0,2981241414-145842.jpg,2427873848-47312.jpg,3.0,,,,A34LSCB90T5KYE
502,67,,1.0,47.0,2898617468-68274.jpg,2901943387-368037.jpg,2.0,,,,A34LSCB90T5KYE
503,68,,1.0,48.0,2238480677-317399.jpg,2238480278-19661.jpg,3.0,,,,A34LSCB90T5KYE
504,69,,1.0,49.0,2898633421-291973.jpg,2512876023-52283.jpg,1.0,,,,A34LSCB90T5KYE
505,70,,1.0,50.0,2238481928-19949.jpg,2864900357-361688.jpg,2.0,,,,A34LSCB90T5KYE
506,71,right,1.0,51.0,right.jpg,,,right,0.5687,,A34LSCB90T5KYE
507,72,,1.0,52.0,2964222378-71332.jpg,2981240427-370099.jpg,3.0,,,,A34LSCB90T5KYE
508,73,,1.0,53.0,2898634397-367080.jpg,2964217461-294238.jpg,3.0,,,,A34LSCB90T5KYE
509,74,,1.0,54.0,2874301407-363895.jpg,2901947323-70275.jpg,3.0,,,,A34LSCB90T5KYE
510,75,,1.0,55.0,2898635427-367120.jpg,2868479517-363220.jpg,2.0,,,,A34LSCB90T5KYE
511,76,,1.0,56.0,2452380832-348593.jpg,2237858942-299356.jpg,3.0,,,,A34LSCB90T5KYE
512,77,,1.0,57.0,2592380177-354626.jpg,2238576792-334659.jpg,1.0,,,,A34LSCB90T5KYE
513,78,,1.0,58.0,2901939379-143480.jpg,2898632385-217139.jpg,3.0,,,,A34LSCB90T5KYE
514,79,,1.0,59.0,2874307433-66280.jpg,2984615358-72439.jpg,1.0,,,,A34LSCB90T5KYE
515,80,,1.0,60.0,2874302418-65979.jpg,2237857458-1325.jpg,1.0,,,,A34LSCB90T5KYE
516,81,,1.0,61.0,2449442529-124446.jpg,2460547536-274181.jpg,2.0,,,,A34LSCB90T5KYE
517,82,,1.0,62.0,2446758985-197609.jpg,2898624426-291544.jpg,3.0,,,,A34LSCB90T5KYE
518,83,,1.0,63.0,2901947423-70311.jpg,2238577590-185467.jpg,3.0,,,,A34LSCB90T5KYE
519,84,,1.0,64.0,2238425482-313537.jpg,2238471391-240918.jpg,1.0,,,,A34LSCB90T5KYE
520,20,,1.0,0.0,2575120738-55529.jpg,2238531493-28260.jpg,3.0,,,,A3AU8PZ6HHBCVT
521,21,,1.0,1.0,2512875899-126682.jpg,2460547536-274179.jpg,1.0,,,,A3AU8PZ6HHBCVT
522,22,,1.0,2.0,2898617468-68274.jpg,2901943387-368037.jpg,2.0,,,,A3AU8PZ6HHBCVT
523,23,,1.0,3.0,2446758985-197609.jpg,2864909447-362144.jpg,2.0,,,,A3AU8PZ6HHBCVT
524,24,,1.0,4.0,2238572663-35822.jpg,2864903351-286874.jpg,3.0,,,,A3AU8PZ6HHBCVT
525,25,,1.0,5.0,2964218374-144967.jpg,2446759306-271734.jpg,2.0,,,,A3AU8PZ6HHBCVT
526,26,,1.0,6.0,2901947423-70311.jpg,2860312398-62572.jpg,1.0,,,,A3AU8PZ6HHBCVT
527,27,,1.0,7.0,2458347385-199723.jpg,2458347252-348911.jpg,3.0,,,,A3AU8PZ6HHBCVT
528,28,,0.0,8.0,left.jpg,,,left,,,A3AU8PZ6HHBCVT
529,29,,1.0,9.0,2874307433-66280.jpg,2981246400-220365.jpg,2.0,,,,A3AU8PZ6HHBCVT
530,30,,1.0,10.0,2868475410-213219.jpg,2868474407-362885.jpg,3.0,,,,A3AU8PZ6HHBCVT
531,31,,1.0,11.0,2868474407-362883.jpg,2981246400-220363.jpg,2.0,,,,A3AU8PZ6HHBCVT
532,32,,1.0,12.0,2898635428-69104.jpg,2898625336-291572.jpg,3.0,,,,A3AU8PZ6HHBCVT
533,33,,1.0,13.0,2864907432-362042.jpg,2864901420-212147.jpg,1.0,,,,A3AU8PZ6HHBCVT
534,34,,1.0,14.0,2964213381-294060.jpg,2981244394-145974.jpg,1.0,,,,A3AU8PZ6HHBCVT
535,35,,1.0,15.0,2238480677-317399.jpg,2238481630-168218.jpg,1.0,,,,A3AU8PZ6HHBCVT
536,36,,0.0,16.0,left.jpg,,,left,,,A3AU8PZ6HHBCVT
537,37,,1.0,17.0,2592380177-354626.jpg,2238117096-228518.jpg,3.0,,,,A3AU8PZ6HHBCVT
538,38,,1.0,18.0,2592379964-131054.jpg,2575963989-130576.jpg,1.0,,,,A3AU8PZ6HHBCVT
539,39,,1.0,19.0,2901941401-292798.jpg,2898631468-68931.jpg,3.0,,,,A3AU8PZ6HHBCVT
540,40,,1.0,20.0,2901952513-70703.jpg,2238481198-19821.jpg,3.0,,,,A3AU8PZ6HHBCVT
541,41,,1.0,21.0,2874302418-65979.jpg,2238480648-19714.jpg,2.0,,,,A3AU8PZ6HHBCVT
542,42,,1.0,22.0,2592380177-354629.jpg,2898633421-291974.jpg,1.0,,,,A3AU8PZ6HHBCVT
543,43,,1.0,23.0,2874299429-139695.jpg,2883266388-67750.jpg,1.0,,,,A3AU8PZ6HHBCVT
544,44,,1.0,24.0,2238425482-313537.jpg,2238436322-314047.jpg,2.0,,,,A3AU8PZ6HHBCVT
545,45,,1.0,25.0,2986451363-73598.jpg,2901942443-69925.jpg,3.0,,,,A3AU8PZ6HHBCVT
546,46,,1.0,26.0,2898635427-367120.jpg,2964221435-219434.jpg,1.0,,,,A3AU8PZ6HHBCVT
547,47,,1.0,27.0,2460547508-51571.jpg,2981232437-369759.jpg,2.0,,,,A3AU8PZ6HHBCVT
548,48,,1.0,28.0,2964216465-219242.jpg,2898619327-366362.jpg,3.0,,,,A3AU8PZ6HHBCVT
549,49,,1.0,29.0,2901939379-143480.jpg,2981229442-369621.jpg,2.0,,,,A3AU8PZ6HHBCVT
550,50,,0.0,30.0,right.jpg,,,right,,,A3AU8PZ6HHBCVT
551,51,,1.0,31.0,2874301407-363895.jpg,2986397322-371109.jpg,2.0,,,,A3AU8PZ6HHBCVT
552,52,,1.0,32.0,2460547467-349421.jpg,2981235446-294901.jpg,3.0,,,,A3AU8PZ6HHBCVT
553,53,,1.0,33.0,2238428357-313623.jpg,2238499057-320266.jpg,1.0,,,,A3AU8PZ6HHBCVT
554,54,,1.0,34.0,2901939379-143479.jpg,2460547467-349423.jpg,1.0,,,,A3AU8PZ6HHBCVT
555,55,,1.0,35.0,2446759803-49249.jpg,2901951392-368654.jpg,3.0,,,,A3AU8PZ6HHBCVT
556,56,,1.0,36.0,2452380832-348593.jpg,2238481813-19930.jpg,2.0,,,,A3AU8PZ6HHBCVT
557,57,,1.0,37.0,2981241414-145842.jpg,2238516618-25604.jpg,1.0,,,,A3AU8PZ6HHBCVT
558,58,,1.0,38.0,2898618444-142233.jpg,2238555262-330312.jpg,2.0,,,,A3AU8PZ6HHBCVT
559,59,,1.0,39.0,2874302418-65978.jpg,2898633321-291943.jpg,3.0,,,,A3AU8PZ6HHBCVT
560,60,,0.0,40.0,right.jpg,,,right,,,A3AU8PZ6HHBCVT
561,61,,1.0,41.0,2874303365-214262.jpg,2238563377-332054.jpg,2.0,,,,A3AU8PZ6HHBCVT
562,62,,1.0,42.0,2238481198-19822.jpg,2862691449-137104.jpg,1.0,,,,A3AU8PZ6HHBCVT
563,63,,1.0,43.0,2460547467-349422.jpg,2864909447-362146.jpg,3.0,,,,A3AU8PZ6HHBCVT
564,64,,1.0,44.0,2981231403-71642.jpg,2427873763-47290.jpg,3.0,,,,A3AU8PZ6HHBCVT
565,65,,1.0,45.0,2238560245-182099.jpg,2592380255-205553.jpg,1.0,,,,A3AU8PZ6HHBCVT
566,66,,1.0,46.0,2449442529-124446.jpg,2460547536-274181.jpg,2.0,,,,A3AU8PZ6HHBCVT
567,67,,1.0,47.0,2898624426-291546.jpg,2981236443-71859.jpg,2.0,,,,A3AU8PZ6HHBCVT
568,68,,1.0,48.0,2986451363-73599.jpg,2898626385-216899.jpg,1.0,,,,A3AU8PZ6HHBCVT
569,69,,1.0,49.0,2874299429-139694.jpg,2981244403-72215.jpg,2.0,,,,A3AU8PZ6HHBCVT
570,70,,0.0,50.0,left.jpg,,,left,,,A3AU8PZ6HHBCVT
571,71,,1.0,51.0,2864910426-287204.jpg,2864902304-137862.jpg,1.0,,,,A3AU8PZ6HHBCVT
572,72,,1.0,52.0,2898618390-216538.jpg,2901939327-367670.jpg,2.0,,,,A3AU8PZ6HHBCVT
573,73,,1.0,53.0,2883273443-68193.jpg,2883254439-140940.jpg,1.0,,,,A3AU8PZ6HHBCVT
574,74,,1.0,54.0,2964222378-71332.jpg,2981240424-145794.jpg,1.0,,,,A3AU8PZ6HHBCVT
575,75,,1.0,55.0,2238580740-186218.jpg,2238521193-26285.jpg,2.0,,,,A3AU8PZ6HHBCVT
576,76,,1.0,56.0,2238481928-19949.jpg,2864900357-361688.jpg,2.0,,,,A3AU8PZ6HHBCVT
577,77,,1.0,57.0,2898634397-367080.jpg,2964217461-294238.jpg,3.0,,,,A3AU8PZ6HHBCVT
578,78,,1.0,58.0,2883268471-290842.jpg,2883268471-290843.jpg,1.0,,,,A3AU8PZ6HHBCVT
579,79,,1.0,59.0,2964223381-294447.jpg,2898628438-68785.jpg,3.0,,,,A3AU8PZ6HHBCVT
580,80,,1.0,60.0,2883268412-365898.jpg,2984615361-295510.jpg,2.0,,,,A3AU8PZ6HHBCVT
581,81,,1.0,61.0,2883256307-365057.jpg,2864904453-63933.jpg,3.0,,,,A3AU8PZ6HHBCVT
582,82,,1.0,62.0,2452381505-199546.jpg,2901938432-367627.jpg,1.0,,,,A3AU8PZ6HHBCVT
583,83,,1.0,63.0,2449442529-124445.jpg,2898632385-217137.jpg,3.0,,,,A3AU8PZ6HHBCVT
584,84,,1.0,64.0,2898633421-291973.jpg,2238550049-105691.jpg,3.0,,,,A3AU8PZ6HHBCVT
585,20,,1.0,0.0,2898635427-367120.jpg,2898621427-366486.jpg,3.0,,,,AK52RXEJKR81A
586,21,,1.0,1.0,2874299429-139695.jpg,2446760917-347439.jpg,3.0,,,,AK52RXEJKR81A
587,22,,1.0,2.0,2238572663-35822.jpg,2864903351-286874.jpg,3.0,,,,AK52RXEJKR81A
588,23,,1.0,3.0,2986451363-73599.jpg,2860302315-210704.jpg,2.0,,,,AK52RXEJKR81A
589,24,,1.0,4.0,2446759803-49249.jpg,2901951392-368654.jpg,3.0,,,,AK52RXEJKR81A
590,25,,1.0,5.0,2898617468-68274.jpg,2901946439-144040.jpg,1.0,,,,AK52RXEJKR81A
591,26,,1.0,6.0,2446758985-197609.jpg,2981240424-145795.jpg,1.0,,,,AK52RXEJKR81A
592,27,,1.0,7.0,2458347385-199723.jpg,2427874554-121863.jpg,2.0,,,,AK52RXEJKR81A
593,28,,1.0,8.0,2898624426-291546.jpg,2964218432-369263.jpg,1.0,,,,AK52RXEJKR81A
594,29,,1.0,9.0,2898618390-216538.jpg,2575120609-129862.jpg,3.0,,,,AK52RXEJKR81A
595,30,,1.0,10.0,2460547467-349421.jpg,2898631394-142727.jpg,1.0,,,,AK52RXEJKR81A
596,31,,1.0,11.0,2460547467-349422.jpg,2864909447-362146.jpg,3.0,,,,AK52RXEJKR81A
597,32,,0.0,12.0,right.jpg,,,right,,,AK52RXEJKR81A
598,33,,1.0,13.0,2868475410-213219.jpg,2868474407-362885.jpg,3.0,,,,AK52RXEJKR81A
599,34,,1.0,14.0,2901939379-143480.jpg,2981229442-369621.jpg,2.0,,,,AK52RXEJKR81A
600,35,,1.0,15.0,2986451363-73598.jpg,2984628361-295995.jpg,2.0,,,,AK52RXEJKR81A
601,36,,1.0,16.0,2874301407-363895.jpg,2901947323-70275.jpg,3.0,,,,AK52RXEJKR81A
602,37,,0.0,17.0,left.jpg,,,left,,,AK52RXEJKR81A
603,38,,1.0,18.0,2901947423-70311.jpg,2238573447-333826.jpg,2.0,,,,AK52RXEJKR81A
604,39,,1.0,19.0,2460547508-51571.jpg,2452380166-273109.jpg,1.0,,,,AK52RXEJKR81A
605,40,,1.0,20.0,2883268412-365898.jpg,2984626312-370849.jpg,1.0,,,,AK52RXEJKR81A
606,41,,1.0,21.0,2452381505-199546.jpg,2898632385-217138.jpg,2.0,,,,AK52RXEJKR81A
607,42,,1.0,22.0,2238481928-19949.jpg,2883264367-365620.jpg,1.0,,,,AK52RXEJKR81A
608,43,,1.0,23.0,2901941401-292798.jpg,2898618327-366317.jpg,1.0,,,,AK52RXEJKR81A
609,44,,1.0,24.0,2868474407-362883.jpg,2460547732-349518.jpg,1.0,,,,AK52RXEJKR81A
610,45,,1.0,25.0,2449442529-124446.jpg,2446759803-49251.jpg,1.0,,,,AK52RXEJKR81A
611,46,,1.0,26.0,2898633421-291973.jpg,2512876023-52283.jpg,1.0,,,,AK52RXEJKR81A
612,47,,1.0,27.0,2592380177-354629.jpg,2512875587-350044.jpg,3.0,,,,AK52RXEJKR81A
613,48,,1.0,28.0,2592379964-131054.jpg,2592380272-354673.jpg,3.0,,,,AK52RXEJKR81A
614,49,,1.0,29.0,2864910426-287204.jpg,2901939433-69672.jpg,3.0,,,,AK52RXEJKR81A
615,50,,1.0,30.0,2238428357-313623.jpg,2238499057-320266.jpg,1.0,,,,AK52RXEJKR81A
616,51,,1.0,31.0,2964223381-294447.jpg,2901941438-69836.jpg,2.0,,,,AK52RXEJKR81A
617,52,,1.0,32.0,2452380832-348593.jpg,2238481813-19930.jpg,2.0,,,,AK52RXEJKR81A
618,53,,0.0,33.0,right.jpg,,,right,,,AK52RXEJKR81A
619,54,,1.0,34.0,2964222378-71332.jpg,2901933382-367209.jpg,2.0,,,,AK52RXEJKR81A
620,55,,1.0,35.0,2901939379-143479.jpg,2446758985-197610.jpg,2.0,,,,AK52RXEJKR81A
621,56,,1.0,36.0,2575120738-55529.jpg,2238531493-28260.jpg,3.0,,,,AK52RXEJKR81A
622,57,,1.0,37.0,2874302418-65978.jpg,2964224310-219528.jpg,1.0,,,,AK52RXEJKR81A
623,58,,1.0,38.0,2874307433-66280.jpg,2981231422-369714.jpg,3.0,,,,AK52RXEJKR81A
624,59,,1.0,39.0,2964218374-144967.jpg,2981231446-294732.jpg,3.0,,,,AK52RXEJKR81A
625,60,,1.0,40.0,2874299429-139694.jpg,2981244403-72215.jpg,2.0,,,,AK52RXEJKR81A
626,61,,1.0,41.0,2964216465-219242.jpg,2898619327-366362.jpg,3.0,,,,AK52RXEJKR81A
627,62,,1.0,42.0,2238480677-317399.jpg,2238481630-168218.jpg,1.0,,,,AK52RXEJKR81A
628,63,,1.0,43.0,2964213381-294060.jpg,2964213381-294061.jpg,3.0,,,,AK52RXEJKR81A
629,64,,0.0,44.0,right.jpg,,,right,,,AK52RXEJKR81A
630,65,,1.0,45.0,2898618444-142233.jpg,2898631359-142721.jpg,1.0,,,,AK52RXEJKR81A
631,66,,1.0,46.0,2238481198-19822.jpg,2238480803-19737.jpg,3.0,,,,AK52RXEJKR81A
632,67,,1.0,47.0,2883268471-290842.jpg,2901947448-70314.jpg,3.0,,,,AK52RXEJKR81A
633,68,,0.0,48.0,right.jpg,,,right,,,AK52RXEJKR81A
634,69,,1.0,49.0,2238425482-313537.jpg,2238436322-314047.jpg,2.0,,,,AK52RXEJKR81A
635,70,,1.0,50.0,2901952513-70703.jpg,2868469411-287540.jpg,2.0,,,,AK52RXEJKR81A
636,71,,1.0,51.0,2874303365-214262.jpg,2238563377-332054.jpg,2.0,,,,AK52RXEJKR81A
637,72,,1.0,52.0,2512875899-126682.jpg,2592380177-354628.jpg,2.0,,,,AK52RXEJKR81A
638,73,,1.0,53.0,2981231403-71642.jpg,2579432519-130698.jpg,1.0,,,,AK52RXEJKR81A
639,74,,1.0,54.0,2898634397-367080.jpg,2901934408-69289.jpg,2.0,,,,AK52RXEJKR81A
640,75,,1.0,55.0,2874302418-65979.jpg,2238578544-111698.jpg,3.0,,,,AK52RXEJKR81A
641,76,,1.0,56.0,2238560245-182099.jpg,2592380255-205553.jpg,1.0,,,,AK52RXEJKR81A
642,77,,1.0,57.0,2883273443-68193.jpg,2883254439-140940.jpg,1.0,,,,AK52RXEJKR81A
643,78,,1.0,58.0,2883256307-365057.jpg,2964210336-293945.jpg,2.0,,,,AK52RXEJKR81A
644,79,,1.0,59.0,2864907432-362042.jpg,2901947423-70310.jpg,2.0,,,,AK52RXEJKR81A
645,80,,1.0,60.0,2592380177-354626.jpg,2238576792-334659.jpg,1.0,,,,AK52RXEJKR81A
646,81,,1.0,61.0,2238580740-186218.jpg,2238521193-26285.jpg,2.0,,,,AK52RXEJKR81A
647,82,,1.0,62.0,2898635428-69104.jpg,2446759803-49250.jpg,1.0,,,,AK52RXEJKR81A
648,83,,1.0,63.0,2449442529-124445.jpg,2898632385-217137.jpg,3.0,,,,AK52RXEJKR81A
649,84,,1.0,64.0,2981241414-145842.jpg,2874301404-139813.jpg,2.0,,,,AK52RXEJKR81A
650,20,,1.0,0.0,2898618444-142233.jpg,2898631359-142721.jpg,1.0,,,,A19NX9CQGX6XI8
651,21,,1.0,1.0,2868475410-213219.jpg,2238480803-19739.jpg,2.0,,,,A19NX9CQGX6XI8
652,22,,1.0,2.0,2898618390-216538.jpg,2901939327-367670.jpg,2.0,,,,A19NX9CQGX6XI8
653,23,,1.0,3.0,2592379964-131054.jpg,2592380272-354673.jpg,3.0,,,,A19NX9CQGX6XI8
654,24,,1.0,4.0,2981231403-71642.jpg,2427873763-47290.jpg,3.0,,,,A19NX9CQGX6XI8
655,25,,1.0,5.0,2901941401-292798.jpg,2981243412-370222.jpg,2.0,,,,A19NX9CQGX6XI8
656,26,,1.0,6.0,2449442529-124446.jpg,2446759803-49251.jpg,1.0,,,,A19NX9CQGX6XI8
657,27,,1.0,7.0,2964213381-294060.jpg,2981244394-145974.jpg,1.0,,,,A19NX9CQGX6XI8
658,28,,0.0,8.0,right.jpg,,,right,,,A19NX9CQGX6XI8
659,29,,1.0,9.0,2874301407-363895.jpg,2446761374-124213.jpg,1.0,,,,A19NX9CQGX6XI8
660,30,,1.0,10.0,2874303365-214262.jpg,2238563377-332054.jpg,2.0,,,,A19NX9CQGX6XI8
661,31,,1.0,11.0,2964216465-219242.jpg,2238544191-252422.jpg,1.0,,,,A19NX9CQGX6XI8
662,32,,1.0,12.0,2964223381-294447.jpg,2901941438-69836.jpg,2.0,,,,A19NX9CQGX6XI8
663,33,,1.0,13.0,2238572663-35822.jpg,2238571930-184143.jpg,2.0,,,,A19NX9CQGX6XI8
664,34,,1.0,14.0,2964222378-71332.jpg,2981240427-370099.jpg,3.0,,,,A19NX9CQGX6XI8
665,35,,1.0,15.0,2883256307-365057.jpg,2864904453-63933.jpg,3.0,,,,A19NX9CQGX6XI8
666,36,,1.0,16.0,2238580740-186218.jpg,2238521193-26285.jpg,2.0,,,,A19NX9CQGX6XI8
667,37,,1.0,17.0,2874302418-65978.jpg,2964224310-219528.jpg,1.0,,,,A19NX9CQGX6XI8
668,38,,1.0,18.0,2460547467-349421.jpg,2452380166-273110.jpg,2.0,,,,A19NX9CQGX6XI8
669,39,,1.0,19.0,2883268471-290842.jpg,2901947448-70314.jpg,3.0,,,,A19NX9CQGX6XI8
670,40,,1.0,20.0,2898635428-69104.jpg,2898625336-291572.jpg,3.0,,,,A19NX9CQGX6XI8
671,41,,1.0,21.0,2874299429-139695.jpg,2446760917-347439.jpg,3.0,,,,A19NX9CQGX6XI8
672,42,,0.0,22.0,right.jpg,,,right,,,A19NX9CQGX6XI8
673,43,,1.0,23.0,2238425482-313537.jpg,2238436322-314047.jpg,2.0,,,,A19NX9CQGX6XI8
674,44,,1.0,24.0,2575120738-55529.jpg,2864906345-212360.jpg,1.0,,,,A19NX9CQGX6XI8
675,45,,1.0,25.0,2592380177-354626.jpg,2238576792-334659.jpg,1.0,,,,A19NX9CQGX6XI8
676,46,,1.0,26.0,2460547467-349422.jpg,2868487415-213924.jpg,2.0,,,,A19NX9CQGX6XI8
677,47,,1.0,27.0,2964218374-144967.jpg,2964218374-144968.jpg,1.0,,,,A19NX9CQGX6XI8
678,48,,1.0,28.0,2864907432-362042.jpg,2989726338-74002.jpg,3.0,,,,A19NX9CQGX6XI8
679,49,,1.0,29.0,2874299429-139694.jpg,2883266367-365742.jpg,3.0,,,,A19NX9CQGX6XI8
680,50,,0.0,30.0,right.jpg,,,right,,,A19NX9CQGX6XI8
681,51,,1.0,31.0,2458347385-199723.jpg,2458347252-348911.jpg,3.0,,,,A19NX9CQGX6XI8
682,52,,1.0,32.0,2981241414-145842.jpg,2238516618-25604.jpg,1.0,,,,A19NX9CQGX6XI8
683,53,,1.0,33.0,2512875899-126682.jpg,2592380177-354628.jpg,2.0,,,,A19NX9CQGX6XI8
684,54,,1.0,34.0,2901939379-143479.jpg,2964216376-294181.jpg,3.0,,,,A19NX9CQGX6XI8
685,55,,1.0,35.0,2883268412-365898.jpg,2984615361-295510.jpg,2.0,,,,A19NX9CQGX6XI8
686,56,,1.0,36.0,2901947423-70311.jpg,2860312398-62572.jpg,1.0,,,,A19NX9CQGX6XI8
687,57,,1.0,37.0,2986451363-73598.jpg,2901942443-69925.jpg,3.0,,,,A19NX9CQGX6XI8
688,58,,1.0,38.0,2901952513-70703.jpg,2238481198-19821.jpg,3.0,,,,A19NX9CQGX6XI8
689,59,,1.0,39.0,2449442529-124445.jpg,2452380171-273112.jpg,1.0,,,,A19NX9CQGX6XI8
690,60,,1.0,40.0,2898633421-291973.jpg,2575118671-277663.jpg,2.0,,,,A19NX9CQGX6XI8
691,61,,1.0,41.0,2898635427-367120.jpg,2964221435-219434.jpg,1.0,,,,A19NX9CQGX6XI8
692,62,,1.0,42.0,2238481928-19949.jpg,2864900357-361688.jpg,2.0,,,,A19NX9CQGX6XI8
693,63,,0.0,43.0,right.jpg,,,right,,,A19NX9CQGX6XI8
694,64,,1.0,44.0,2452380832-348593.jpg,2238328478-11678.jpg,1.0,,,,A19NX9CQGX6XI8
695,65,,1.0,45.0,2898624426-291546.jpg,2981235446-294900.jpg,3.0,,,,A19NX9CQGX6XI8
696,66,,0.0,46.0,left.jpg,,,left,,,A19NX9CQGX6XI8
697,67,,1.0,47.0,2592380177-354629.jpg,2579432534-130704.jpg,2.0,,,,A19NX9CQGX6XI8
698,68,,1.0,48.0,2238560245-182099.jpg,2592380255-205553.jpg,1.0,,,,A19NX9CQGX6XI8
699,69,,1.0,49.0,2460547508-51571.jpg,2901941438-69835.jpg,3.0,,,,A19NX9CQGX6XI8
700,70,,1.0,50.0,2898617468-68274.jpg,2964207374-144577.jpg,3.0,,,,A19NX9CQGX6XI8
701,71,,1.0,51.0,2986451363-73599.jpg,2898626385-216899.jpg,1.0,,,,A19NX9CQGX6XI8
702,72,,1.0,52.0,2874302418-65979.jpg,2237857458-1325.jpg,1.0,,,,A19NX9CQGX6XI8
703,73,,1.0,53.0,2874307433-66280.jpg,2981246400-220365.jpg,2.0,,,,A19NX9CQGX6XI8
704,74,,1.0,54.0,2446758985-197609.jpg,2864909447-362144.jpg,2.0,,,,A19NX9CQGX6XI8
705,75,,1.0,55.0,2238480677-317399.jpg,2238480278-19661.jpg,3.0,,,,A19NX9CQGX6XI8
706,76,,1.0,56.0,2452381505-199546.jpg,2901938432-367627.jpg,1.0,,,,A19NX9CQGX6XI8
707,77,,1.0,57.0,2898634397-367080.jpg,2964217461-294238.jpg,3.0,,,,A19NX9CQGX6XI8
708,78,,1.0,58.0,2864910426-287204.jpg,2901939433-69672.jpg,3.0,,,,A19NX9CQGX6XI8
709,79,,1.0,59.0,2868474407-362883.jpg,2981246400-220363.jpg,2.0,,,,A19NX9CQGX6XI8
710,80,,1.0,60.0,2883273443-68193.jpg,2883254439-140940.jpg,1.0,,,,A19NX9CQGX6XI8
711,81,,1.0,61.0,2238481198-19822.jpg,2901946436-293242.jpg,2.0,,,,A19NX9CQGX6XI8
712,82,,1.0,62.0,2446759803-49249.jpg,2901951392-368654.jpg,3.0,,,,A19NX9CQGX6XI8
713,83,,1.0,63.0,2901939379-143480.jpg,2901942428-69919.jpg,1.0,,,,A19NX9CQGX6XI8
714,84,,1.0,64.0,2238428357-313623.jpg,2984615361-295509.jpg,2.0,,,,A19NX9CQGX6XI8
715,20,,1.0,0.0,2512875899-126682.jpg,2460547536-274179.jpg,1.0,,,,A1PHDT66U6IK4Q
716,21,,1.0,1.0,2964213381-294060.jpg,2458348012-349114.jpg,2.0,,,,A1PHDT66U6IK4Q
717,22,,1.0,2.0,2452381505-199546.jpg,2898632385-217138.jpg,2.0,,,,A1PHDT66U6IK4Q
718,23,,1.0,3.0,2874299429-139694.jpg,2883266367-365742.jpg,3.0,,,,A1PHDT66U6IK4Q
719,24,,1.0,4.0,2460547467-349422.jpg,2868487415-213924.jpg,2.0,,,,A1PHDT66U6IK4Q
720,25,,1.0,5.0,2986451363-73599.jpg,2898626385-216899.jpg,1.0,,,,A1PHDT66U6IK4Q
721,26,,1.0,6.0,2449442529-124445.jpg,2986408373-73286.jpg,2.0,,,,A1PHDT66U6IK4Q
722,27,,1.0,7.0,2874303365-214262.jpg,2238563377-332054.jpg,2.0,,,,A1PHDT66U6IK4Q
723,28,left,1.0,8.0,left.jpg,,,left,0.6668,,A1PHDT66U6IK4Q
724,29,,1.0,9.0,2238481198-19822.jpg,2901946436-293242.jpg,2.0,,,,A1PHDT66U6IK4Q
725,30,,1.0,10.0,2449442529-124446.jpg,2460547536-274181.jpg,2.0,,,,A1PHDT66U6IK4Q
726,31,,1.0,11.0,2874299429-139695.jpg,2901942443-69923.jpg,2.0,,,,A1PHDT66U6IK4Q
727,32,,1.0,12.0,2238580740-186218.jpg,2964220333-71258.jpg,3.0,,,,A1PHDT66U6IK4Q
728,33,,1.0,13.0,2238425482-313537.jpg,2238471391-240918.jpg,1.0,,,,A1PHDT66U6IK4Q
729,34,,1.0,14.0,2901947423-70311.jpg,2860312398-62572.jpg,1.0,,,,A1PHDT66U6IK4Q
730,35,,1.0,15.0,2898618444-142233.jpg,2898631359-142721.jpg,1.0,,,,A1PHDT66U6IK4Q
731,36,left,1.0,16.0,left.jpg,,,left,0.5679,,A1PHDT66U6IK4Q
732,37,,1.0,17.0,2446759803-49249.jpg,2901951392-368654.jpg,3.0,,,,A1PHDT66U6IK4Q
733,38,,1.0,18.0,2964223381-294447.jpg,2427874231-269884.jpg,1.0,,,,A1PHDT66U6IK4Q
734,39,,1.0,19.0,2592379964-131054.jpg,2238479053-19457.jpg,2.0,,,,A1PHDT66U6IK4Q
735,40,,1.0,20.0,2592380177-354629.jpg,2579432534-130704.jpg,2.0,,,,A1PHDT66U6IK4Q
736,41,,1.0,21.0,2868474407-362883.jpg,2460547732-349518.jpg,1.0,,,,A1PHDT66U6IK4Q
737,42,,1.0,22.0,2864910426-287204.jpg,2864902304-137862.jpg,1.0,,,,A1PHDT66U6IK4Q
738,43,,1.0,23.0,2901939379-143480.jpg,2981229442-369621.jpg,2.0,,,,A1PHDT66U6IK4Q
739,44,,1.0,24.0,2883268471-290842.jpg,2883268471-290843.jpg,1.0,,,,A1PHDT66U6IK4Q
740,45,,1.0,25.0,2238560245-182099.jpg,2592380255-205553.jpg,1.0,,,,A1PHDT66U6IK4Q
741,46,,1.0,26.0,2458347385-199723.jpg,2238480434-93829.jpg,1.0,,,,A1PHDT66U6IK4Q
742,47,,1.0,27.0,2981241414-145842.jpg,2427873848-47312.jpg,3.0,,,,A1PHDT66U6IK4Q
743,48,,1.0,28.0,2874301407-363895.jpg,2901947323-70275.jpg,3.0,,,,A1PHDT66U6IK4Q
744,49,,1.0,29.0,2901939379-143479.jpg,2446758985-197610.jpg,2.0,,,,A1PHDT66U6IK4Q
745,50,,1.0,30.0,2964216465-219242.jpg,2898619327-366362.jpg,3.0,,,,A1PHDT66U6IK4Q
746,51,left,1.0,31.0,left.jpg,,,left,0.5338,,A1PHDT66U6IK4Q
747,52,,1.0,32.0,2460547508-51571.jpg,2452380166-273109.jpg,1.0,,,,A1PHDT66U6IK4Q
748,53,,1.0,33.0,2874307433-66280.jpg,2981231422-369714.jpg,3.0,,,,A1PHDT66U6IK4Q
749,54,,1.0,34.0,2238481928-19949.jpg,2981241419-145844.jpg,3.0,,,,A1PHDT66U6IK4Q
750,55,,1.0,35.0,2238572663-35822.jpg,2238584894-113161.jpg,1.0,,,,A1PHDT66U6IK4Q
751,56,,1.0,36.0,2964218374-144967.jpg,2981231446-294732.jpg,3.0,,,,A1PHDT66U6IK4Q
752,57,,1.0,37.0,2901941401-292798.jpg,2898631468-68931.jpg,3.0,,,,A1PHDT66U6IK4Q
753,58,,1.0,38.0,2452380832-348593.jpg,2238328478-11678.jpg,1.0,,,,A1PHDT66U6IK4Q
754,59,,1.0,39.0,2898635427-367120.jpg,2964221435-219434.jpg,1.0,,,,A1PHDT66U6IK4Q
755,60,,1.0,40.0,2964222378-71332.jpg,2981240427-370099.jpg,3.0,,,,A1PHDT66U6IK4Q
756,61,,1.0,41.0,2446758985-197609.jpg,2898624426-291544.jpg,3.0,,,,A1PHDT66U6IK4Q
757,62,right,1.0,42.0,right.jpg,,,right,0.5974,,A1PHDT66U6IK4Q
758,63,,1.0,43.0,2864907432-362042.jpg,2989726338-74002.jpg,3.0,,,,A1PHDT66U6IK4Q
759,64,,1.0,44.0,2981231403-71642.jpg,2579432519-130698.jpg,1.0,,,,A1PHDT66U6IK4Q
760,65,,1.0,45.0,2874302418-65979.jpg,2237857458-1325.jpg,1.0,,,,A1PHDT66U6IK4Q
761,66,,1.0,46.0,2898617468-68274.jpg,2901943387-368037.jpg,2.0,,,,A1PHDT66U6IK4Q
762,67,,1.0,47.0,2898618390-216538.jpg,2901939327-367670.jpg,2.0,,,,A1PHDT66U6IK4Q
763,68,,1.0,48.0,2901952513-70703.jpg,2238481198-19821.jpg,3.0,,,,A1PHDT66U6IK4Q
764,69,right,1.0,49.0,right.jpg,,,right,0.5261,,A1PHDT66U6IK4Q
765,70,,1.0,50.0,2460547467-349421.jpg,2452380166-273110.jpg,2.0,,,,A1PHDT66U6IK4Q
766,71,,1.0,51.0,2868475410-213219.jpg,2868474407-362885.jpg,3.0,,,,A1PHDT66U6IK4Q
767,72,,1.0,52.0,2238428357-313623.jpg,2238499057-320266.jpg,1.0,,,,A1PHDT66U6IK4Q
768,73,,1.0,53.0,2883268412-365898.jpg,2238436252-314037.jpg,3.0,,,,A1PHDT66U6IK4Q
769,74,,1.0,54.0,2592380177-354626.jpg,2238117096-228518.jpg,3.0,,,,A1PHDT66U6IK4Q
770,75,,1.0,55.0,2883273443-68193.jpg,2460547508-51572.jpg,2.0,,,,A1PHDT66U6IK4Q
771,76,,1.0,56.0,2986451363-73598.jpg,2984628361-295995.jpg,2.0,,,,A1PHDT66U6IK4Q
772,77,,1.0,57.0,2874302418-65978.jpg,2238481198-19823.jpg,2.0,,,,A1PHDT66U6IK4Q
773,78,,1.0,58.0,2575120738-55529.jpg,2238531493-28260.jpg,3.0,,,,A1PHDT66U6IK4Q
774,79,,1.0,59.0,2898624426-291546.jpg,2964218432-369263.jpg,1.0,,,,A1PHDT66U6IK4Q
775,80,,1.0,60.0,2898633421-291973.jpg,2575118671-277663.jpg,2.0,,,,A1PHDT66U6IK4Q
776,81,,1.0,61.0,2898635428-69104.jpg,2898625336-291572.jpg,3.0,,,,A1PHDT66U6IK4Q
777,82,,1.0,62.0,2883256307-365057.jpg,2864904453-63933.jpg,3.0,,,,A1PHDT66U6IK4Q
778,83,,1.0,63.0,2898634397-367080.jpg,2901934408-69289.jpg,2.0,,,,A1PHDT66U6IK4Q
779,84,,1.0,64.0,2238480677-317399.jpg,2238481630-168218.jpg,1.0,,,,A1PHDT66U6IK4Q
780,20,,1.0,0.0,2446758985-197609.jpg,2864909447-362144.jpg,2.0,,,,A6GDXK2BWJTVH
781,21,,1.0,1.0,2460547467-349422.jpg,2864909447-362146.jpg,3.0,,,,A6GDXK2BWJTVH
782,22,,1.0,2.0,2874302418-65979.jpg,2237857458-1325.jpg,1.0,,,,A6GDXK2BWJTVH
783,23,,1.0,3.0,2868475410-213219.jpg,2238480803-19739.jpg,2.0,,,,A6GDXK2BWJTVH
784,24,,1.0,4.0,2964218374-144967.jpg,2446759306-271734.jpg,2.0,,,,A6GDXK2BWJTVH
785,25,,1.0,5.0,2901939379-143480.jpg,2981229442-369621.jpg,2.0,,,,A6GDXK2BWJTVH
786,26,,0.0,6.0,left.jpg,,,left,,,A6GDXK2BWJTVH
787,27,,1.0,7.0,2883256307-365057.jpg,2864904453-63933.jpg,3.0,,,,A6GDXK2BWJTVH
788,28,,1.0,8.0,2238560245-182099.jpg,2238480980-168129.jpg,3.0,,,,A6GDXK2BWJTVH
789,29,,1.0,9.0,2874303365-214262.jpg,2274829821-263682.jpg,1.0,,,,A6GDXK2BWJTVH
790,30,,1.0,10.0,2964216465-219242.jpg,2898619327-366362.jpg,3.0,,,,A6GDXK2BWJTVH
791,31,,1.0,11.0,2238572663-35822.jpg,2864903351-286874.jpg,3.0,,,,A6GDXK2BWJTVH
792,32,,1.0,12.0,2238425482-313537.jpg,2898633480-217190.jpg,3.0,,,,A6GDXK2BWJTVH
793,33,,1.0,13.0,2898635427-367120.jpg,2868479517-363220.jpg,2.0,,,,A6GDXK2BWJTVH
794,34,,1.0,14.0,2898635428-69104.jpg,2446759803-49250.jpg,1.0,,,,A6GDXK2BWJTVH
795,35,,1.0,15.0,2883268471-290842.jpg,2883255450-215310.jpg,2.0,,,,A6GDXK2BWJTVH
796,36,,0.0,16.0,right.jpg,,,right,,,A6GDXK2BWJTVH
797,37,,1.0,17.0,2460547508-51571.jpg,2901941438-69835.jpg,3.0,,,,A6GDXK2BWJTVH
798,38,,1.0,18.0,2874307433-66280.jpg,2984615358-72439.jpg,1.0,,,,A6GDXK2BWJTVH
799,39,,1.0,19.0,2898624426-291546.jpg,2981235446-294900.jpg,3.0,,,,A6GDXK2BWJTVH
800,40,,1.0,20.0,2874301407-363895.jpg,2986397322-371109.jpg,2.0,,,,A6GDXK2BWJTVH
801,41,,1.0,21.0,2898634397-367080.jpg,2237944827-301472.jpg,1.0,,,,A6GDXK2BWJTVH
802,42,,1.0,22.0,2898618444-142233.jpg,2898631359-142721.jpg,1.0,,,,A6GDXK2BWJTVH
803,43,,1.0,23.0,2901939379-143479.jpg,2964216376-294181.jpg,3.0,,,,A6GDXK2BWJTVH
804,44,,1.0,24.0,2986451363-73598.jpg,2237857458-1324.jpg,1.0,,,,A6GDXK2BWJTVH
805,45,,1.0,25.0,2452380832-348593.jpg,2238481813-19930.jpg,2.0,,,,A6GDXK2BWJTVH
806,46,,1.0,26.0,2238428357-313623.jpg,2238499057-320266.jpg,1.0,,,,A6GDXK2BWJTVH
807,47,right,0.0,27.0,left.jpg,,,left,0.3582,,A6GDXK2BWJTVH
808,48,,1.0,28.0,2238481198-19822.jpg,2862691449-137104.jpg,1.0,,,,A6GDXK2BWJTVH
809,49,,1.0,29.0,2981231403-71642.jpg,2427873763-47290.jpg,3.0,,,,A6GDXK2BWJTVH
810,50,,1.0,30.0,2901941401-292798.jpg,2981243412-370222.jpg,2.0,,,,A6GDXK2BWJTVH
811,51,,1.0,31.0,2238481928-19949.jpg,2883264367-365620.jpg,1.0,,,,A6GDXK2BWJTVH
812,52,,1.0,32.0,2883268412-365898.jpg,2984626312-370849.jpg,1.0,,,,A6GDXK2BWJTVH
813,53,,1.0,33.0,2238580740-186218.jpg,2238521193-26285.jpg,2.0,,,,A6GDXK2BWJTVH
814,54,,1.0,34.0,2898617468-68274.jpg,2901946439-144040.jpg,1.0,,,,A6GDXK2BWJTVH
815,55,,1.0,35.0,2592380177-354626.jpg,2238117096-228518.jpg,3.0,,,,A6GDXK2BWJTVH
816,56,,1.0,36.0,2986451363-73599.jpg,2898626385-216899.jpg,1.0,,,,A6GDXK2BWJTVH
817,57,,1.0,37.0,2874299429-139694.jpg,2981244403-72215.jpg,2.0,,,,A6GDXK2BWJTVH
818,58,,1.0,38.0,2575120738-55529.jpg,2864906345-212360.jpg,1.0,,,,A6GDXK2BWJTVH
819,59,right,1.0,39.0,right.jpg,,,right,0.2687,,A6GDXK2BWJTVH
820,60,,1.0,40.0,2449442529-124446.jpg,2460547536-274178.jpg,3.0,,,,A6GDXK2BWJTVH
821,61,,1.0,41.0,2592379964-131054.jpg,2592380272-354673.jpg,3.0,,,,A6GDXK2BWJTVH
822,62,,1.0,42.0,2238480677-317399.jpg,2238480278-19661.jpg,3.0,,,,A6GDXK2BWJTVH
823,63,,1.0,43.0,2864910426-287204.jpg,2864902304-137862.jpg,1.0,,,,A6GDXK2BWJTVH
824,64,,1.0,44.0,2901947423-70311.jpg,2238573447-333826.jpg,2.0,,,,A6GDXK2BWJTVH
825,65,,1.0,45.0,2460547467-349421.jpg,2981235446-294901.jpg,3.0,,,,A6GDXK2BWJTVH
826,66,,1.0,46.0,2446759803-49249.jpg,2898618440-216547.jpg,2.0,,,,A6GDXK2BWJTVH
827,67,,1.0,47.0,2458347385-199723.jpg,2427874554-121863.jpg,2.0,,,,A6GDXK2BWJTVH
828,68,,0.0,48.0,left.jpg,,,left,,,A6GDXK2BWJTVH
829,69,,1.0,49.0,2964223381-294447.jpg,2898628438-68785.jpg,3.0,,,,A6GDXK2BWJTVH
830,70,,1.0,50.0,2874302418-65978.jpg,2898633321-291943.jpg,3.0,,,,A6GDXK2BWJTVH
831,71,,1.0,51.0,2874299429-139695.jpg,2901942443-69923.jpg,2.0,,,,A6GDXK2BWJTVH
832,72,,1.0,52.0,2898633421-291973.jpg,2575118671-277663.jpg,2.0,,,,A6GDXK2BWJTVH
833,73,,1.0,53.0,2964213381-294060.jpg,2458348012-349114.jpg,2.0,,,,A6GDXK2BWJTVH
834,74,,1.0,54.0,2901952513-70703.jpg,2864907361-287062.jpg,1.0,,,,A6GDXK2BWJTVH
835,75,,1.0,55.0,2864907432-362042.jpg,2901947423-70310.jpg,2.0,,,,A6GDXK2BWJTVH
836,76,,1.0,56.0,2883273443-68193.jpg,2460547508-51572.jpg,2.0,,,,A6GDXK2BWJTVH
837,77,,1.0,57.0,2898618390-216538.jpg,2237856148-989.jpg,1.0,,,,A6GDXK2BWJTVH
838,78,,1.0,58.0,2964222378-71332.jpg,2981240427-370099.jpg,3.0,,,,A6GDXK2BWJTVH
839,79,,1.0,59.0,2452381505-199546.jpg,2994401319-148290.jpg,3.0,,,,A6GDXK2BWJTVH
840,80,,1.0,60.0,2868474407-362883.jpg,2901948383-70363.jpg,3.0,,,,A6GDXK2BWJTVH
841,81,,1.0,61.0,2981241414-145842.jpg,2874301404-139813.jpg,2.0,,,,A6GDXK2BWJTVH
842,82,,1.0,62.0,2449442529-124445.jpg,2452380171-273112.jpg,1.0,,,,A6GDXK2BWJTVH
843,83,,1.0,63.0,2592380177-354629.jpg,2898633421-291974.jpg,1.0,,,,A6GDXK2BWJTVH
844,84,,1.0,64.0,2512875899-126682.jpg,2460547536-274179.jpg,1.0,,,,A6GDXK2BWJTVH
845,20,,1.0,0.0,2864907432-362042.jpg,2989726338-74002.jpg,3.0,,,,A3DFUI6OKBNNGI
846,21,,1.0,1.0,2874302418-65979.jpg,2238578544-111698.jpg,3.0,,,,A3DFUI6OKBNNGI
847,22,,1.0,2.0,2238560245-182099.jpg,2874314526-289684.jpg,2.0,,,,A3DFUI6OKBNNGI
848,23,,1.0,3.0,2898633421-291973.jpg,2238550049-105691.jpg,3.0,,,,A3DFUI6OKBNNGI
849,24,,1.0,4.0,2883256307-365057.jpg,2864904453-63933.jpg,3.0,,,,A3DFUI6OKBNNGI
850,25,,1.0,5.0,2512875899-126682.jpg,2460547536-274179.jpg,1.0,,,,A3DFUI6OKBNNGI
851,26,,1.0,6.0,2452380832-348593.jpg,2238481813-19930.jpg,2.0,,,,A3DFUI6OKBNNGI
852,27,,1.0,7.0,2446758985-197609.jpg,2864909447-362144.jpg,2.0,,,,A3DFUI6OKBNNGI
853,28,,1.0,8.0,2238480677-317399.jpg,2238573546-258454.jpg,2.0,,,,A3DFUI6OKBNNGI
854,29,,1.0,9.0,2592380177-354626.jpg,2238576792-334659.jpg,1.0,,,,A3DFUI6OKBNNGI
855,30,,1.0,10.0,2452381505-199546.jpg,2901938432-367627.jpg,1.0,,,,A3DFUI6OKBNNGI
856,31,,1.0,11.0,2883268412-365898.jpg,2238436252-314037.jpg,3.0,,,,A3DFUI6OKBNNGI
857,32,,1.0,12.0,2898635427-367120.jpg,2868479517-363220.jpg,2.0,,,,A3DFUI6OKBNNGI
858,33,left,1.0,13.0,left.jpg,,,left,2.1889,,A3DFUI6OKBNNGI
859,34,,1.0,14.0,2460547467-349422.jpg,2864909447-362146.jpg,3.0,,,,A3DFUI6OKBNNGI
860,35,,1.0,15.0,2874299429-139695.jpg,2883266388-67750.jpg,1.0,,,,A3DFUI6OKBNNGI
861,36,,1.0,16.0,2446759803-49249.jpg,2446760601-272099.jpg,1.0,,,,A3DFUI6OKBNNGI
862,37,,1.0,17.0,2868474407-362883.jpg,2981246400-220363.jpg,2.0,,,,A3DFUI6OKBNNGI
863,38,,1.0,18.0,2864910426-287204.jpg,2883268412-365899.jpg,2.0,,,,A3DFUI6OKBNNGI
864,39,,1.0,19.0,2986451363-73598.jpg,2237857458-1324.jpg,1.0,,,,A3DFUI6OKBNNGI
865,40,,1.0,20.0,2874307433-66280.jpg,2984615358-72439.jpg,1.0,,,,A3DFUI6OKBNNGI
866,41,right,1.0,21.0,right.jpg,,,right,2.1411,,A3DFUI6OKBNNGI
867,42,,1.0,22.0,2964213381-294060.jpg,2981244394-145974.jpg,1.0,,,,A3DFUI6OKBNNGI
868,43,,1.0,23.0,2981231403-71642.jpg,2874305405-214397.jpg,2.0,,,,A3DFUI6OKBNNGI
869,44,,1.0,24.0,2898617468-68274.jpg,2901943387-368037.jpg,2.0,,,,A3DFUI6OKBNNGI
870,45,,1.0,25.0,2449442529-124446.jpg,2446759803-49251.jpg,1.0,,,,A3DFUI6OKBNNGI
871,46,,1.0,26.0,2575120738-55529.jpg,2575120738-55528.jpg,2.0,,,,A3DFUI6OKBNNGI
872,47,,1.0,27.0,2868475410-213219.jpg,2868474407-362885.jpg,3.0,,,,A3DFUI6OKBNNGI
873,48,,1.0,28.0,2964223381-294447.jpg,2898628438-68785.jpg,3.0,,,,A3DFUI6OKBNNGI
874,49,,1.0,29.0,2238572663-35822.jpg,2238571930-184143.jpg,2.0,,,,A3DFUI6OKBNNGI
875,50,right,1.0,30.0,right.jpg,,,right,1.7388,,A3DFUI6OKBNNGI
876,51,,1.0,31.0,2964222378-71332.jpg,2981240427-370099.jpg,3.0,,,,A3DFUI6OKBNNGI
877,52,,1.0,32.0,2964218374-144967.jpg,2964218374-144968.jpg,1.0,,,,A3DFUI6OKBNNGI
878,53,,1.0,33.0,2901952513-70703.jpg,2238481198-19821.jpg,3.0,,,,A3DFUI6OKBNNGI
879,54,,1.0,34.0,2460547508-51571.jpg,2981232437-369759.jpg,2.0,,,,A3DFUI6OKBNNGI
880,55,,1.0,35.0,2981241414-145842.jpg,2427873848-47312.jpg,3.0,,,,A3DFUI6OKBNNGI
881,56,,1.0,36.0,2898624426-291546.jpg,2981235446-294900.jpg,3.0,,,,A3DFUI6OKBNNGI
882,57,,1.0,37.0,2238580740-186218.jpg,2238550816-254000.jpg,1.0,,,,A3DFUI6OKBNNGI
883,58,,1.0,38.0,2238428357-313623.jpg,2238499057-320266.jpg,1.0,,,,A3DFUI6OKBNNGI
884,59,,1.0,39.0,2460547467-349421.jpg,2898631394-142727.jpg,1.0,,,,A3DFUI6OKBNNGI
885,60,,1.0,40.0,2592380177-354629.jpg,2579432534-130704.jpg,2.0,,,,A3DFUI6OKBNNGI
886,61,,1.0,41.0,2898634397-367080.jpg,2964217461-294238.jpg,3.0,,,,A3DFUI6OKBNNGI
887,62,right,1.0,42.0,right.jpg,,,right,2.035,,A3DFUI6OKBNNGI
888,63,,1.0,43.0,2883268471-290842.jpg,2883268471-290843.jpg,1.0,,,,A3DFUI6OKBNNGI
889,64,,1.0,44.0,2449442529-124445.jpg,2452380171-273112.jpg,1.0,,,,A3DFUI6OKBNNGI
890,65,,1.0,45.0,2874299429-139694.jpg,2981244403-72215.jpg,2.0,,,,A3DFUI6OKBNNGI
891,66,,1.0,46.0,2901939379-143479.jpg,2446758985-197610.jpg,2.0,,,,A3DFUI6OKBNNGI
892,67,,1.0,47.0,2874302418-65978.jpg,2964224310-219528.jpg,1.0,,,,A3DFUI6OKBNNGI
893,68,right,1.0,48.0,right.jpg,,,right,1.9175,,A3DFUI6OKBNNGI
894,69,,1.0,49.0,2592379964-131054.jpg,2575963989-130576.jpg,1.0,,,,A3DFUI6OKBNNGI
895,70,,1.0,50.0,2964216465-219242.jpg,2898619327-366362.jpg,3.0,,,,A3DFUI6OKBNNGI
896,71,,1.0,51.0,2238481928-19949.jpg,2981241419-145844.jpg,3.0,,,,A3DFUI6OKBNNGI
897,72,,1.0,52.0,2901939379-143480.jpg,2981229442-369621.jpg,2.0,,,,A3DFUI6OKBNNGI
898,73,,1.0,53.0,2874303365-214262.jpg,2864911457-362260.jpg,3.0,,,,A3DFUI6OKBNNGI
899,74,,1.0,54.0,2901947423-70311.jpg,2238573447-333826.jpg,2.0,,,,A3DFUI6OKBNNGI
900,75,,1.0,55.0,2458347385-199723.jpg,2238480434-93829.jpg,1.0,,,,A3DFUI6OKBNNGI
901,76,,1.0,56.0,2883273443-68193.jpg,2460547508-51572.jpg,2.0,,,,A3DFUI6OKBNNGI
902,77,,1.0,57.0,2986451363-73599.jpg,2860302315-210704.jpg,2.0,,,,A3DFUI6OKBNNGI
903,78,,1.0,58.0,2874301407-363895.jpg,2901947323-70275.jpg,3.0,,,,A3DFUI6OKBNNGI
904,79,,1.0,59.0,2898635428-69104.jpg,2901943411-292945.jpg,2.0,,,,A3DFUI6OKBNNGI
905,80,,1.0,60.0,2898618444-142233.jpg,2898618444-142232.jpg,3.0,,,,A3DFUI6OKBNNGI
906,81,,1.0,61.0,2898618390-216538.jpg,2237856148-989.jpg,1.0,,,,A3DFUI6OKBNNGI
907,82,,1.0,62.0,2238481198-19822.jpg,2238480803-19737.jpg,3.0,,,,A3DFUI6OKBNNGI
908,83,,1.0,63.0,2901941401-292798.jpg,2898631468-68931.jpg,3.0,,,,A3DFUI6OKBNNGI
909,84,,1.0,64.0,2238425482-313537.jpg,2238471391-240918.jpg,1.0,,,,A3DFUI6OKBNNGI
910,20,,1.0,0.0,2592380177-354629.jpg,2898633421-291974.jpg,1.0,,,,A38L8T6E70LVYE
911,21,,1.0,1.0,2512875899-126682.jpg,2460547536-274179.jpg,1.0,,,,A38L8T6E70LVYE
912,22,,1.0,2.0,2898618444-142233.jpg,2898618444-142232.jpg,3.0,,,,A38L8T6E70LVYE
913,23,,1.0,3.0,2964218374-144967.jpg,2964218374-144968.jpg,1.0,,,,A38L8T6E70LVYE
914,24,,1.0,4.0,2452381505-199546.jpg,2898632385-217138.jpg,2.0,,,,A38L8T6E70LVYE
915,25,,1.0,5.0,2898618390-216538.jpg,2575120609-129862.jpg,3.0,,,,A38L8T6E70LVYE
916,26,,1.0,6.0,2238428357-313623.jpg,2238499057-320266.jpg,1.0,,,,A38L8T6E70LVYE
917,27,,1.0,7.0,2868474407-362883.jpg,2460547732-349518.jpg,1.0,,,,A38L8T6E70LVYE
918,28,,1.0,8.0,2901939379-143479.jpg,2446758985-197610.jpg,2.0,,,,A38L8T6E70LVYE
919,29,,1.0,9.0,2898633421-291973.jpg,2238550049-105691.jpg,3.0,,,,A38L8T6E70LVYE
920,30,,1.0,10.0,2238480677-317399.jpg,2238480278-19661.jpg,3.0,,,,A38L8T6E70LVYE
921,31,,0.0,11.0,left.jpg,,,left,,,A38L8T6E70LVYE
922,32,,1.0,12.0,2874301407-363895.jpg,2986397322-371109.jpg,2.0,,,,A38L8T6E70LVYE
923,33,,1.0,13.0,2238425482-313537.jpg,2898633480-217190.jpg,3.0,,,,A38L8T6E70LVYE
924,34,,1.0,14.0,2898634397-367080.jpg,2901934408-69289.jpg,2.0,,,,A38L8T6E70LVYE
925,35,,1.0,15.0,2460547467-349421.jpg,2452380166-273110.jpg,2.0,,,,A38L8T6E70LVYE
926,36,,1.0,16.0,2452380832-348593.jpg,2237858942-299356.jpg,3.0,,,,A38L8T6E70LVYE
927,37,,0.0,17.0,left.jpg,,,left,,,A38L8T6E70LVYE
928,38,,1.0,18.0,2901947423-70311.jpg,2238573447-333826.jpg,2.0,,,,A38L8T6E70LVYE
929,39,,1.0,19.0,2883268412-365898.jpg,2238436252-314037.jpg,3.0,,,,A38L8T6E70LVYE
930,40,,1.0,20.0,2898617468-68274.jpg,2964207374-144577.jpg,3.0,,,,A38L8T6E70LVYE
931,41,,1.0,21.0,2238560245-182099.jpg,2874314526-289684.jpg,2.0,,,,A38L8T6E70LVYE
932,42,,1.0,22.0,2901941401-292798.jpg,2898618327-366317.jpg,1.0,,,,A38L8T6E70LVYE
933,43,,1.0,23.0,2883256307-365057.jpg,2964210336-293945.jpg,2.0,,,,A38L8T6E70LVYE
934,44,,1.0,24.0,2575120738-55529.jpg,2864906345-212360.jpg,1.0,,,,A38L8T6E70LVYE
935,45,,1.0,25.0,2460547467-349422.jpg,2898618440-216545.jpg,1.0,,,,A38L8T6E70LVYE
936,46,,1.0,26.0,2898635427-367120.jpg,2898621427-366486.jpg,3.0,,,,A38L8T6E70LVYE
937,47,,0.0,27.0,right.jpg,,,right,,,A38L8T6E70LVYE
938,48,,1.0,28.0,2874302418-65979.jpg,2238480648-19714.jpg,2.0,,,,A38L8T6E70LVYE
939,49,,1.0,29.0,2449442529-124446.jpg,2446759803-49251.jpg,1.0,,,,A38L8T6E70LVYE
940,50,,1.0,30.0,2238481198-19822.jpg,2238480803-19737.jpg,3.0,,,,A38L8T6E70LVYE
941,51,,1.0,31.0,2446759803-49249.jpg,2901951392-368654.jpg,3.0,,,,A38L8T6E70LVYE
942,52,,1.0,32.0,2864907432-362042.jpg,2864901420-212147.jpg,1.0,,,,A38L8T6E70LVYE
943,53,,1.0,33.0,2874302418-65978.jpg,2898633321-291943.jpg,3.0,,,,A38L8T6E70LVYE
944,54,,1.0,34.0,2460547508-51571.jpg,2981232437-369759.jpg,2.0,,,,A38L8T6E70LVYE
945,55,,1.0,35.0,2238481928-19949.jpg,2864900357-361688.jpg,2.0,,,,A38L8T6E70LVYE
946,56,,1.0,36.0,2238580740-186218.jpg,2238550816-254000.jpg,1.0,,,,A38L8T6E70LVYE
947,57,,1.0,37.0,2964213381-294060.jpg,2458348012-349114.jpg,2.0,,,,A38L8T6E70LVYE
948,58,,1.0,38.0,2874299429-139694.jpg,2986447306-296584.jpg,1.0,,,,A38L8T6E70LVYE
949,59,,1.0,39.0,2449442529-124445.jpg,2898632385-217137.jpg,3.0,,,,A38L8T6E70LVYE
950,60,left,1.0,40.0,left.jpg,,,left,2.1442,,A38L8T6E70LVYE
951,61,,1.0,41.0,2868475410-213219.jpg,2901946465-218350.jpg,1.0,,,,A38L8T6E70LVYE
952,62,,1.0,42.0,2898624426-291546.jpg,2981235446-294900.jpg,3.0,,,,A38L8T6E70LVYE
953,63,,1.0,43.0,2986451363-73599.jpg,2238434559-90406.jpg,3.0,,,,A38L8T6E70LVYE
954,64,,1.0,44.0,2964216465-219242.jpg,2864900319-137787.jpg,2.0,,,,A38L8T6E70LVYE
955,65,,1.0,45.0,2883268471-290842.jpg,2883255450-215310.jpg,2.0,,,,A38L8T6E70LVYE
956,66,,1.0,46.0,2458347385-199723.jpg,2458347252-348911.jpg,3.0,,,,A38L8T6E70LVYE
957,67,,1.0,47.0,2592379964-131054.jpg,2575963989-130576.jpg,1.0,,,,A38L8T6E70LVYE
958,68,right,1.0,48.0,right.jpg,,,right,2.1161,,A38L8T6E70LVYE
959,69,,1.0,49.0,2986451363-73598.jpg,2237857458-1324.jpg,1.0,,,,A38L8T6E70LVYE
960,70,,1.0,50.0,2898635428-69104.jpg,2901943411-292945.jpg,2.0,,,,A38L8T6E70LVYE
961,71,,1.0,51.0,2883273443-68193.jpg,2883254439-140940.jpg,1.0,,,,A38L8T6E70LVYE
962,72,,1.0,52.0,2981231403-71642.jpg,2874305405-214397.jpg,2.0,,,,A38L8T6E70LVYE
963,73,,1.0,53.0,2446758985-197609.jpg,2864909447-362144.jpg,2.0,,,,A38L8T6E70LVYE
964,74,,1.0,54.0,2592380177-354626.jpg,2238576792-334659.jpg,1.0,,,,A38L8T6E70LVYE
965,75,,1.0,55.0,2874299429-139695.jpg,2446760917-347439.jpg,3.0,,,,A38L8T6E70LVYE
966,76,,1.0,56.0,2981241414-145842.jpg,2238516618-25604.jpg,1.0,,,,A38L8T6E70LVYE
967,77,,1.0,57.0,2901952513-70703.jpg,2238481198-19821.jpg,3.0,,,,A38L8T6E70LVYE
968,78,,1.0,58.0,2864910426-287204.jpg,2864902304-137862.jpg,1.0,,,,A38L8T6E70LVYE
969,79,,1.0,59.0,2238572663-35822.jpg,2238584894-113161.jpg,1.0,,,,A38L8T6E70LVYE
970,80,,1.0,60.0,2964223381-294447.jpg,2898628438-68785.jpg,3.0,,,,A38L8T6E70LVYE
971,81,,1.0,61.0,2964222378-71332.jpg,2901933382-367209.jpg,2.0,,,,A38L8T6E70LVYE
972,82,,1.0,62.0,2901939379-143480.jpg,2981229442-369621.jpg,2.0,,,,A38L8T6E70LVYE
973,83,,1.0,63.0,2874303365-214262.jpg,2864911457-362260.jpg,3.0,,,,A38L8T6E70LVYE
974,84,,1.0,64.0,2874307433-66280.jpg,2981246400-220365.jpg,2.0,,,,A38L8T6E70LVYE
975,20,,1.0,0.0,2874299429-139695.jpg,2901942443-69923.jpg,2.0,,,,A3SSIUMI7ONK5W
976,21,,1.0,1.0,2898618390-216538.jpg,2575120609-129862.jpg,3.0,,,,A3SSIUMI7ONK5W
977,22,,1.0,2.0,2883256307-365057.jpg,2964210336-293945.jpg,2.0,,,,A3SSIUMI7ONK5W
978,23,,1.0,3.0,2449442529-124446.jpg,2446759803-49251.jpg,1.0,,,,A3SSIUMI7ONK5W
979,24,,1.0,4.0,2238481928-19949.jpg,2981241419-145844.jpg,3.0,,,,A3SSIUMI7ONK5W
980,25,,1.0,5.0,2901939379-143479.jpg,2964216376-294181.jpg,3.0,,,,A3SSIUMI7ONK5W
981,26,,1.0,6.0,2238425482-313537.jpg,2238436322-314047.jpg,2.0,,,,A3SSIUMI7ONK5W
982,27,,1.0,7.0,2238572663-35822.jpg,2238571930-184143.jpg,2.0,,,,A3SSIUMI7ONK5W
983,28,,1.0,8.0,2238481198-19822.jpg,2862691449-137104.jpg,1.0,,,,A3SSIUMI7ONK5W
984,29,,0.0,9.0,right.jpg,,,right,,,A3SSIUMI7ONK5W
985,30,,1.0,10.0,2898634397-367080.jpg,2901934408-69289.jpg,2.0,,,,A3SSIUMI7ONK5W
986,31,,1.0,11.0,2964223381-294447.jpg,2901941438-69836.jpg,2.0,,,,A3SSIUMI7ONK5W
987,32,,1.0,12.0,2898635427-367120.jpg,2898621427-366486.jpg,3.0,,,,A3SSIUMI7ONK5W
988,33,,1.0,13.0,2458347385-199723.jpg,2458347252-348911.jpg,3.0,,,,A3SSIUMI7ONK5W
989,34,,1.0,14.0,2446758985-197609.jpg,2981240424-145795.jpg,1.0,,,,A3SSIUMI7ONK5W
990,35,,1.0,15.0,2238580740-186218.jpg,2238521193-26285.jpg,2.0,,,,A3SSIUMI7ONK5W
991,36,,0.0,16.0,left.jpg,,,left,,,A3SSIUMI7ONK5W
992,37,,1.0,17.0,2238428357-313623.jpg,2238499057-320266.jpg,1.0,,,,A3SSIUMI7ONK5W
993,38,,1.0,18.0,2592380177-354626.jpg,2238117096-228518.jpg,3.0,,,,A3SSIUMI7ONK5W
994,39,,1.0,19.0,2446759803-49249.jpg,2446760601-272099.jpg,1.0,,,,A3SSIUMI7ONK5W
995,40,,1.0,20.0,2449442529-124445.jpg,2898632385-217137.jpg,3.0,,,,A3SSIUMI7ONK5W
996,41,,1.0,21.0,2868474407-362883.jpg,2460547732-349518.jpg,1.0,,,,A3SSIUMI7ONK5W
997,42,,1.0,22.0,2964216465-219242.jpg,2238544191-252422.jpg,1.0,,,,A3SSIUMI7ONK5W
998,43,,1.0,23.0,2964222378-71332.jpg,2981240424-145794.jpg,1.0,,,,A3SSIUMI7ONK5W
999,44,,1.0,24.0,2512875899-126682.jpg,2986447332-371497.jpg,3.0,,,,A3SSIUMI7ONK5W
1000,45,,1.0,25.0,2883273443-68193.jpg,2883254439-140940.jpg,1.0,,,,A3SSIUMI7ONK5W
1001,46,,0.0,26.0,left.jpg,,,left,,,A3SSIUMI7ONK5W
1002,47,,1.0,27.0,2868475410-213219.jpg,2238480803-19739.jpg,2.0,,,,A3SSIUMI7ONK5W
1003,48,,1.0,28.0,2901952513-70703.jpg,2864907361-287062.jpg,1.0,,,,A3SSIUMI7ONK5W
1004,49,,1.0,29.0,2964213381-294060.jpg,2981244394-145974.jpg,1.0,,,,A3SSIUMI7ONK5W
1005,50,,1.0,30.0,2883268412-365898.jpg,2984615361-295510.jpg,2.0,,,,A3SSIUMI7ONK5W
1006,51,,1.0,31.0,2901941401-292798.jpg,2898631468-68931.jpg,3.0,,,,A3SSIUMI7ONK5W
1007,52,,1.0,32.0,2452380832-348593.jpg,2238328478-11678.jpg,1.0,,,,A3SSIUMI7ONK5W
1008,53,,1.0,33.0,2883268471-290842.jpg,2883255450-215310.jpg,2.0,,,,A3SSIUMI7ONK5W
1009,54,,1.0,34.0,2460547508-51571.jpg,2452380166-273109.jpg,1.0,,,,A3SSIUMI7ONK5W
1010,55,,1.0,35.0,2864907432-362042.jpg,2864901420-212147.jpg,1.0,,,,A3SSIUMI7ONK5W
1011,56,,1.0,36.0,2592380177-354629.jpg,2579432534-130704.jpg,2.0,,,,A3SSIUMI7ONK5W
1012,57,,1.0,37.0,2981231403-71642.jpg,2579432519-130698.jpg,1.0,,,,A3SSIUMI7ONK5W
1013,58,,0.0,38.0,left.jpg,,,left,,,A3SSIUMI7ONK5W
1014,59,,1.0,39.0,2592379964-131054.jpg,2238479053-19457.jpg,2.0,,,,A3SSIUMI7ONK5W
1015,60,,1.0,40.0,2452381505-199546.jpg,2898632385-217138.jpg,2.0,,,,A3SSIUMI7ONK5W
1016,61,,1.0,41.0,2901939379-143480.jpg,2901942428-69919.jpg,1.0,,,,A3SSIUMI7ONK5W
1017,62,,1.0,42.0,2874307433-66280.jpg,2981231422-369714.jpg,3.0,,,,A3SSIUMI7ONK5W
1018,63,,1.0,43.0,2238560245-182099.jpg,2238480980-168129.jpg,3.0,,,,A3SSIUMI7ONK5W
1019,64,,1.0,44.0,2460547467-349421.jpg,2981235446-294901.jpg,3.0,,,,A3SSIUMI7ONK5W
1020,65,,1.0,45.0,2986451363-73598.jpg,2237857458-1324.jpg,1.0,,,,A3SSIUMI7ONK5W
1021,66,,1.0,46.0,2898633421-291973.jpg,2238550049-105691.jpg,3.0,,,,A3SSIUMI7ONK5W
1022,67,,1.0,47.0,2898618444-142233.jpg,2238555262-330312.jpg,2.0,,,,A3SSIUMI7ONK5W
1023,68,,1.0,48.0,2238480677-317399.jpg,2238480278-19661.jpg,3.0,,,,A3SSIUMI7ONK5W
1024,69,,0.0,49.0,left.jpg,,,left,,,A3SSIUMI7ONK5W
1025,70,,1.0,50.0,2898635428-69104.jpg,2446759803-49250.jpg,1.0,,,,A3SSIUMI7ONK5W
1026,71,,1.0,51.0,2981241414-145842.jpg,2874301404-139813.jpg,2.0,,,,A3SSIUMI7ONK5W
1027,72,,1.0,52.0,2964218374-144967.jpg,2981231446-294732.jpg,3.0,,,,A3SSIUMI7ONK5W
1028,73,,1.0,53.0,2874301407-363895.jpg,2986397322-371109.jpg,2.0,,,,A3SSIUMI7ONK5W
1029,74,,1.0,54.0,2874299429-139694.jpg,2986447306-296584.jpg,1.0,,,,A3SSIUMI7ONK5W
1030,75,,1.0,55.0,2874303365-214262.jpg,2274829821-263682.jpg,1.0,,,,A3SSIUMI7ONK5W
1031,76,,1.0,56.0,2898624426-291546.jpg,2981235446-294900.jpg,3.0,,,,A3SSIUMI7ONK5W
1032,77,,1.0,57.0,2986451363-73599.jpg,2238434559-90406.jpg,3.0,,,,A3SSIUMI7ONK5W
1033,78,,1.0,58.0,2874302418-65978.jpg,2898633321-291943.jpg,3.0,,,,A3SSIUMI7ONK5W
1034,79,,1.0,59.0,2575120738-55529.jpg,2575120738-55528.jpg,2.0,,,,A3SSIUMI7ONK5W
1035,80,,1.0,60.0,2874302418-65979.jpg,2238480648-19714.jpg,2.0,,,,A3SSIUMI7ONK5W
1036,81,,1.0,61.0,2901947423-70311.jpg,2238573447-333826.jpg,2.0,,,,A3SSIUMI7ONK5W
1037,82,,1.0,62.0,2864910426-287204.jpg,2901939433-69672.jpg,3.0,,,,A3SSIUMI7ONK5W
1038,83,,1.0,63.0,2898617468-68274.jpg,2964207374-144577.jpg,3.0,,,,A3SSIUMI7ONK5W
1039,84,,1.0,64.0,2460547467-349422.jpg,2868487415-213924.jpg,2.0,,,,A3SSIUMI7ONK5W
1040,20,,1.0,0.0,2592380177-354626.jpg,2238576792-334659.jpg,1.0,,,,A3Q9X8CBPHFRTZ
1041,21,,1.0,1.0,2446758985-197609.jpg,2864909447-362144.jpg,2.0,,,,A3Q9X8CBPHFRTZ
1042,22,,1.0,2.0,2238572663-35822.jpg,2238584894-113161.jpg,1.0,,,,A3Q9X8CBPHFRTZ
1043,23,,1.0,3.0,2901939379-143479.jpg,2964216376-294181.jpg,3.0,,,,A3Q9X8CBPHFRTZ
1044,24,,1.0,4.0,2238580740-186218.jpg,2964220333-71258.jpg,3.0,,,,A3Q9X8CBPHFRTZ
1045,25,,1.0,5.0,2592380177-354629.jpg,2898633421-291974.jpg,1.0,,,,A3Q9X8CBPHFRTZ
1046,26,,1.0,6.0,2874301407-363895.jpg,2446761374-124213.jpg,1.0,,,,A3Q9X8CBPHFRTZ
1047,27,,1.0,7.0,2874302418-65979.jpg,2238480648-19714.jpg,2.0,,,,A3Q9X8CBPHFRTZ
1048,28,,0.0,8.0,left.jpg,,,left,,,A3Q9X8CBPHFRTZ
1049,29,,1.0,9.0,2592379964-131054.jpg,2575963989-130576.jpg,1.0,,,,A3Q9X8CBPHFRTZ
1050,30,,1.0,10.0,2898617468-68274.jpg,2901943387-368037.jpg,2.0,,,,A3Q9X8CBPHFRTZ
1051,31,,1.0,11.0,2452380832-348593.jpg,2237858942-299356.jpg,3.0,,,,A3Q9X8CBPHFRTZ
1052,32,,1.0,12.0,2981231403-71642.jpg,2427873763-47290.jpg,3.0,,,,A3Q9X8CBPHFRTZ
1053,33,,1.0,13.0,2874299429-139695.jpg,2446760917-347439.jpg,3.0,,,,A3Q9X8CBPHFRTZ
1054,34,,1.0,14.0,2986451363-73599.jpg,2860302315-210704.jpg,2.0,,,,A3Q9X8CBPHFRTZ
1055,35,,1.0,15.0,2460547508-51571.jpg,2452380166-273109.jpg,1.0,,,,A3Q9X8CBPHFRTZ
1056,36,,1.0,16.0,2874302418-65978.jpg,2898633321-291943.jpg,3.0,,,,A3Q9X8CBPHFRTZ
1057,37,,1.0,17.0,2864907432-362042.jpg,2901947423-70310.jpg,2.0,,,,A3Q9X8CBPHFRTZ
1058,38,,1.0,18.0,2883268471-290842.jpg,2883268471-290843.jpg,1.0,,,,A3Q9X8CBPHFRTZ
1059,39,,0.0,19.0,left.jpg,,,left,,,A3Q9X8CBPHFRTZ
1060,40,,1.0,20.0,2238560245-182099.jpg,2238480980-168129.jpg,3.0,,,,A3Q9X8CBPHFRTZ
1061,41,,1.0,21.0,2238428357-313623.jpg,2238499057-320266.jpg,1.0,,,,A3Q9X8CBPHFRTZ
1062,42,,1.0,22.0,2460547467-349421.jpg,2981235446-294901.jpg,3.0,,,,A3Q9X8CBPHFRTZ
1063,43,,1.0,23.0,2512875899-126682.jpg,2986447332-371497.jpg,3.0,,,,A3Q9X8CBPHFRTZ
1064,44,,1.0,24.0,2874303365-214262.jpg,2238563377-332054.jpg,2.0,,,,A3Q9X8CBPHFRTZ
1065,45,,1.0,25.0,2901939379-143480.jpg,2981229442-369621.jpg,2.0,,,,A3Q9X8CBPHFRTZ
1066,46,,0.0,26.0,left.jpg,,,left,,,A3Q9X8CBPHFRTZ
1067,47,,1.0,27.0,2901947423-70311.jpg,2238577590-185467.jpg,3.0,,,,A3Q9X8CBPHFRTZ
1068,48,,1.0,28.0,2964223381-294447.jpg,2901941438-69836.jpg,2.0,,,,A3Q9X8CBPHFRTZ
1069,49,,1.0,29.0,2864910426-287204.jpg,2883268412-365899.jpg,2.0,,,,A3Q9X8CBPHFRTZ
1070,50,,1.0,30.0,2964216465-219242.jpg,2898619327-366362.jpg,3.0,,,,A3Q9X8CBPHFRTZ
1071,51,,1.0,31.0,2874299429-139694.jpg,2986447306-296584.jpg,1.0,,,,A3Q9X8CBPHFRTZ
1072,52,,1.0,32.0,2238425482-313537.jpg,2238436322-314047.jpg,2.0,,,,A3Q9X8CBPHFRTZ
1073,53,,1.0,33.0,2883268412-365898.jpg,2984626312-370849.jpg,1.0,,,,A3Q9X8CBPHFRTZ
1074,54,,1.0,34.0,2868474407-362883.jpg,2901948383-70363.jpg,3.0,,,,A3Q9X8CBPHFRTZ
1075,55,,1.0,35.0,2898618390-216538.jpg,2575120609-129862.jpg,3.0,,,,A3Q9X8CBPHFRTZ
1076,56,,1.0,36.0,2898635427-367120.jpg,2964221435-219434.jpg,1.0,,,,A3Q9X8CBPHFRTZ
1077,57,,1.0,37.0,2238481198-19822.jpg,2238480803-19737.jpg,3.0,,,,A3Q9X8CBPHFRTZ
1078,58,,1.0,38.0,2238481928-19949.jpg,2883264367-365620.jpg,1.0,,,,A3Q9X8CBPHFRTZ
1079,59,,1.0,39.0,2964213381-294060.jpg,2458348012-349114.jpg,2.0,,,,A3Q9X8CBPHFRTZ
1080,60,,1.0,40.0,2898634397-367080.jpg,2964217461-294238.jpg,3.0,,,,A3Q9X8CBPHFRTZ
1081,61,,1.0,41.0,2981241414-145842.jpg,2238516618-25604.jpg,1.0,,,,A3Q9X8CBPHFRTZ
1082,62,,1.0,42.0,2898624426-291546.jpg,2964218432-369263.jpg,1.0,,,,A3Q9X8CBPHFRTZ
1083,63,,1.0,43.0,2449442529-124446.jpg,2446759803-49251.jpg,1.0,,,,A3Q9X8CBPHFRTZ
1084,64,,0.0,44.0,left.jpg,,,left,,,A3Q9X8CBPHFRTZ
1085,65,,1.0,45.0,2446759803-49249.jpg,2898618440-216547.jpg,2.0,,,,A3Q9X8CBPHFRTZ
1086,66,,1.0,46.0,2898633421-291973.jpg,2575118671-277663.jpg,2.0,,,,A3Q9X8CBPHFRTZ
1087,67,,1.0,47.0,2883256307-365057.jpg,2864904453-63933.jpg,3.0,,,,A3Q9X8CBPHFRTZ
1088,68,,0.0,48.0,right.jpg,,,right,,,A3Q9X8CBPHFRTZ
1089,69,,1.0,49.0,2883273443-68193.jpg,2898627427-366763.jpg,3.0,,,,A3Q9X8CBPHFRTZ
1090,70,,1.0,50.0,2575120738-55529.jpg,2864906345-212360.jpg,1.0,,,,A3Q9X8CBPHFRTZ
1091,71,,1.0,51.0,2964218374-144967.jpg,2446759306-271734.jpg,2.0,,,,A3Q9X8CBPHFRTZ
1092,72,,1.0,52.0,2901941401-292798.jpg,2898631468-68931.jpg,3.0,,,,A3Q9X8CBPHFRTZ
1093,73,,1.0,53.0,2898618444-142233.jpg,2898618444-142232.jpg,3.0,,,,A3Q9X8CBPHFRTZ
1094,74,,1.0,54.0,2898635428-69104.jpg,2898625336-291572.jpg,3.0,,,,A3Q9X8CBPHFRTZ
1095,75,,1.0,55.0,2460547467-349422.jpg,2868487415-213924.jpg,2.0,,,,A3Q9X8CBPHFRTZ
1096,76,,1.0,56.0,2452381505-199546.jpg,2901938432-367627.jpg,1.0,,,,A3Q9X8CBPHFRTZ
1097,77,,1.0,57.0,2449442529-124445.jpg,2452380171-273112.jpg,1.0,,,,A3Q9X8CBPHFRTZ
1098,78,,1.0,58.0,2901952513-70703.jpg,2864907361-287062.jpg,1.0,,,,A3Q9X8CBPHFRTZ
1099,79,,1.0,59.0,2458347385-199723.jpg,2427874554-121863.jpg,2.0,,,,A3Q9X8CBPHFRTZ
1100,80,,1.0,60.0,2238480677-317399.jpg,2238573546-258454.jpg,2.0,,,,A3Q9X8CBPHFRTZ
1101,81,,1.0,61.0,2964222378-71332.jpg,2901933382-367209.jpg,2.0,,,,A3Q9X8CBPHFRTZ
1102,82,,1.0,62.0,2986451363-73598.jpg,2984628361-295995.jpg,2.0,,,,A3Q9X8CBPHFRTZ
1103,83,,1.0,63.0,2868475410-213219.jpg,2901946465-218350.jpg,1.0,,,,A3Q9X8CBPHFRTZ
1104,84,,1.0,64.0,2874307433-66280.jpg,2981246400-220365.jpg,2.0,,,,A3Q9X8CBPHFRTZ
1105,20,,1.0,0.0,2592380177-354626.jpg,2238576792-334659.jpg,1.0,,,,AMPR904VJJFZY
1106,21,,1.0,1.0,2446758985-197609.jpg,2864909447-362144.jpg,2.0,,,,AMPR904VJJFZY
1107,22,,1.0,2.0,2238572663-35822.jpg,2238584894-113161.jpg,1.0,,,,AMPR904VJJFZY
1108,23,,1.0,3.0,2901939379-143479.jpg,2964216376-294181.jpg,3.0,,,,AMPR904VJJFZY
1109,24,,1.0,4.0,2238580740-186218.jpg,2964220333-71258.jpg,3.0,,,,AMPR904VJJFZY
1110,25,,1.0,5.0,2592380177-354629.jpg,2898633421-291974.jpg,1.0,,,,AMPR904VJJFZY
1111,26,,1.0,6.0,2874301407-363895.jpg,2446761374-124213.jpg,1.0,,,,AMPR904VJJFZY
1112,27,,1.0,7.0,2874302418-65979.jpg,2238480648-19714.jpg,2.0,,,,AMPR904VJJFZY
1113,28,left,1.0,8.0,left.jpg,,,left,0.6258,,AMPR904VJJFZY
1114,29,,1.0,9.0,2592379964-131054.jpg,2575963989-130576.jpg,1.0,,,,AMPR904VJJFZY
1115,30,,1.0,10.0,2898617468-68274.jpg,2901943387-368037.jpg,2.0,,,,AMPR904VJJFZY
1116,31,,1.0,11.0,2452380832-348593.jpg,2237858942-299356.jpg,3.0,,,,AMPR904VJJFZY
1117,32,,1.0,12.0,2981231403-71642.jpg,2427873763-47290.jpg,3.0,,,,AMPR904VJJFZY
1118,33,,1.0,13.0,2874299429-139695.jpg,2446760917-347439.jpg,3.0,,,,AMPR904VJJFZY
1119,34,,1.0,14.0,2986451363-73599.jpg,2860302315-210704.jpg,2.0,,,,AMPR904VJJFZY
1120,35,,1.0,15.0,2460547508-51571.jpg,2452380166-273109.jpg,1.0,,,,AMPR904VJJFZY
1121,36,,1.0,16.0,2874302418-65978.jpg,2898633321-291943.jpg,3.0,,,,AMPR904VJJFZY
1122,37,,1.0,17.0,2864907432-362042.jpg,2901947423-70310.jpg,2.0,,,,AMPR904VJJFZY
1123,38,,1.0,18.0,2883268471-290842.jpg,2883268471-290843.jpg,1.0,,,,AMPR904VJJFZY
1124,39,left,1.0,19.0,left.jpg,,,left,0.5926,,AMPR904VJJFZY
1125,40,,1.0,20.0,2238560245-182099.jpg,2238480980-168129.jpg,3.0,,,,AMPR904VJJFZY
1126,41,,1.0,21.0,2238428357-313623.jpg,2238499057-320266.jpg,1.0,,,,AMPR904VJJFZY
1127,42,,1.0,22.0,2460547467-349421.jpg,2981235446-294901.jpg,3.0,,,,AMPR904VJJFZY
1128,43,,1.0,23.0,2512875899-126682.jpg,2986447332-371497.jpg,3.0,,,,AMPR904VJJFZY
1129,44,,1.0,24.0,2874303365-214262.jpg,2238563377-332054.jpg,2.0,,,,AMPR904VJJFZY
1130,45,,1.0,25.0,2901939379-143480.jpg,2981229442-369621.jpg,2.0,,,,AMPR904VJJFZY
1131,46,left,1.0,26.0,left.jpg,,,left,0.4422,,AMPR904VJJFZY
1132,47,,1.0,27.0,2901947423-70311.jpg,2238577590-185467.jpg,3.0,,,,AMPR904VJJFZY
1133,48,,1.0,28.0,2964223381-294447.jpg,2901941438-69836.jpg,2.0,,,,AMPR904VJJFZY
1134,49,,1.0,29.0,2864910426-287204.jpg,2883268412-365899.jpg,2.0,,,,AMPR904VJJFZY
1135,50,,1.0,30.0,2964216465-219242.jpg,2898619327-366362.jpg,3.0,,,,AMPR904VJJFZY
1136,51,,1.0,31.0,2874299429-139694.jpg,2986447306-296584.jpg,1.0,,,,AMPR904VJJFZY
1137,52,,1.0,32.0,2238425482-313537.jpg,2238436322-314047.jpg,2.0,,,,AMPR904VJJFZY
1138,53,,1.0,33.0,2883268412-365898.jpg,2984626312-370849.jpg,1.0,,,,AMPR904VJJFZY
1139,54,,1.0,34.0,2868474407-362883.jpg,2901948383-70363.jpg,3.0,,,,AMPR904VJJFZY
1140,55,,1.0,35.0,2898618390-216538.jpg,2575120609-129862.jpg,3.0,,,,AMPR904VJJFZY
1141,56,,1.0,36.0,2898635427-367120.jpg,2964221435-219434.jpg,1.0,,,,AMPR904VJJFZY
1142,57,,1.0,37.0,2238481198-19822.jpg,2238480803-19737.jpg,3.0,,,,AMPR904VJJFZY
1143,58,,1.0,38.0,2238481928-19949.jpg,2883264367-365620.jpg,1.0,,,,AMPR904VJJFZY
1144,59,,1.0,39.0,2964213381-294060.jpg,2458348012-349114.jpg,2.0,,,,AMPR904VJJFZY
1145,60,,1.0,40.0,2898634397-367080.jpg,2964217461-294238.jpg,3.0,,,,AMPR904VJJFZY
1146,61,,1.0,41.0,2981241414-145842.jpg,2238516618-25604.jpg,1.0,,,,AMPR904VJJFZY
1147,62,,1.0,42.0,2898624426-291546.jpg,2964218432-369263.jpg,1.0,,,,AMPR904VJJFZY
1148,63,,1.0,43.0,2449442529-124446.jpg,2446759803-49251.jpg,1.0,,,,AMPR904VJJFZY
1149,64,left,1.0,44.0,left.jpg,,,left,0.755,,AMPR904VJJFZY
1150,65,,1.0,45.0,2446759803-49249.jpg,2898618440-216547.jpg,2.0,,,,AMPR904VJJFZY
1151,66,,1.0,46.0,2898633421-291973.jpg,2575118671-277663.jpg,2.0,,,,AMPR904VJJFZY
1152,67,,1.0,47.0,2883256307-365057.jpg,2864904453-63933.jpg,3.0,,,,AMPR904VJJFZY
1153,68,right,1.0,48.0,right.jpg,,,right,1.1276,,AMPR904VJJFZY
1154,69,,1.0,49.0,2883273443-68193.jpg,2898627427-366763.jpg,3.0,,,,AMPR904VJJFZY
1155,70,,1.0,50.0,2575120738-55529.jpg,2864906345-212360.jpg,1.0,,,,AMPR904VJJFZY
1156,71,,1.0,51.0,2964218374-144967.jpg,2446759306-271734.jpg,2.0,,,,AMPR904VJJFZY
1157,72,,1.0,52.0,2901941401-292798.jpg,2898631468-68931.jpg,3.0,,,,AMPR904VJJFZY
1158,73,,1.0,53.0,2898618444-142233.jpg,2898618444-142232.jpg,3.0,,,,AMPR904VJJFZY
1159,74,,1.0,54.0,2898635428-69104.jpg,2898625336-291572.jpg,3.0,,,,AMPR904VJJFZY
1160,75,,1.0,55.0,2460547467-349422.jpg,2868487415-213924.jpg,2.0,,,,AMPR904VJJFZY
1161,76,,1.0,56.0,2452381505-199546.jpg,2901938432-367627.jpg,1.0,,,,AMPR904VJJFZY
1162,77,,1.0,57.0,2449442529-124445.jpg,2452380171-273112.jpg,1.0,,,,AMPR904VJJFZY
1163,78,,1.0,58.0,2901952513-70703.jpg,2864907361-287062.jpg,1.0,,,,AMPR904VJJFZY
1164,79,,1.0,59.0,2458347385-199723.jpg,2427874554-121863.jpg,2.0,,,,AMPR904VJJFZY
1165,80,,1.0,60.0,2238480677-317399.jpg,2238573546-258454.jpg,2.0,,,,AMPR904VJJFZY
1166,81,,1.0,61.0,2964222378-71332.jpg,2901933382-367209.jpg,2.0,,,,AMPR904VJJFZY
1167,82,,1.0,62.0,2986451363-73598.jpg,2984628361-295995.jpg,2.0,,,,AMPR904VJJFZY
1168,83,,1.0,63.0,2868475410-213219.jpg,2901946465-218350.jpg,1.0,,,,AMPR904VJJFZY
1169,84,,1.0,64.0,2874307433-66280.jpg,2981246400-220365.jpg,2.0,,,,AMPR904VJJFZY
1170,20,,1.0,0.0,2512875899-126682.jpg,2460547536-274179.jpg,1.0,,,,A2PD1J75MLX61W
1171,21,,1.0,1.0,2964213381-294060.jpg,2458348012-349114.jpg,2.0,,,,A2PD1J75MLX61W
1172,22,,1.0,2.0,2452381505-199546.jpg,2898632385-217138.jpg,2.0,,,,A2PD1J75MLX61W
1173,23,,1.0,3.0,2874299429-139694.jpg,2883266367-365742.jpg,3.0,,,,A2PD1J75MLX61W
1174,24,,1.0,4.0,2460547467-349422.jpg,2868487415-213924.jpg,2.0,,,,A2PD1J75MLX61W
1175,25,,1.0,5.0,2986451363-73599.jpg,2898626385-216899.jpg,1.0,,,,A2PD1J75MLX61W
1176,26,,1.0,6.0,2449442529-124445.jpg,2986408373-73286.jpg,2.0,,,,A2PD1J75MLX61W
1177,27,,1.0,7.0,2874303365-214262.jpg,2238563377-332054.jpg,2.0,,,,A2PD1J75MLX61W
1178,28,left,1.0,8.0,left.jpg,,,left,1.275,,A2PD1J75MLX61W
1179,29,,1.0,9.0,2238481198-19822.jpg,2901946436-293242.jpg,2.0,,,,A2PD1J75MLX61W
1180,30,,1.0,10.0,2449442529-124446.jpg,2460547536-274181.jpg,2.0,,,,A2PD1J75MLX61W
1181,31,,1.0,11.0,2874299429-139695.jpg,2901942443-69923.jpg,2.0,,,,A2PD1J75MLX61W
1182,32,,1.0,12.0,2238580740-186218.jpg,2964220333-71258.jpg,3.0,,,,A2PD1J75MLX61W
1183,33,,1.0,13.0,2238425482-313537.jpg,2238471391-240918.jpg,1.0,,,,A2PD1J75MLX61W
1184,34,,1.0,14.0,2901947423-70311.jpg,2860312398-62572.jpg,1.0,,,,A2PD1J75MLX61W
1185,35,,1.0,15.0,2898618444-142233.jpg,2898631359-142721.jpg,1.0,,,,A2PD1J75MLX61W
1186,36,left,1.0,16.0,left.jpg,,,left,1.229,,A2PD1J75MLX61W
1187,37,,1.0,17.0,2446759803-49249.jpg,2901951392-368654.jpg,3.0,,,,A2PD1J75MLX61W
1188,38,,1.0,18.0,2964223381-294447.jpg,2427874231-269884.jpg,1.0,,,,A2PD1J75MLX61W
1189,39,,1.0,19.0,2592379964-131054.jpg,2238479053-19457.jpg,2.0,,,,A2PD1J75MLX61W
1190,40,,1.0,20.0,2592380177-354629.jpg,2579432534-130704.jpg,2.0,,,,A2PD1J75MLX61W
1191,41,,1.0,21.0,2868474407-362883.jpg,2460547732-349518.jpg,1.0,,,,A2PD1J75MLX61W
1192,42,,1.0,22.0,2864910426-287204.jpg,2864902304-137862.jpg,1.0,,,,A2PD1J75MLX61W
1193,43,,1.0,23.0,2901939379-143480.jpg,2981229442-369621.jpg,2.0,,,,A2PD1J75MLX61W
1194,44,,1.0,24.0,2883268471-290842.jpg,2883268471-290843.jpg,1.0,,,,A2PD1J75MLX61W
1195,45,,1.0,25.0,2238560245-182099.jpg,2592380255-205553.jpg,1.0,,,,A2PD1J75MLX61W
1196,46,,1.0,26.0,2458347385-199723.jpg,2238480434-93829.jpg,1.0,,,,A2PD1J75MLX61W
1197,47,,1.0,27.0,2981241414-145842.jpg,2427873848-47312.jpg,3.0,,,,A2PD1J75MLX61W
1198,48,,1.0,28.0,2874301407-363895.jpg,2901947323-70275.jpg,3.0,,,,A2PD1J75MLX61W
1199,49,,1.0,29.0,2901939379-143479.jpg,2446758985-197610.jpg,2.0,,,,A2PD1J75MLX61W
1200,50,,1.0,30.0,2964216465-219242.jpg,2898619327-366362.jpg,3.0,,,,A2PD1J75MLX61W
1201,51,left,1.0,31.0,left.jpg,,,left,1.06,,A2PD1J75MLX61W
1202,52,,1.0,32.0,2460547508-51571.jpg,2452380166-273109.jpg,1.0,,,,A2PD1J75MLX61W
1203,53,,1.0,33.0,2874307433-66280.jpg,2981231422-369714.jpg,3.0,,,,A2PD1J75MLX61W
1204,54,,1.0,34.0,2238481928-19949.jpg,2981241419-145844.jpg,3.0,,,,A2PD1J75MLX61W
1205,55,,1.0,35.0,2238572663-35822.jpg,2238584894-113161.jpg,1.0,,,,A2PD1J75MLX61W
1206,56,,1.0,36.0,2964218374-144967.jpg,2981231446-294732.jpg,3.0,,,,A2PD1J75MLX61W
1207,57,,1.0,37.0,2901941401-292798.jpg,2898631468-68931.jpg,3.0,,,,A2PD1J75MLX61W
1208,58,,1.0,38.0,2452380832-348593.jpg,2238328478-11678.jpg,1.0,,,,A2PD1J75MLX61W
1209,59,,1.0,39.0,2898635427-367120.jpg,2964221435-219434.jpg,1.0,,,,A2PD1J75MLX61W
1210,60,,1.0,40.0,2964222378-71332.jpg,2981240427-370099.jpg,3.0,,,,A2PD1J75MLX61W
1211,61,,1.0,41.0,2446758985-197609.jpg,2898624426-291544.jpg,3.0,,,,A2PD1J75MLX61W
1212,62,right,1.0,42.0,right.jpg,,,right,1.129,,A2PD1J75MLX61W
1213,63,,1.0,43.0,2864907432-362042.jpg,2989726338-74002.jpg,3.0,,,,A2PD1J75MLX61W
1214,64,,1.0,44.0,2981231403-71642.jpg,2579432519-130698.jpg,1.0,,,,A2PD1J75MLX61W
1215,65,,1.0,45.0,2874302418-65979.jpg,2237857458-1325.jpg,1.0,,,,A2PD1J75MLX61W
1216,66,,1.0,46.0,2898617468-68274.jpg,2901943387-368037.jpg,2.0,,,,A2PD1J75MLX61W
1217,67,,1.0,47.0,2898618390-216538.jpg,2901939327-367670.jpg,2.0,,,,A2PD1J75MLX61W
1218,68,,1.0,48.0,2901952513-70703.jpg,2238481198-19821.jpg,3.0,,,,A2PD1J75MLX61W
1219,69,right,1.0,49.0,right.jpg,,,right,1.08,,A2PD1J75MLX61W
1220,70,,1.0,50.0,2460547467-349421.jpg,2452380166-273110.jpg,2.0,,,,A2PD1J75MLX61W
1221,71,,1.0,51.0,2868475410-213219.jpg,2868474407-362885.jpg,3.0,,,,A2PD1J75MLX61W
1222,72,,1.0,52.0,2238428357-313623.jpg,2238499057-320266.jpg,1.0,,,,A2PD1J75MLX61W
1223,73,,1.0,53.0,2883268412-365898.jpg,2238436252-314037.jpg,3.0,,,,A2PD1J75MLX61W
1224,74,,1.0,54.0,2592380177-354626.jpg,2238117096-228518.jpg,3.0,,,,A2PD1J75MLX61W
1225,75,,1.0,55.0,2883273443-68193.jpg,2460547508-51572.jpg,2.0,,,,A2PD1J75MLX61W
1226,76,,1.0,56.0,2986451363-73598.jpg,2984628361-295995.jpg,2.0,,,,A2PD1J75MLX61W
1227,77,,1.0,57.0,2874302418-65978.jpg,2238481198-19823.jpg,2.0,,,,A2PD1J75MLX61W
1228,78,,1.0,58.0,2575120738-55529.jpg,2238531493-28260.jpg,3.0,,,,A2PD1J75MLX61W
1229,79,,1.0,59.0,2898624426-291546.jpg,2964218432-369263.jpg,1.0,,,,A2PD1J75MLX61W
1230,80,,1.0,60.0,2898633421-291973.jpg,2575118671-277663.jpg,2.0,,,,A2PD1J75MLX61W
1231,81,,1.0,61.0,2898635428-69104.jpg,2898625336-291572.jpg,3.0,,,,A2PD1J75MLX61W
1232,82,,1.0,62.0,2883256307-365057.jpg,2864904453-63933.jpg,3.0,,,,A2PD1J75MLX61W
1233,83,,1.0,63.0,2898634397-367080.jpg,2901934408-69289.jpg,2.0,,,,A2PD1J75MLX61W
1234,84,,1.0,64.0,2238480677-317399.jpg,2238481630-168218.jpg,1.0,,,,A2PD1J75MLX61W
1235,20,,1.0,0.0,2864907432-362042.jpg,2989726338-74002.jpg,3.0,,,,A12NDIK7C4TFPC
1236,21,,1.0,1.0,2874302418-65979.jpg,2238578544-111698.jpg,3.0,,,,A12NDIK7C4TFPC
1237,22,,1.0,2.0,2238560245-182099.jpg,2874314526-289684.jpg,2.0,,,,A12NDIK7C4TFPC
1238,23,,1.0,3.0,2898633421-291973.jpg,2238550049-105691.jpg,3.0,,,,A12NDIK7C4TFPC
1239,24,,1.0,4.0,2883256307-365057.jpg,2864904453-63933.jpg,3.0,,,,A12NDIK7C4TFPC
1240,25,,1.0,5.0,2512875899-126682.jpg,2460547536-274179.jpg,1.0,,,,A12NDIK7C4TFPC
1241,26,,1.0,6.0,2452380832-348593.jpg,2238481813-19930.jpg,2.0,,,,A12NDIK7C4TFPC
1242,27,,1.0,7.0,2446758985-197609.jpg,2864909447-362144.jpg,2.0,,,,A12NDIK7C4TFPC
1243,28,,1.0,8.0,2238480677-317399.jpg,2238573546-258454.jpg,2.0,,,,A12NDIK7C4TFPC
