button.numClicks,button.timesOn,button.timesOff,workID,Age,Gender,Hours slept (last night),date,expName,psychopyVersion,OS,frameRate,space_key_responce.keys,space_key_responce.rt,demo_encoding_response.keys,demo_encoding_response.corr,demo_encoding_loop.thisRepN,demo_encoding_loop.thisTrialN,demo_encoding_loop.thisN,demo_encoding_loop.thisIndex,demo_encoding_loop.ran,DemoImage,DemoCorrect,demo_test_response.keys,demo_test_response.corr,demo_test_response.rt,demo_test_loop.thisRepN,demo_test_loop.thisTrialN,demo_test_loop.thisN,demo_test_loop.thisIndex,demo_test_loop.ran,DemoImage1,DemoImage2,DemoCorrectTest,test_encoding_response.keys,test_encoding_response.corr,trials.thisRepN,trials.thisTrialN,trials.thisN,trials.thisIndex,trials.ran,target_image,pair,layer,correct,test_encoding_response.rt,key_resp_end.keys,key_resp_end.rt,test_test_response.keys,test_test_response.corr,test_test_response.rt,trials_2.thisRepN,trials_2.thisTrialN,trials_2.thisN,trials_2.thisIndex,trials_2.ran,image1,image2,key_resp_end_2.keys,key_resp_end_2.rt
1,[1.857400000005967],[1.8575999999940365],ALYR5CI2SM2JC,32,male,8,2022-09-18_08h16.05.906,memory_pilot_most_recent,2022.2.4,Win32,47.97543658,,,,,,,,,,,,,,,,,,,,,,,,,,,,,,,,,,,,,,,,,,,,,,,,
,,,ALYR5CI2SM2JC,32,male,8,2022-09-18_08h16.05.906,memory_pilot_most_recent,2022.2.4,Win32,47.97543658,,,,,,,,,,,,,,,,,,,,,,,,,,,,,,,,,,,,,,,,,,,,,,,,
,,,ALYR5CI2SM2JC,32,male,8,2022-09-18_08h16.05.906,memory_pilot_most_recent,2022.2.4,Win32,47.97543658,space,5.2058,,,,,,,,,,,,,,,,,,,,,,,,,,,,,,,,,,,,,,,,,,,,,,
,,,ALYR5CI2SM2JC,32,male,8,2022-09-18_08h16.05.906,memory_pilot_most_recent,2022.2.4,Win32,47.97543658,,,,,,,,,,,,,,,,,,,,,,,,,,,,,,,,,,,,,,,,,,,,,,,,
,,,ALYR5CI2SM2JC,32,male,8,2022-09-18_08h16.05.906,memory_pilot_most_recent,2022.2.4,Win32,47.97543658,,,,1,0,0,0,0,1,flower1.jpg,,,,,,,,,,,,,,,,,,,,,,,,,,,,,,,,,,,,,,
,,,ALYR5CI2SM2JC,32,male,8,2022-09-18_08h16.05.906,memory_pilot_most_recent,2022.2.4,Win32,47.97543658,,,,1,0,1,1,1,1,flower2.jpg,,,,,,,,,,,,,,,,,,,,,,,,,,,,,,,,,,,,,,
,,,ALYR5CI2SM2JC,32,male,8,2022-09-18_08h16.05.906,memory_pilot_most_recent,2022.2.4,Win32,47.97543658,,,,0,0,2,2,2,1,left.jpg,left,,,,,,,,,,,,,,,,,,,,,,,,,,,,,,,,,,,,,
,,,ALYR5CI2SM2JC,32,male,8,2022-09-18_08h16.05.906,memory_pilot_most_recent,2022.2.4,Win32,47.97543658,,,,1,0,3,3,3,1,flower3.jpg,,,,,,,,,,,,,,,,,,,,,,,,,,,,,,,,,,,,,,
,,,ALYR5CI2SM2JC,32,male,8,2022-09-18_08h16.05.906,memory_pilot_most_recent,2022.2.4,Win32,47.97543658,,,,1,0,4,4,4,1,flower4.jpg,,,,,,,,,,,,,,,,,,,,,,,,,,,,,,,,,,,,,,
,,,ALYR5CI2SM2JC,32,male,8,2022-09-18_08h16.05.906,memory_pilot_most_recent,2022.2.4,Win32,47.97543658,,,,1,0,5,5,5,1,flower5.jpg,,,,,,,,,,,,,,,,,,,,,,,,,,,,,,,,,,,,,,
,,,ALYR5CI2SM2JC,32,male,8,2022-09-18_08h16.05.906,memory_pilot_most_recent,2022.2.4,Win32,47.97543658,,,,1,0,6,6,6,1,flower6.jpg,,,,,,,,,,,,,,,,,,,,,,,,,,,,,,,,,,,,,,
,,,ALYR5CI2SM2JC,32,male,8,2022-09-18_08h16.05.906,memory_pilot_most_recent,2022.2.4,Win32,47.97543658,,,,,,,,,,,,,,,,,,,,,,,,,,,,,,,,,,,,,,,,,,,,,,,,
,,,ALYR5CI2SM2JC,32,male,8,2022-09-18_08h16.05.906,memory_pilot_most_recent,2022.2.4,Win32,47.97543658,,,,,,,,,,,,left,1,3.7733,0,0,0,0,1,flower1.jpg,flower1_pair.jpg,left,,,,,,,,,,,,,,,,,,,,,,,,,,
,,,ALYR5CI2SM2JC,32,male,8,2022-09-18_08h16.05.906,memory_pilot_most_recent,2022.2.4,Win32,47.97543658,,,,,,,,,,,,left,0,1.6959,0,1,1,1,1,flower2_pair.jpg,flower2.jpg,right,,,,,,,,,,,,,,,,,,,,,,,,,,
,,,ALYR5CI2SM2JC,32,male,8,2022-09-18_08h16.05.906,memory_pilot_most_recent,2022.2.4,Win32,47.97543658,,,,,,,,,,,,left,1,1.5094,0,2,2,2,1,flower3.jpg,flower3_pair.jpg,left,,,,,,,,,,,,,,,,,,,,,,,,,,
,,,ALYR5CI2SM2JC,32,male,8,2022-09-18_08h16.05.906,memory_pilot_most_recent,2022.2.4,Win32,47.97543658,,,,,,,,,,,,right,0,2.4633,0,3,3,3,1,flower4.jpg,flower4_pair.jpg,left,,,,,,,,,,,,,,,,,,,,,,,,,,
,,,ALYR5CI2SM2JC,32,male,8,2022-09-18_08h16.05.906,memory_pilot_most_recent,2022.2.4,Win32,47.97543658,,,,,,,,,,,,right,1,1.1957,0,4,4,4,1,flower5_pair.jpg,flower5.jpg,right,,,,,,,,,,,,,,,,,,,,,,,,,,
,,,ALYR5CI2SM2JC,32,male,8,2022-09-18_08h16.05.906,memory_pilot_most_recent,2022.2.4,Win32,47.97543658,,,,,,,,,,,,left,1,1.1553,0,5,5,5,1,flower6.jpg,flower6_pair.jpg,left,,,,,,,,,,,,,,,,,,,,,,,,,,
,,,ALYR5CI2SM2JC,32,male,8,2022-09-18_08h16.05.906,memory_pilot_most_recent,2022.2.4,Win32,47.97543658,,,,,,,,,,,,,,,,,,,,,,,,,,,,,,,,,,,,,,,,,,,,,,,,
,,,ALYR5CI2SM2JC,32,male,8,2022-09-18_08h16.05.906,memory_pilot_most_recent,2022.2.4,Win32,47.97543658,space,1.4819,,,,,,,,,,,,,,,,,,,,,,,,,,,,,,,,,,,,,,,,,,,,,,
,,,ALYR5CI2SM2JC,32,male,8,2022-09-18_08h16.05.906,memory_pilot_most_recent,2022.2.4,Win32,47.97543658,,,,,,,,,,,,,,,,,,,,,,,,1,0,0,0,0,1,2874302418-65979.jpg,2238480648-19714.jpg,2,,,,,,,,,,,,,,,,
,,,ALYR5CI2SM2JC,32,male,8,2022-09-18_08h16.05.906,memory_pilot_most_recent,2022.2.4,Win32,47.97543658,,,,,,,,,,,,,,,,,,,,,,,,1,0,1,1,1,1,2883268412-365898.jpg,2238436252-314037.jpg,3,,,,,,,,,,,,,,,,
,,,ALYR5CI2SM2JC,32,male,8,2022-09-18_08h16.05.906,memory_pilot_most_recent,2022.2.4,Win32,47.97543658,,,,,,,,,,,,,,,,,,,,,,,,1,0,2,2,2,1,2898635428-69104.jpg,2446759803-49250.jpg,1,,,,,,,,,,,,,,,,
,,,ALYR5CI2SM2JC,32,male,8,2022-09-18_08h16.05.906,memory_pilot_most_recent,2022.2.4,Win32,47.97543658,,,,,,,,,,,,,,,,,,,,,,,,1,0,3,3,3,1,2238481928-19949.jpg,2981241419-145844.jpg,3,,,,,,,,,,,,,,,,
,,,ALYR5CI2SM2JC,32,male,8,2022-09-18_08h16.05.906,memory_pilot_most_recent,2022.2.4,Win32,47.97543658,,,,,,,,,,,,,,,,,,,,,,,,1,0,4,4,4,1,2238572663-35822.jpg,2238584894-113161.jpg,1,,,,,,,,,,,,,,,,
,,,ALYR5CI2SM2JC,32,male,8,2022-09-18_08h16.05.906,memory_pilot_most_recent,2022.2.4,Win32,47.97543658,,,,,,,,,,,,,,,,,,,,,,,,1,0,5,5,5,1,2874303365-214262.jpg,2864911457-362260.jpg,3,,,,,,,,,,,,,,,,
,,,ALYR5CI2SM2JC,32,male,8,2022-09-18_08h16.05.906,memory_pilot_most_recent,2022.2.4,Win32,47.97543658,,,,,,,,,,,,,,,,,,,,,,,,1,0,6,6,6,1,2964218374-144967.jpg,2964218374-144968.jpg,1,,,,,,,,,,,,,,,,
,,,ALYR5CI2SM2JC,32,male,8,2022-09-18_08h16.05.906,memory_pilot_most_recent,2022.2.4,Win32,47.97543658,,,,,,,,,,,,,,,,,,,,,,,left,1,0,7,7,7,1,left.jpg,,,left,0.6082,,,,,,,,,,,,,,
,,,ALYR5CI2SM2JC,32,male,8,2022-09-18_08h16.05.906,memory_pilot_most_recent,2022.2.4,Win32,47.97543658,,,,,,,,,,,,,,,,,,,,,,,,1,0,8,8,8,1,2898618444-142233.jpg,2238555262-330312.jpg,2,,,,,,,,,,,,,,,,
,,,ALYR5CI2SM2JC,32,male,8,2022-09-18_08h16.05.906,memory_pilot_most_recent,2022.2.4,Win32,47.97543658,,,,,,,,,,,,,,,,,,,,,,,,1,0,9,9,9,1,2898633421-291973.jpg,2512876023-52283.jpg,1,,,,,,,,,,,,,,,,
,,,ALYR5CI2SM2JC,32,male,8,2022-09-18_08h16.05.906,memory_pilot_most_recent,2022.2.4,Win32,47.97543658,,,,,,,,,,,,,,,,,,,,,,,,1,0,10,10,10,1,2874302418-65978.jpg,2238481198-19823.jpg,2,,,,,,,,,,,,,,,,
,,,ALYR5CI2SM2JC,32,male,8,2022-09-18_08h16.05.906,memory_pilot_most_recent,2022.2.4,Win32,47.97543658,,,,,,,,,,,,,,,,,,,,,,,,1,0,11,11,11,1,2452381505-199546.jpg,2994401319-148290.jpg,3,,,,,,,,,,,,,,,,
,,,ALYR5CI2SM2JC,32,male,8,2022-09-18_08h16.05.906,memory_pilot_most_recent,2022.2.4,Win32,47.97543658,,,,,,,,,,,,,,,,,,,,,,,,1,0,12,12,12,1,2452380832-348593.jpg,2238481813-19930.jpg,2,,,,,,,,,,,,,,,,
,,,ALYR5CI2SM2JC,32,male,8,2022-09-18_08h16.05.906,memory_pilot_most_recent,2022.2.4,Win32,47.97543658,,,,,,,,,,,,,,,,,,,,,,,,1,0,13,13,13,1,2981231403-71642.jpg,2579432519-130698.jpg,1,,,,,,,,,,,,,,,,
,,,ALYR5CI2SM2JC,32,male,8,2022-09-18_08h16.05.906,memory_pilot_most_recent,2022.2.4,Win32,47.97543658,,,,,,,,,,,,,,,,,,,,,,,,1,0,14,14,14,1,2460547467-349421.jpg,2898631394-142727.jpg,1,,,,,,,,,,,,,,,,
,,,ALYR5CI2SM2JC,32,male,8,2022-09-18_08h16.05.906,memory_pilot_most_recent,2022.2.4,Win32,47.97543658,,,,,,,,,,,,,,,,,,,,,,,,1,0,15,15,15,1,2874299429-139695.jpg,2883266388-67750.jpg,1,,,,,,,,,,,,,,,,
,,,ALYR5CI2SM2JC,32,male,8,2022-09-18_08h16.05.906,memory_pilot_most_recent,2022.2.4,Win32,47.97543658,,,,,,,,,,,,,,,,,,,,,,,,1,0,16,16,16,1,2901939379-143480.jpg,2898632385-217139.jpg,3,,,,,,,,,,,,,,,,
,,,ALYR5CI2SM2JC,32,male,8,2022-09-18_08h16.05.906,memory_pilot_most_recent,2022.2.4,Win32,47.97543658,,,,,,,,,,,,,,,,,,,,,,,right,1,0,17,17,17,1,right.jpg,,,right,0.5131,,,,,,,,,,,,,,
,,,ALYR5CI2SM2JC,32,male,8,2022-09-18_08h16.05.906,memory_pilot_most_recent,2022.2.4,Win32,47.97543658,,,,,,,,,,,,,,,,,,,,,,,,1,0,18,18,18,1,2460547467-349422.jpg,2898618440-216545.jpg,1,,,,,,,,,,,,,,,,
,,,ALYR5CI2SM2JC,32,male,8,2022-09-18_08h16.05.906,memory_pilot_most_recent,2022.2.4,Win32,47.97543658,,,,,,,,,,,,,,,,,,,,,,,,1,0,19,19,19,1,2986451363-73598.jpg,2237857458-1324.jpg,1,,,,,,,,,,,,,,,,
,,,ALYR5CI2SM2JC,32,male,8,2022-09-18_08h16.05.906,memory_pilot_most_recent,2022.2.4,Win32,47.97543658,,,,,,,,,,,,,,,,,,,,,,,,1,0,20,20,20,1,2981241414-145842.jpg,2238516618-25604.jpg,1,,,,,,,,,,,,,,,,
,,,ALYR5CI2SM2JC,32,male,8,2022-09-18_08h16.05.906,memory_pilot_most_recent,2022.2.4,Win32,47.97543658,,,,,,,,,,,,,,,,,,,,,,,,1,0,21,21,21,1,2512875899-126682.jpg,2460547536-274179.jpg,1,,,,,,,,,,,,,,,,
,,,ALYR5CI2SM2JC,32,male,8,2022-09-18_08h16.05.906,memory_pilot_most_recent,2022.2.4,Win32,47.97543658,,,,,,,,,,,,,,,,,,,,,,,,1,0,22,22,22,1,2868474407-362883.jpg,2981246400-220363.jpg,2,,,,,,,,,,,,,,,,
,,,ALYR5CI2SM2JC,32,male,8,2022-09-18_08h16.05.906,memory_pilot_most_recent,2022.2.4,Win32,47.97543658,,,,,,,,,,,,,,,,,,,,,,,,1,0,23,23,23,1,2458347385-199723.jpg,2427874554-121863.jpg,2,,,,,,,,,,,,,,,,
,,,ALYR5CI2SM2JC,32,male,8,2022-09-18_08h16.05.906,memory_pilot_most_recent,2022.2.4,Win32,47.97543658,,,,,,,,,,,,,,,,,,,,,,,,1,0,24,24,24,1,2864910426-287204.jpg,2883268412-365899.jpg,2,,,,,,,,,,,,,,,,
,,,ALYR5CI2SM2JC,32,male,8,2022-09-18_08h16.05.906,memory_pilot_most_recent,2022.2.4,Win32,47.97543658,,,,,,,,,,,,,,,,,,,,,,,,1,0,25,25,25,1,2901952513-70703.jpg,2238481198-19821.jpg,3,,,,,,,,,,,,,,,,
,,,ALYR5CI2SM2JC,32,male,8,2022-09-18_08h16.05.906,memory_pilot_most_recent,2022.2.4,Win32,47.97543658,,,,,,,,,,,,,,,,,,,,,,,right,1,0,26,26,26,1,right.jpg,,,right,0.5018,,,,,,,,,,,,,,
,,,ALYR5CI2SM2JC,32,male,8,2022-09-18_08h16.05.906,memory_pilot_most_recent,2022.2.4,Win32,47.97543658,,,,,,,,,,,,,,,,,,,,,,,,1,0,27,27,27,1,2883256307-365057.jpg,2864904453-63933.jpg,3,,,,,,,,,,,,,,,,
,,,ALYR5CI2SM2JC,32,male,8,2022-09-18_08h16.05.906,memory_pilot_most_recent,2022.2.4,Win32,47.97543658,,,,,,,,,,,,,,,,,,,,,,,,1,0,28,28,28,1,2898634397-367080.jpg,2237944827-301472.jpg,1,,,,,,,,,,,,,,,,
,,,ALYR5CI2SM2JC,32,male,8,2022-09-18_08h16.05.906,memory_pilot_most_recent,2022.2.4,Win32,47.97543658,,,,,,,,,,,,,,,,,,,,,,,,1,0,29,29,29,1,2883268471-290842.jpg,2883255450-215310.jpg,2,,,,,,,,,,,,,,,,
,,,ALYR5CI2SM2JC,32,male,8,2022-09-18_08h16.05.906,memory_pilot_most_recent,2022.2.4,Win32,47.97543658,,,,,,,,,,,,,,,,,,,,,,,,1,0,30,30,30,1,2446759803-49249.jpg,2901951392-368654.jpg,3,,,,,,,,,,,,,,,,
,,,ALYR5CI2SM2JC,32,male,8,2022-09-18_08h16.05.906,memory_pilot_most_recent,2022.2.4,Win32,47.97543658,,,,,,,,,,,,,,,,,,,,,,,,1,0,31,31,31,1,2964223381-294447.jpg,2901941438-69836.jpg,2,,,,,,,,,,,,,,,,
,,,ALYR5CI2SM2JC,32,male,8,2022-09-18_08h16.05.906,memory_pilot_most_recent,2022.2.4,Win32,47.97543658,,,,,,,,,,,,,,,,,,,,,,,,1,0,32,32,32,1,2238425482-313537.jpg,2898633480-217190.jpg,3,,,,,,,,,,,,,,,,
,,,ALYR5CI2SM2JC,32,male,8,2022-09-18_08h16.05.906,memory_pilot_most_recent,2022.2.4,Win32,47.97543658,,,,,,,,,,,,,,,,,,,,,,,,1,0,33,33,33,1,2460547508-51571.jpg,2901941438-69835.jpg,3,,,,,,,,,,,,,,,,
,,,ALYR5CI2SM2JC,32,male,8,2022-09-18_08h16.05.906,memory_pilot_most_recent,2022.2.4,Win32,47.97543658,,,,,,,,,,,,,,,,,,,,,,,,1,0,34,34,34,1,2449442529-124445.jpg,2452380171-273112.jpg,1,,,,,,,,,,,,,,,,
,,,ALYR5CI2SM2JC,32,male,8,2022-09-18_08h16.05.906,memory_pilot_most_recent,2022.2.4,Win32,47.97543658,,,,,,,,,,,,,,,,,,,,,,,,1,0,35,35,35,1,2883273443-68193.jpg,2460547508-51572.jpg,2,,,,,,,,,,,,,,,,
,,,ALYR5CI2SM2JC,32,male,8,2022-09-18_08h16.05.906,memory_pilot_most_recent,2022.2.4,Win32,47.97543658,,,,,,,,,,,,,,,,,,,,,,,,1,0,36,36,36,1,2238481198-19822.jpg,2862691449-137104.jpg,1,,,,,,,,,,,,,,,,
,,,ALYR5CI2SM2JC,32,male,8,2022-09-18_08h16.05.906,memory_pilot_most_recent,2022.2.4,Win32,47.97543658,,,,,,,,,,,,,,,,,,,,,,,,1,0,37,37,37,1,2238560245-182099.jpg,2874314526-289684.jpg,2,,,,,,,,,,,,,,,,
,,,ALYR5CI2SM2JC,32,male,8,2022-09-18_08h16.05.906,memory_pilot_most_recent,2022.2.4,Win32,47.97543658,,,,,,,,,,,,,,,,,,,,,,,,1,0,38,38,38,1,2238480677-317399.jpg,2238481630-168218.jpg,1,,,,,,,,,,,,,,,,
,,,ALYR5CI2SM2JC,32,male,8,2022-09-18_08h16.05.906,memory_pilot_most_recent,2022.2.4,Win32,47.97543658,,,,,,,,,,,,,,,,,,,,,,,,1,0,39,39,39,1,2964222378-71332.jpg,2981240424-145794.jpg,1,,,,,,,,,,,,,,,,
,,,ALYR5CI2SM2JC,32,male,8,2022-09-18_08h16.05.906,memory_pilot_most_recent,2022.2.4,Win32,47.97543658,,,,,,,,,,,,,,,,,,,,,,,,1,0,40,40,40,1,2986451363-73599.jpg,2860302315-210704.jpg,2,,,,,,,,,,,,,,,,
,,,ALYR5CI2SM2JC,32,male,8,2022-09-18_08h16.05.906,memory_pilot_most_recent,2022.2.4,Win32,47.97543658,,,,,,,,,,,,,,,,,,,,,,,,1,0,41,41,41,1,2874301407-363895.jpg,2901947323-70275.jpg,3,,,,,,,,,,,,,,,,
,,,ALYR5CI2SM2JC,32,male,8,2022-09-18_08h16.05.906,memory_pilot_most_recent,2022.2.4,Win32,47.97543658,,,,,,,,,,,,,,,,,,,,,,,,1,0,42,42,42,1,2575120738-55529.jpg,2238531493-28260.jpg,3,,,,,,,,,,,,,,,,
,,,ALYR5CI2SM2JC,32,male,8,2022-09-18_08h16.05.906,memory_pilot_most_recent,2022.2.4,Win32,47.97543658,,,,,,,,,,,,,,,,,,,,,,,right,1,0,43,43,43,1,right.jpg,,,right,0.4104,,,,,,,,,,,,,,
,,,ALYR5CI2SM2JC,32,male,8,2022-09-18_08h16.05.906,memory_pilot_most_recent,2022.2.4,Win32,47.97543658,,,,,,,,,,,,,,,,,,,,,,,,1,0,44,44,44,1,2898624426-291546.jpg,2981236443-71859.jpg,2,,,,,,,,,,,,,,,,
,,,ALYR5CI2SM2JC,32,male,8,2022-09-18_08h16.05.906,memory_pilot_most_recent,2022.2.4,Win32,47.97543658,,,,,,,,,,,,,,,,,,,,,,,,1,0,45,45,45,1,2592380177-354626.jpg,2864901386-286797.jpg,2,,,,,,,,,,,,,,,,
,,,ALYR5CI2SM2JC,32,male,8,2022-09-18_08h16.05.906,memory_pilot_most_recent,2022.2.4,Win32,47.97543658,,,,,,,,,,,,,,,,,,,,,,,,1,0,46,46,46,1,2901947423-70311.jpg,2238573447-333826.jpg,2,,,,,,,,,,,,,,,,
,,,ALYR5CI2SM2JC,32,male,8,2022-09-18_08h16.05.906,memory_pilot_most_recent,2022.2.4,Win32,47.97543658,,,,,,,,,,,,,,,,,,,,,,,right,1,0,47,47,47,1,right.jpg,,,right,0.4688,,,,,,,,,,,,,,
,,,ALYR5CI2SM2JC,32,male,8,2022-09-18_08h16.05.906,memory_pilot_most_recent,2022.2.4,Win32,47.97543658,,,,,,,,,,,,,,,,,,,,,,,,1,0,48,48,48,1,2901939379-143479.jpg,2446758985-197610.jpg,2,,,,,,,,,,,,,,,,
,,,ALYR5CI2SM2JC,32,male,8,2022-09-18_08h16.05.906,memory_pilot_most_recent,2022.2.4,Win32,47.97543658,,,,,,,,,,,,,,,,,,,,,,,,1,0,49,49,49,1,2964213381-294060.jpg,2964213381-294061.jpg,3,,,,,,,,,,,,,,,,
,,,ALYR5CI2SM2JC,32,male,8,2022-09-18_08h16.05.906,memory_pilot_most_recent,2022.2.4,Win32,47.97543658,,,,,,,,,,,,,,,,,,,,,,,,1,0,50,50,50,1,2592379964-131054.jpg,2592380272-354673.jpg,3,,,,,,,,,,,,,,,,
,,,ALYR5CI2SM2JC,32,male,8,2022-09-18_08h16.05.906,memory_pilot_most_recent,2022.2.4,Win32,47.97543658,,,,,,,,,,,,,,,,,,,,,,,,1,0,51,51,51,1,2592380177-354629.jpg,2512875587-350044.jpg,3,,,,,,,,,,,,,,,,
,,,ALYR5CI2SM2JC,32,male,8,2022-09-18_08h16.05.906,memory_pilot_most_recent,2022.2.4,Win32,47.97543658,,,,,,,,,,,,,,,,,,,,,,,,1,0,52,52,52,1,2874299429-139694.jpg,2986447306-296584.jpg,1,,,,,,,,,,,,,,,,
,,,ALYR5CI2SM2JC,32,male,8,2022-09-18_08h16.05.906,memory_pilot_most_recent,2022.2.4,Win32,47.97543658,,,,,,,,,,,,,,,,,,,,,,,,1,0,53,53,53,1,2898618390-216538.jpg,2237856148-989.jpg,1,,,,,,,,,,,,,,,,
,,,ALYR5CI2SM2JC,32,male,8,2022-09-18_08h16.05.906,memory_pilot_most_recent,2022.2.4,Win32,47.97543658,,,,,,,,,,,,,,,,,,,,,,,,1,0,54,54,54,1,2868475410-213219.jpg,2238480803-19739.jpg,2,,,,,,,,,,,,,,,,
,,,ALYR5CI2SM2JC,32,male,8,2022-09-18_08h16.05.906,memory_pilot_most_recent,2022.2.4,Win32,47.97543658,,,,,,,,,,,,,,,,,,,,,,,,1,0,55,55,55,1,2864907432-362042.jpg,2864901420-212147.jpg,1,,,,,,,,,,,,,,,,
,,,ALYR5CI2SM2JC,32,male,8,2022-09-18_08h16.05.906,memory_pilot_most_recent,2022.2.4,Win32,47.97543658,,,,,,,,,,,,,,,,,,,,,,,,1,0,56,56,56,1,2449442529-124446.jpg,2460547536-274178.jpg,3,,,,,,,,,,,,,,,,
,,,ALYR5CI2SM2JC,32,male,8,2022-09-18_08h16.05.906,memory_pilot_most_recent,2022.2.4,Win32,47.97543658,,,,,,,,,,,,,,,,,,,,,,,,1,0,57,57,57,1,2238580740-186218.jpg,2964220333-71258.jpg,3,,,,,,,,,,,,,,,,
,,,ALYR5CI2SM2JC,32,male,8,2022-09-18_08h16.05.906,memory_pilot_most_recent,2022.2.4,Win32,47.97543658,,,,,,,,,,,,,,,,,,,,,,,,1,0,58,58,58,1,2898635427-367120.jpg,2898621427-366486.jpg,3,,,,,,,,,,,,,,,,
,,,ALYR5CI2SM2JC,32,male,8,2022-09-18_08h16.05.906,memory_pilot_most_recent,2022.2.4,Win32,47.97543658,,,,,,,,,,,,,,,,,,,,,,,,1,0,59,59,59,1,2874307433-66280.jpg,2981246400-220365.jpg,2,,,,,,,,,,,,,,,,
,,,ALYR5CI2SM2JC,32,male,8,2022-09-18_08h16.05.906,memory_pilot_most_recent,2022.2.4,Win32,47.97543658,,,,,,,,,,,,,,,,,,,,,,,,1,0,60,60,60,1,2898617468-68274.jpg,2901943387-368037.jpg,2,,,,,,,,,,,,,,,,
,,,ALYR5CI2SM2JC,32,male,8,2022-09-18_08h16.05.906,memory_pilot_most_recent,2022.2.4,Win32,47.97543658,,,,,,,,,,,,,,,,,,,,,,,,1,0,61,61,61,1,2446758985-197609.jpg,2898624426-291544.jpg,3,,,,,,,,,,,,,,,,
,,,ALYR5CI2SM2JC,32,male,8,2022-09-18_08h16.05.906,memory_pilot_most_recent,2022.2.4,Win32,47.97543658,,,,,,,,,,,,,,,,,,,,,,,,1,0,62,62,62,1,2901941401-292798.jpg,2898631468-68931.jpg,3,,,,,,,,,,,,,,,,
,,,ALYR5CI2SM2JC,32,male,8,2022-09-18_08h16.05.906,memory_pilot_most_recent,2022.2.4,Win32,47.97543658,,,,,,,,,,,,,,,,,,,,,,,,1,0,63,63,63,1,2964216465-219242.jpg,2864900319-137787.jpg,2,,,,,,,,,,,,,,,,
,,,ALYR5CI2SM2JC,32,male,8,2022-09-18_08h16.05.906,memory_pilot_most_recent,2022.2.4,Win32,47.97543658,,,,,,,,,,,,,,,,,,,,,,,,1,0,64,64,64,1,2238428357-313623.jpg,2238499057-320266.jpg,1,,,,,,,,,,,,,,,,
,,,ALYR5CI2SM2JC,32,male,8,2022-09-18_08h16.05.906,memory_pilot_most_recent,2022.2.4,Win32,47.97543658,,,,,,,,,,,,,,,,,,,,,,,,,,,,,,,,,,,space,1.8257,,,,,,,,,,,,
,,,ALYR5CI2SM2JC,32,male,8,2022-09-18_08h16.05.906,memory_pilot_most_recent,2022.2.4,Win32,47.97543658,,,,,,,,,,,,,,,,,,,,,,,,,,,,,,,,,,,,,,,,,,,,,,,,
,,,ALYR5CI2SM2JC,32,male,8,2022-09-18_08h16.05.906,memory_pilot_most_recent,2022.2.4,Win32,47.97543658,,,,,,,,,,,,,,,,,,,,,,,,,,,,,,,,2,right,,,,right,1,1.7432,0,0,0,0,1,2446758985-197610.jpg,2901939379-143479.jpg,,
,,,ALYR5CI2SM2JC,32,male,8,2022-09-18_08h16.05.906,memory_pilot_most_recent,2022.2.4,Win32,47.97543658,,,,,,,,,,,,,,,,,,,,,,,,,,,,,,,,3,left,,,,left,1,1.7452,0,1,1,1,1,2901941401-292798.jpg,2898631468-68931.jpg,,
,,,ALYR5CI2SM2JC,32,male,8,2022-09-18_08h16.05.906,memory_pilot_most_recent,2022.2.4,Win32,47.97543658,,,,,,,,,,,,,,,,,,,,,,,,,,,,,,,,3,right,,,,right,1,2.6389,0,2,2,2,1,2238481198-19821.jpg,2901952513-70703.jpg,,
,,,ALYR5CI2SM2JC,32,male,8,2022-09-18_08h16.05.906,memory_pilot_most_recent,2022.2.4,Win32,47.97543658,,,,,,,,,,,,,,,,,,,,,,,,,,,,,,,,3,left,,,,right,0,1.5243,0,3,3,3,1,2592380177-354629.jpg,2512875587-350044.jpg,,
,,,ALYR5CI2SM2JC,32,male,8,2022-09-18_08h16.05.906,memory_pilot_most_recent,2022.2.4,Win32,47.97543658,,,,,,,,,,,,,,,,,,,,,,,,,,,,,,,,3,left,,,,right,0,1.4725,0,4,4,4,1,2449442529-124446.jpg,2460547536-274178.jpg,,
,,,ALYR5CI2SM2JC,32,male,8,2022-09-18_08h16.05.906,memory_pilot_most_recent,2022.2.4,Win32,47.97543658,,,,,,,,,,,,,,,,,,,,,,,,,,,,,,,,2,left,,,,right,0,1.5835,0,5,5,5,1,2883268471-290842.jpg,2883255450-215310.jpg,,
,,,ALYR5CI2SM2JC,32,male,8,2022-09-18_08h16.05.906,memory_pilot_most_recent,2022.2.4,Win32,47.97543658,,,,,,,,,,,,,,,,,,,,,,,,,,,,,,,,3,right,,,,left,0,1.3052,0,6,6,6,1,2898633480-217190.jpg,2238425482-313537.jpg,,
,,,ALYR5CI2SM2JC,32,male,8,2022-09-18_08h16.05.906,memory_pilot_most_recent,2022.2.4,Win32,47.97543658,,,,,,,,,,,,,,,,,,,,,,,,,,,,,,,,1,left,,,,right,0,1.9532,0,7,7,7,1,2512875899-126682.jpg,2460547536-274179.jpg,,
,,,ALYR5CI2SM2JC,32,male,8,2022-09-18_08h16.05.906,memory_pilot_most_recent,2022.2.4,Win32,47.97543658,,,,,,,,,,,,,,,,,,,,,,,,,,,,,,,,1,left,,,,right,0,1.0768,0,8,8,8,1,2964222378-71332.jpg,2981240424-145794.jpg,,
,,,ALYR5CI2SM2JC,32,male,8,2022-09-18_08h16.05.906,memory_pilot_most_recent,2022.2.4,Win32,47.97543658,,,,,,,,,,,,,,,,,,,,,,,,,,,,,,,,3,left,,,,left,1,1.5369,0,9,9,9,1,2460547508-51571.jpg,2901941438-69835.jpg,,
,,,ALYR5CI2SM2JC,32,male,8,2022-09-18_08h16.05.906,memory_pilot_most_recent,2022.2.4,Win32,47.97543658,,,,,,,,,,,,,,,,,,,,,,,,,,,,,,,,1,left,,,,left,1,1.9957,0,10,10,10,1,2898633421-291973.jpg,2512876023-52283.jpg,,
,,,ALYR5CI2SM2JC,32,male,8,2022-09-18_08h16.05.906,memory_pilot_most_recent,2022.2.4,Win32,47.97543658,,,,,,,,,,,,,,,,,,,,,,,,,,,,,,,,1,right,,,,right,1,1.322,0,11,11,11,1,2883266388-67750.jpg,2874299429-139695.jpg,,
,,,ALYR5CI2SM2JC,32,male,8,2022-09-18_08h16.05.906,memory_pilot_most_recent,2022.2.4,Win32,47.97543658,,,,,,,,,,,,,,,,,,,,,,,,,,,,,,,,1,left,,,,left,1,1.0828,0,12,12,12,1,2964218374-144967.jpg,2964218374-144968.jpg,,
,,,ALYR5CI2SM2JC,32,male,8,2022-09-18_08h16.05.906,memory_pilot_most_recent,2022.2.4,Win32,47.97543658,,,,,,,,,,,,,,,,,,,,,,,,,,,,,,,,1,left,,,,right,0,1.3054,0,13,13,13,1,2238480677-317399.jpg,2238481630-168218.jpg,,
,,,ALYR5CI2SM2JC,32,male,8,2022-09-18_08h16.05.906,memory_pilot_most_recent,2022.2.4,Win32,47.97543658,,,,,,,,,,,,,,,,,,,,,,,,,,,,,,,,2,right,,,,right,1,1.4587,0,14,14,14,1,2864901386-286797.jpg,2592380177-354626.jpg,,
,,,ALYR5CI2SM2JC,32,male,8,2022-09-18_08h16.05.906,memory_pilot_most_recent,2022.2.4,Win32,47.97543658,,,,,,,,,,,,,,,,,,,,,,,,,,,,,,,,3,right,,,,right,1,2.5085,0,15,15,15,1,2901951392-368654.jpg,2446759803-49249.jpg,,
,,,ALYR5CI2SM2JC,32,male,8,2022-09-18_08h16.05.906,memory_pilot_most_recent,2022.2.4,Win32,47.97543658,,,,,,,,,,,,,,,,,,,,,,,,,,,,,,,,1,right,,,,right,1,1.4073,0,16,16,16,1,2237856148-989.jpg,2898618390-216538.jpg,,
,,,ALYR5CI2SM2JC,32,male,8,2022-09-18_08h16.05.906,memory_pilot_most_recent,2022.2.4,Win32,47.97543658,,,,,,,,,,,,,,,,,,,,,,,,,,,,,,,,3,right,,,,right,1,1.2774,0,17,17,17,1,2864911457-362260.jpg,2874303365-214262.jpg,,
,,,ALYR5CI2SM2JC,32,male,8,2022-09-18_08h16.05.906,memory_pilot_most_recent,2022.2.4,Win32,47.97543658,,,,,,,,,,,,,,,,,,,,,,,,,,,,,,,,3,left,,,,left,1,1.6914,0,18,18,18,1,2446758985-197609.jpg,2898624426-291544.jpg,,
,,,ALYR5CI2SM2JC,32,male,8,2022-09-18_08h16.05.906,memory_pilot_most_recent,2022.2.4,Win32,47.97543658,,,,,,,,,,,,,,,,,,,,,,,,,,,,,,,,3,right,,,,right,1,1.5789,0,19,19,19,1,2238531493-28260.jpg,2575120738-55529.jpg,,
,,,ALYR5CI2SM2JC,32,male,8,2022-09-18_08h16.05.906,memory_pilot_most_recent,2022.2.4,Win32,47.97543658,,,,,,,,,,,,,,,,,,,,,,,,,,,,,,,,2,right,,,,right,1,1.3105,0,20,20,20,1,2238480803-19739.jpg,2868475410-213219.jpg,,
,,,ALYR5CI2SM2JC,32,male,8,2022-09-18_08h16.05.906,memory_pilot_most_recent,2022.2.4,Win32,47.97543658,,,,,,,,,,,,,,,,,,,,,,,,,,,,,,,,3,right,,,,right,1,1.4203,0,21,21,21,1,2901947323-70275.jpg,2874301407-363895.jpg,,
,,,ALYR5CI2SM2JC,32,male,8,2022-09-18_08h16.05.906,memory_pilot_most_recent,2022.2.4,Win32,47.97543658,,,,,,,,,,,,,,,,,,,,,,,,,,,,,,,,3,right,,,,left,0,1.5283,0,22,22,22,1,2964220333-71258.jpg,2238580740-186218.jpg,,
,,,ALYR5CI2SM2JC,32,male,8,2022-09-18_08h16.05.906,memory_pilot_most_recent,2022.2.4,Win32,47.97543658,,,,,,,,,,,,,,,,,,,,,,,,,,,,,,,,1,right,,,,right,1,2.6495,0,23,23,23,1,2898631394-142727.jpg,2460547467-349421.jpg,,
,,,ALYR5CI2SM2JC,32,male,8,2022-09-18_08h16.05.906,memory_pilot_most_recent,2022.2.4,Win32,47.97543658,,,,,,,,,,,,,,,,,,,,,,,,,,,,,,,,1,right,,,,right,1,1.5756,0,24,24,24,1,2237944827-301472.jpg,2898634397-367080.jpg,,
,,,ALYR5CI2SM2JC,32,male,8,2022-09-18_08h16.05.906,memory_pilot_most_recent,2022.2.4,Win32,47.97543658,,,,,,,,,,,,,,,,,,,,,,,,,,,,,,,,1,right,,,,right,1,1.4436,0,25,25,25,1,2986447306-296584.jpg,2874299429-139694.jpg,,
,,,ALYR5CI2SM2JC,32,male,8,2022-09-18_08h16.05.906,memory_pilot_most_recent,2022.2.4,Win32,47.97543658,,,,,,,,,,,,,,,,,,,,,,,,,,,,,,,,1,right,,,,right,1,0.9107,0,26,26,26,1,2238584894-113161.jpg,2238572663-35822.jpg,,
,,,ALYR5CI2SM2JC,32,male,8,2022-09-18_08h16.05.906,memory_pilot_most_recent,2022.2.4,Win32,47.97543658,,,,,,,,,,,,,,,,,,,,,,,,,,,,,,,,1,left,,,,left,1,1.1794,0,27,27,27,1,2238428357-313623.jpg,2238499057-320266.jpg,,
,,,ALYR5CI2SM2JC,32,male,8,2022-09-18_08h16.05.906,memory_pilot_most_recent,2022.2.4,Win32,47.97543658,,,,,,,,,,,,,,,,,,,,,,,,,,,,,,,,2,right,,,,left,0,1.5808,0,28,28,28,1,2238481813-19930.jpg,2452380832-348593.jpg,,
,,,ALYR5CI2SM2JC,32,male,8,2022-09-18_08h16.05.906,memory_pilot_most_recent,2022.2.4,Win32,47.97543658,,,,,,,,,,,,,,,,,,,,,,,,,,,,,,,,2,left,,,,right,0,1.2429,0,29,29,29,1,2986451363-73599.jpg,2860302315-210704.jpg,,
,,,ALYR5CI2SM2JC,32,male,8,2022-09-18_08h16.05.906,memory_pilot_most_recent,2022.2.4,Win32,47.97543658,,,,,,,,,,,,,,,,,,,,,,,,,,,,,,,,2,left,,,,right,0,2.3594,0,30,30,30,1,2964216465-219242.jpg,2864900319-137787.jpg,,
,,,ALYR5CI2SM2JC,32,male,8,2022-09-18_08h16.05.906,memory_pilot_most_recent,2022.2.4,Win32,47.97543658,,,,,,,,,,,,,,,,,,,,,,,,,,,,,,,,3,left,,,,left,1,1.6987,0,31,31,31,1,2964213381-294060.jpg,2964213381-294061.jpg,,
,,,ALYR5CI2SM2JC,32,male,8,2022-09-18_08h16.05.906,memory_pilot_most_recent,2022.2.4,Win32,47.97543658,,,,,,,,,,,,,,,,,,,,,,,,,,,,,,,,3,right,,,,right,1,1.2864,0,32,32,32,1,2994401319-148290.jpg,2452381505-199546.jpg,,
,,,ALYR5CI2SM2JC,32,male,8,2022-09-18_08h16.05.906,memory_pilot_most_recent,2022.2.4,Win32,47.97543658,,,,,,,,,,,,,,,,,,,,,,,,,,,,,,,,2,right,,,,right,1,1.5245,0,33,33,33,1,2883268412-365899.jpg,2864910426-287204.jpg,,
,,,ALYR5CI2SM2JC,32,male,8,2022-09-18_08h16.05.906,memory_pilot_most_recent,2022.2.4,Win32,47.97543658,,,,,,,,,,,,,,,,,,,,,,,,,,,,,,,,1,right,,,,right,1,2.1391,0,34,34,34,1,2237857458-1324.jpg,2986451363-73598.jpg,,
,,,ALYR5CI2SM2JC,32,male,8,2022-09-18_08h16.05.906,memory_pilot_most_recent,2022.2.4,Win32,47.97543658,,,,,,,,,,,,,,,,,,,,,,,,,,,,,,,,2,left,,,,right,0,1.9771,0,35,35,35,1,2883273443-68193.jpg,2460547508-51572.jpg,,
,,,ALYR5CI2SM2JC,32,male,8,2022-09-18_08h16.05.906,memory_pilot_most_recent,2022.2.4,Win32,47.97543658,,,,,,,,,,,,,,,,,,,,,,,,,,,,,,,,1,left,,,,left,1,1.105,0,36,36,36,1,2864907432-362042.jpg,2864901420-212147.jpg,,
,,,ALYR5CI2SM2JC,32,male,8,2022-09-18_08h16.05.906,memory_pilot_most_recent,2022.2.4,Win32,47.97543658,,,,,,,,,,,,,,,,,,,,,,,,,,,,,,,,1,left,,,,left,1,1.3792,0,37,37,37,1,2460547467-349422.jpg,2898618440-216545.jpg,,
,,,ALYR5CI2SM2JC,32,male,8,2022-09-18_08h16.05.906,memory_pilot_most_recent,2022.2.4,Win32,47.97543658,,,,,,,,,,,,,,,,,,,,,,,,,,,,,,,,2,left,,,,left,1,0.9555,0,38,38,38,1,2898618444-142233.jpg,2238555262-330312.jpg,,
,,,ALYR5CI2SM2JC,32,male,8,2022-09-18_08h16.05.906,memory_pilot_most_recent,2022.2.4,Win32,47.97543658,,,,,,,,,,,,,,,,,,,,,,,,,,,,,,,,2,right,,,,right,1,1.686,0,39,39,39,1,2981236443-71859.jpg,2898624426-291546.jpg,,
,,,ALYR5CI2SM2JC,32,male,8,2022-09-18_08h16.05.906,memory_pilot_most_recent,2022.2.4,Win32,47.97543658,,,,,,,,,,,,,,,,,,,,,,,,,,,,,,,,2,left,,,,right,0,1.2858,0,40,40,40,1,2238560245-182099.jpg,2874314526-289684.jpg,,
,,,ALYR5CI2SM2JC,32,male,8,2022-09-18_08h16.05.906,memory_pilot_most_recent,2022.2.4,Win32,47.97543658,,,,,,,,,,,,,,,,,,,,,,,,,,,,,,,,3,right,,,,right,1,1.3945,0,41,41,41,1,2864904453-63933.jpg,2883256307-365057.jpg,,
,,,ALYR5CI2SM2JC,32,male,8,2022-09-18_08h16.05.906,memory_pilot_most_recent,2022.2.4,Win32,47.97543658,,,,,,,,,,,,,,,,,,,,,,,,,,,,,,,,1,left,,,,left,1,0.8415,0,42,42,42,1,2981241414-145842.jpg,2238516618-25604.jpg,,
,,,ALYR5CI2SM2JC,32,male,8,2022-09-18_08h16.05.906,memory_pilot_most_recent,2022.2.4,Win32,47.97543658,,,,,,,,,,,,,,,,,,,,,,,,,,,,,,,,3,left,,,,left,1,0.832,0,43,43,43,1,2898635427-367120.jpg,2898621427-366486.jpg,,
,,,ALYR5CI2SM2JC,32,male,8,2022-09-18_08h16.05.906,memory_pilot_most_recent,2022.2.4,Win32,47.97543658,,,,,,,,,,,,,,,,,,,,,,,,,,,,,,,,2,left,,,,right,0,1.0603,0,44,44,44,1,2901947423-70311.jpg,2238573447-333826.jpg,,
,,,ALYR5CI2SM2JC,32,male,8,2022-09-18_08h16.05.906,memory_pilot_most_recent,2022.2.4,Win32,47.97543658,,,,,,,,,,,,,,,,,,,,,,,,,,,,,,,,1,right,,,,right,1,1.1084,0,45,45,45,1,2452380171-273112.jpg,2449442529-124445.jpg,,
,,,ALYR5CI2SM2JC,32,male,8,2022-09-18_08h16.05.906,memory_pilot_most_recent,2022.2.4,Win32,47.97543658,,,,,,,,,,,,,,,,,,,,,,,,,,,,,,,,1,right,,,,right,1,1.8554,0,46,46,46,1,2579432519-130698.jpg,2981231403-71642.jpg,,
,,,ALYR5CI2SM2JC,32,male,8,2022-09-18_08h16.05.906,memory_pilot_most_recent,2022.2.4,Win32,47.97543658,,,,,,,,,,,,,,,,,,,,,,,,,,,,,,,,3,left,,,,left,1,1.8264,0,47,47,47,1,2883268412-365898.jpg,2238436252-314037.jpg,,
,,,ALYR5CI2SM2JC,32,male,8,2022-09-18_08h16.05.906,memory_pilot_most_recent,2022.2.4,Win32,47.97543658,,,,,,,,,,,,,,,,,,,,,,,,,,,,,,,,2,left,,,,left,1,1.2003,0,48,48,48,1,2868474407-362883.jpg,2981246400-220363.jpg,,
,,,ALYR5CI2SM2JC,32,male,8,2022-09-18_08h16.05.906,memory_pilot_most_recent,2022.2.4,Win32,47.97543658,,,,,,,,,,,,,,,,,,,,,,,,,,,,,,,,3,right,,,,right,1,2.1202,0,49,49,49,1,2981241419-145844.jpg,2238481928-19949.jpg,,
,,,ALYR5CI2SM2JC,32,male,8,2022-09-18_08h16.05.906,memory_pilot_most_recent,2022.2.4,Win32,47.97543658,,,,,,,,,,,,,,,,,,,,,,,,,,,,,,,,2,left,,,,left,1,1.6709,0,50,50,50,1,2898617468-68274.jpg,2901943387-368037.jpg,,
,,,ALYR5CI2SM2JC,32,male,8,2022-09-18_08h16.05.906,memory_pilot_most_recent,2022.2.4,Win32,47.97543658,,,,,,,,,,,,,,,,,,,,,,,,,,,,,,,,1,right,,,,left,0,1.2536,0,51,51,51,1,2446759803-49250.jpg,2898635428-69104.jpg,,
,,,ALYR5CI2SM2JC,32,male,8,2022-09-18_08h16.05.906,memory_pilot_most_recent,2022.2.4,Win32,47.97543658,,,,,,,,,,,,,,,,,,,,,,,,,,,,,,,,2,left,,,,left,1,1.3901,0,52,52,52,1,2874307433-66280.jpg,2981246400-220365.jpg,,
,,,ALYR5CI2SM2JC,32,male,8,2022-09-18_08h16.05.906,memory_pilot_most_recent,2022.2.4,Win32,47.97543658,,,,,,,,,,,,,,,,,,,,,,,,,,,,,,,,2,left,,,,right,0,1.9125,0,53,53,53,1,2874302418-65978.jpg,2238481198-19823.jpg,,
,,,ALYR5CI2SM2JC,32,male,8,2022-09-18_08h16.05.906,memory_pilot_most_recent,2022.2.4,Win32,47.97543658,,,,,,,,,,,,,,,,,,,,,,,,,,,,,,,,3,right,,,,right,1,1.72,0,54,54,54,1,2592380272-354673.jpg,2592379964-131054.jpg,,
,,,ALYR5CI2SM2JC,32,male,8,2022-09-18_08h16.05.906,memory_pilot_most_recent,2022.2.4,Win32,47.97543658,,,,,,,,,,,,,,,,,,,,,,,,,,,,,,,,3,left,,,,left,1,1.1358,0,55,55,55,1,2901939379-143480.jpg,2898632385-217139.jpg,,
,,,ALYR5CI2SM2JC,32,male,8,2022-09-18_08h16.05.906,memory_pilot_most_recent,2022.2.4,Win32,47.97543658,,,,,,,,,,,,,,,,,,,,,,,,,,,,,,,,2,right,,,,right,1,1.9946,0,56,56,56,1,2901941438-69836.jpg,2964223381-294447.jpg,,
,,,ALYR5CI2SM2JC,32,male,8,2022-09-18_08h16.05.906,memory_pilot_most_recent,2022.2.4,Win32,47.97543658,,,,,,,,,,,,,,,,,,,,,,,,,,,,,,,,1,right,,,,right,1,1.9104,0,57,57,57,1,2862691449-137104.jpg,2238481198-19822.jpg,,
,,,ALYR5CI2SM2JC,32,male,8,2022-09-18_08h16.05.906,memory_pilot_most_recent,2022.2.4,Win32,47.97543658,,,,,,,,,,,,,,,,,,,,,,,,,,,,,,,,2,left,,,,left,1,1.084,0,58,58,58,1,2874302418-65979.jpg,2238480648-19714.jpg,,
,,,ALYR5CI2SM2JC,32,male,8,2022-09-18_08h16.05.906,memory_pilot_most_recent,2022.2.4,Win32,47.97543658,,,,,,,,,,,,,,,,,,,,,,,,,,,,,,,,2,left,,,,right,0,1.1419,0,59,59,59,1,2458347385-199723.jpg,2427874554-121863.jpg,,
,,,ALYR5CI2SM2JC,32,male,8,2022-09-18_08h16.05.906,memory_pilot_most_recent,2022.2.4,Win32,47.97543658,,,,,,,,,,,,,,,,,,,,,,,,,,,,,,,,,,,,,,,,,,,,,,,space,15.6431
