,index,test_encoding_response.keys,test_encoding_response.corr,trials.thisTrialN,target_image,pair,layer,correct,test_encoding_response.rt,key_resp_end.keys,subject
0,20,,1.0,0.0,2238126735-154721.jpg,2856919327-359676.jpg,1.0,,,,A87D3K9YVKTQ7_2022-12-12_10h15.11.273.csv
1,21,,1.0,1.0,2868475410-213219.jpg,2238216693-10721.jpg,1.0,,,,A87D3K9YVKTQ7_2022-12-12_10h15.11.273.csv
2,22,,1.0,2.0,2898624426-291546.jpg,2986402377-371266.jpg,1.0,,,,A87D3K9YVKTQ7_2022-12-12_10h15.11.273.csv
3,23,,1.0,3.0,2238561223-33794.jpg,2883271323-68049.jpg,3.0,,,,A87D3K9YVKTQ7_2022-12-12_10h15.11.273.csv
4,24,,1.0,4.0,2994405328-74628.jpg,2825702353-60662.jpg,2.0,,,,A87D3K9YVKTQ7_2022-12-12_10h15.11.273.csv
5,25,,1.0,5.0,2575964140-205050.jpg,2446760226-272005.jpg,3.0,,,,A87D3K9YVKTQ7_2022-12-12_10h15.11.273.csv
6,26,,1.0,6.0,2964224310-219527.jpg,2238490590-169598.jpg,3.0,,,,A87D3K9YVKTQ7_2022-12-12_10h15.11.273.csv
7,27,,1.0,7.0,2883254439-140940.jpg,2575121890-204630.jpg,2.0,,,,A87D3K9YVKTQ7_2022-12-12_10h15.11.273.csv
8,28,,1.0,8.0,2238584018-38513.jpg,2452381442-348755.jpg,3.0,,,,A87D3K9YVKTQ7_2022-12-12_10h15.11.273.csv
9,29,,1.0,9.0,2238521193-26286.jpg,2825712309-134957.jpg,1.0,,,,A87D3K9YVKTQ7_2022-12-12_10h15.11.273.csv
10,30,,1.0,10.0,2901934573-69337.jpg,2986401333-73218.jpg,1.0,,,,A87D3K9YVKTQ7_2022-12-12_10h15.11.273.csv
11,31,,1.0,11.0,2964218374-144968.jpg,2238525773-27014.jpg,3.0,,,,A87D3K9YVKTQ7_2022-12-12_10h15.11.273.csv
12,32,,1.0,12.0,2898632385-217137.jpg,2238480803-19739.jpg,2.0,,,,A87D3K9YVKTQ7_2022-12-12_10h15.11.273.csv
13,33,left,1.0,13.0,left.jpg,,,left,0.5774,,A87D3K9YVKTQ7_2022-12-12_10h15.11.273.csv
14,34,,1.0,14.0,2238129579-80916.jpg,2460547477-349426.jpg,1.0,,,,A87D3K9YVKTQ7_2022-12-12_10h15.11.273.csv
15,35,,1.0,15.0,2274829821-263682.jpg,2238570526-257884.jpg,1.0,,,,A87D3K9YVKTQ7_2022-12-12_10h15.11.273.csv
16,36,right,1.0,16.0,right.jpg,,,right,0.5652,,A87D3K9YVKTQ7_2022-12-12_10h15.11.273.csv
17,37,,1.0,17.0,2446758985-197609.jpg,2898633421-291973.jpg,1.0,,,,A87D3K9YVKTQ7_2022-12-12_10h15.11.273.csv
18,38,,1.0,18.0,2898632385-217138.jpg,2460547992-349586.jpg,3.0,,,,A87D3K9YVKTQ7_2022-12-12_10h15.11.273.csv
19,39,,1.0,19.0,2981231446-294731.jpg,2238568685-183597.jpg,2.0,,,,A87D3K9YVKTQ7_2022-12-12_10h15.11.273.csv
20,40,,1.0,20.0,2964216465-219242.jpg,2512875796-274856.jpg,2.0,,,,A87D3K9YVKTQ7_2022-12-12_10h15.11.273.csv
21,41,,1.0,21.0,2238516618-25604.jpg,2238470979-92618.jpg,3.0,,,,A87D3K9YVKTQ7_2022-12-12_10h15.11.273.csv
22,42,,1.0,22.0,2901941426-292805.jpg,2868488422-363715.jpg,1.0,,,,A87D3K9YVKTQ7_2022-12-12_10h15.11.273.csv
23,43,,1.0,23.0,2238471391-240918.jpg,2986399339-146857.jpg,3.0,,,,A87D3K9YVKTQ7_2022-12-12_10h15.11.273.csv
24,44,,1.0,24.0,2862691449-137104.jpg,2986455341-296758.jpg,2.0,,,,A87D3K9YVKTQ7_2022-12-12_10h15.11.273.csv
25,45,,1.0,25.0,2238375302-311538.jpg,2460547508-51571.jpg,3.0,,,,A87D3K9YVKTQ7_2022-12-12_10h15.11.273.csv
26,46,,1.0,26.0,2446760524-123999.jpg,2238539138-29878.jpg,3.0,,,,A87D3K9YVKTQ7_2022-12-12_10h15.11.273.csv
27,47,,1.0,27.0,2592380138-56727.jpg,2430664847-345753.jpg,2.0,,,,A87D3K9YVKTQ7_2022-12-12_10h15.11.273.csv
28,48,,1.0,28.0,2579432576-279079.jpg,2446760226-272006.jpg,2.0,,,,A87D3K9YVKTQ7_2022-12-12_10h15.11.273.csv
29,49,,1.0,29.0,2238480434-93829.jpg,2592380255-205551.jpg,2.0,,,,A87D3K9YVKTQ7_2022-12-12_10h15.11.273.csv
30,50,,1.0,30.0,2452380166-273109.jpg,2452380171-273112.jpg,1.0,,,,A87D3K9YVKTQ7_2022-12-12_10h15.11.273.csv
31,51,,1.0,31.0,2625337302-355866.jpg,2238478760-167789.jpg,2.0,,,,A87D3K9YVKTQ7_2022-12-12_10h15.11.273.csv
32,52,,1.0,32.0,2238429999-90218.jpg,2986448334-147157.jpg,1.0,,,,A87D3K9YVKTQ7_2022-12-12_10h15.11.273.csv
33,53,,1.0,33.0,2883255450-215309.jpg,2238562336-256366.jpg,3.0,,,,A87D3K9YVKTQ7_2022-12-12_10h15.11.273.csv
34,54,right,1.0,34.0,right.jpg,,,right,0.4665,,A87D3K9YVKTQ7_2022-12-12_10h15.11.273.csv
35,55,,1.0,35.0,2883272438-68133.jpg,2592380136-279476.jpg,3.0,,,,A87D3K9YVKTQ7_2022-12-12_10h15.11.273.csv
36,56,,1.0,36.0,2986400320-221190.jpg,2238538133-29662.jpg,3.0,,,,A87D3K9YVKTQ7_2022-12-12_10h15.11.273.csv
37,57,,1.0,37.0,2883254439-140941.jpg,2989724308-73928.jpg,1.0,,,,A87D3K9YVKTQ7_2022-12-12_10h15.11.273.csv
38,58,right,1.0,38.0,right.jpg,,,right,0.7315,,A87D3K9YVKTQ7_2022-12-12_10h15.11.273.csv
39,59,,1.0,39.0,2883255450-215311.jpg,2575964014-130589.jpg,3.0,,,,A87D3K9YVKTQ7_2022-12-12_10h15.11.273.csv
40,60,,1.0,40.0,2864909447-362146.jpg,2238555799-106905.jpg,2.0,,,,A87D3K9YVKTQ7_2022-12-12_10h15.11.273.csv
41,61,,1.0,41.0,2238575092-334269.jpg,2860304305-210777.jpg,2.0,,,,A87D3K9YVKTQ7_2022-12-12_10h15.11.273.csv
42,62,,1.0,42.0,2898626385-216899.jpg,2449442365-198476.jpg,2.0,,,,A87D3K9YVKTQ7_2022-12-12_10h15.11.273.csv
43,63,,1.0,43.0,2964213381-294060.jpg,2238520921-248323.jpg,2.0,,,,A87D3K9YVKTQ7_2022-12-12_10h15.11.273.csv
44,64,,1.0,44.0,2238584869-113153.jpg,2986455373-73646.jpg,3.0,,,,A87D3K9YVKTQ7_2022-12-12_10h15.11.273.csv
45,65,,1.0,45.0,2460547467-349421.jpg,2238554179-106663.jpg,3.0,,,,A87D3K9YVKTQ7_2022-12-12_10h15.11.273.csv
46,66,,1.0,46.0,2238499155-170911.jpg,2452380832-348593.jpg,2.0,,,,A87D3K9YVKTQ7_2022-12-12_10h15.11.273.csv
47,67,,1.0,47.0,2512876023-52283.jpg,2864908323-64106.jpg,1.0,,,,A87D3K9YVKTQ7_2022-12-12_10h15.11.273.csv
48,68,,1.0,48.0,2446759803-49249.jpg,2238468265-166556.jpg,2.0,,,,A87D3K9YVKTQ7_2022-12-12_10h15.11.273.csv
49,69,right,1.0,49.0,right.jpg,,,right,0.4623,,A87D3K9YVKTQ7_2022-12-12_10h15.11.273.csv
50,70,,1.0,50.0,2964209380-218956.jpg,2868488456-288710.jpg,1.0,,,,A87D3K9YVKTQ7_2022-12-12_10h15.11.273.csv
51,71,,1.0,51.0,2238550049-105691.jpg,2449443271-272729.jpg,2.0,,,,A87D3K9YVKTQ7_2022-12-12_10h15.11.273.csv
52,72,,1.0,52.0,2898635427-367120.jpg,2901936309-143207.jpg,3.0,,,,A87D3K9YVKTQ7_2022-12-12_10h15.11.273.csv
53,73,,1.0,53.0,2986408352-371293.jpg,2446759580-197801.jpg,2.0,,,,A87D3K9YVKTQ7_2022-12-12_10h15.11.273.csv
54,74,,1.0,54.0,2446760940-198145.jpg,2449443300-198739.jpg,1.0,,,,A87D3K9YVKTQ7_2022-12-12_10h15.11.273.csv
55,75,,1.0,55.0,2331570830-189984.jpg,2446760483-49429.jpg,1.0,,,,A87D3K9YVKTQ7_2022-12-12_10h15.11.273.csv
56,76,,1.0,56.0,2449442529-124446.jpg,2864911339-138231.jpg,3.0,,,,A87D3K9YVKTQ7_2022-12-12_10h15.11.273.csv
57,77,,1.0,57.0,2901939379-143479.jpg,2864909422-362141.jpg,3.0,,,,A87D3K9YVKTQ7_2022-12-12_10h15.11.273.csv
58,78,,1.0,58.0,2964213381-294061.jpg,2981234334-145491.jpg,2.0,,,,A87D3K9YVKTQ7_2022-12-12_10h15.11.273.csv
59,79,,1.0,59.0,2898633480-217190.jpg,2986450334-147216.jpg,2.0,,,,A87D3K9YVKTQ7_2022-12-12_10h15.11.273.csv
60,80,,1.0,60.0,2864906345-212360.jpg,2994403305-222559.jpg,3.0,,,,A87D3K9YVKTQ7_2022-12-12_10h15.11.273.csv
61,81,,1.0,61.0,2868485396-288511.jpg,2868470456-287597.jpg,1.0,,,,A87D3K9YVKTQ7_2022-12-12_10h15.11.273.csv
62,82,,1.0,62.0,2898617468-68274.jpg,2512875899-126682.jpg,1.0,,,,A87D3K9YVKTQ7_2022-12-12_10h15.11.273.csv
63,83,,1.0,63.0,2901938432-367627.jpg,2579432708-56394.jpg,1.0,,,,A87D3K9YVKTQ7_2022-12-12_10h15.11.273.csv
64,84,,1.0,64.0,2238496457-319749.jpg,2238570142-333223.jpg,1.0,,,,A87D3K9YVKTQ7_2022-12-12_10h15.11.273.csv
65,20,,1.0,0.0,2238471391-240918.jpg,2901943388-69995.jpg,2.0,,,,A3HFB277V5OXY0_2022-12-12_10h12.20.926.csv
66,21,,1.0,1.0,2274829821-263682.jpg,2446758985-197610.jpg,2.0,,,,A3HFB277V5OXY0_2022-12-12_10h12.20.926.csv
67,22,,1.0,2.0,2238561223-33794.jpg,2592380177-354626.jpg,2.0,,,,A3HFB277V5OXY0_2022-12-12_10h12.20.926.csv
68,23,,1.0,3.0,2964218374-144968.jpg,2238521157-323782.jpg,2.0,,,,A3HFB277V5OXY0_2022-12-12_10h12.20.926.csv
69,24,,1.0,4.0,2238584018-38513.jpg,2898633321-291943.jpg,2.0,,,,A3HFB277V5OXY0_2022-12-12_10h12.20.926.csv
70,25,,1.0,5.0,2986408352-371293.jpg,2868488422-363713.jpg,1.0,,,,A3HFB277V5OXY0_2022-12-12_10h12.20.926.csv
71,26,,1.0,6.0,2981231446-294731.jpg,2986450330-221526.jpg,1.0,,,,A3HFB277V5OXY0_2022-12-12_10h12.20.926.csv
72,27,,1.0,7.0,2864909447-362146.jpg,2874316384-140749.jpg,1.0,,,,A3HFB277V5OXY0_2022-12-12_10h12.20.926.csv
73,28,,1.0,8.0,2864906345-212360.jpg,2994403305-222559.jpg,3.0,,,,A3HFB277V5OXY0_2022-12-12_10h12.20.926.csv
74,29,,1.0,9.0,2868485396-288511.jpg,2238380314-88261.jpg,3.0,,,,A3HFB277V5OXY0_2022-12-12_10h12.20.926.csv
75,30,,1.0,10.0,2238499155-170911.jpg,2238373603-13733.jpg,3.0,,,,A3HFB277V5OXY0_2022-12-12_10h12.20.926.csv
76,31,,1.0,11.0,2238575092-334269.jpg,2964218374-144967.jpg,3.0,,,,A3HFB277V5OXY0_2022-12-12_10h12.20.926.csv
77,32,right,1.0,12.0,right.jpg,,,right,1.1341,,A3HFB277V5OXY0_2022-12-12_10h12.20.926.csv
78,33,,1.0,13.0,2238584869-113153.jpg,2981241419-145844.jpg,2.0,,,,A3HFB277V5OXY0_2022-12-12_10h12.20.926.csv
79,34,,1.0,14.0,2449442529-124446.jpg,2864911339-138231.jpg,3.0,,,,A3HFB277V5OXY0_2022-12-12_10h12.20.926.csv
80,35,,1.0,15.0,2238550049-105691.jpg,2238482972-317759.jpg,1.0,,,,A3HFB277V5OXY0_2022-12-12_10h12.20.926.csv
81,36,,1.0,16.0,2238126735-154721.jpg,2901951430-218724.jpg,3.0,,,,A3HFB277V5OXY0_2022-12-12_10h12.20.926.csv
82,37,,1.0,17.0,2625337302-355866.jpg,2598726160-205998.jpg,3.0,,,,A3HFB277V5OXY0_2022-12-12_10h12.20.926.csv
83,38,,1.0,18.0,2986400320-221190.jpg,2238470979-92615.jpg,2.0,,,,A3HFB277V5OXY0_2022-12-12_10h12.20.926.csv
84,39,,1.0,19.0,2446760940-198145.jpg,2592380188-56743.jpg,2.0,,,,A3HFB277V5OXY0_2022-12-12_10h12.20.926.csv
85,40,left,1.0,20.0,left.jpg,,,left,1.1534,,A3HFB277V5OXY0_2022-12-12_10h12.20.926.csv
86,41,,1.0,21.0,2964224310-219527.jpg,2964213441-294073.jpg,2.0,,,,A3HFB277V5OXY0_2022-12-12_10h12.20.926.csv
87,42,,1.0,22.0,2994405328-74628.jpg,2825702353-60662.jpg,2.0,,,,A3HFB277V5OXY0_2022-12-12_10h12.20.926.csv
88,43,,1.0,23.0,2331570830-189984.jpg,2446760483-49429.jpg,1.0,,,,A3HFB277V5OXY0_2022-12-12_10h12.20.926.csv
89,44,,1.0,24.0,2898632385-217138.jpg,2273188118-40829.jpg,2.0,,,,A3HFB277V5OXY0_2022-12-12_10h12.20.926.csv
90,45,,1.0,25.0,2883255450-215309.jpg,2868476439-138927.jpg,2.0,,,,A3HFB277V5OXY0_2022-12-12_10h12.20.926.csv
91,46,,1.0,26.0,2460547467-349421.jpg,2901934573-69336.jpg,1.0,,,,A3HFB277V5OXY0_2022-12-12_10h12.20.926.csv
92,47,,1.0,27.0,2898626385-216899.jpg,2989715328-73658.jpg,1.0,,,,A3HFB277V5OXY0_2022-12-12_10h12.20.926.csv
93,48,,1.0,28.0,2901939379-143479.jpg,2449443292-348022.jpg,2.0,,,,A3HFB277V5OXY0_2022-12-12_10h12.20.926.csv
94,49,,1.0,29.0,2901934573-69337.jpg,2901936407-367476.jpg,3.0,,,,A3HFB277V5OXY0_2022-12-12_10h12.20.926.csv
95,50,left,1.0,30.0,left.jpg,,,left,0.9272,,A3HFB277V5OXY0_2022-12-12_10h12.20.926.csv
96,51,,1.0,31.0,2512876023-52283.jpg,2864908323-64106.jpg,1.0,,,,A3HFB277V5OXY0_2022-12-12_10h12.20.926.csv
97,52,,1.0,32.0,2901941426-292805.jpg,2868488422-363715.jpg,1.0,,,,A3HFB277V5OXY0_2022-12-12_10h12.20.926.csv
98,53,,1.0,33.0,2883272438-68133.jpg,2901936369-143233.jpg,2.0,,,,A3HFB277V5OXY0_2022-12-12_10h12.20.926.csv
99,54,,1.0,34.0,2579432576-279079.jpg,2446760226-272006.jpg,2.0,,,,A3HFB277V5OXY0_2022-12-12_10h12.20.926.csv
100,55,,1.0,35.0,2575964140-205050.jpg,2446760226-272005.jpg,3.0,,,,A3HFB277V5OXY0_2022-12-12_10h12.20.926.csv
101,56,,1.0,36.0,2883254439-140940.jpg,2452380166-273110.jpg,1.0,,,,A3HFB277V5OXY0_2022-12-12_10h12.20.926.csv
102,57,,1.0,37.0,2898632385-217137.jpg,2864904453-63932.jpg,3.0,,,,A3HFB277V5OXY0_2022-12-12_10h12.20.926.csv
103,58,,1.0,38.0,2238429999-90218.jpg,2964222378-71332.jpg,3.0,,,,A3HFB277V5OXY0_2022-12-12_10h12.20.926.csv
104,59,,1.0,39.0,2238516618-25604.jpg,2238573549-110485.jpg,1.0,,,,A3HFB277V5OXY0_2022-12-12_10h12.20.926.csv
105,60,right,1.0,40.0,right.jpg,,,right,1.0084,,A3HFB277V5OXY0_2022-12-12_10h12.20.926.csv
106,61,,1.0,41.0,2446760524-123999.jpg,2238552469-106359.jpg,2.0,,,,A3HFB277V5OXY0_2022-12-12_10h12.20.926.csv
107,62,,1.0,42.0,2964213381-294060.jpg,2898631359-142720.jpg,1.0,,,,A3HFB277V5OXY0_2022-12-12_10h12.20.926.csv
108,63,,1.0,43.0,2898635427-367120.jpg,2238436632-314069.jpg,1.0,,,,A3HFB277V5OXY0_2022-12-12_10h12.20.926.csv
109,64,,1.0,44.0,2446758985-197609.jpg,2984618344-146295.jpg,3.0,,,,A3HFB277V5OXY0_2022-12-12_10h12.20.926.csv
110,65,,1.0,45.0,2238375302-311538.jpg,2592380049-131077.jpg,2.0,,,,A3HFB277V5OXY0_2022-12-12_10h12.20.926.csv
111,66,,1.0,46.0,2452380166-273109.jpg,2452380171-273112.jpg,1.0,,,,A3HFB277V5OXY0_2022-12-12_10h12.20.926.csv
112,67,,1.0,47.0,2862691449-137104.jpg,2986455341-296758.jpg,2.0,,,,A3HFB277V5OXY0_2022-12-12_10h12.20.926.csv
113,68,right,1.0,48.0,right.jpg,,,right,0.9667,,A3HFB277V5OXY0_2022-12-12_10h12.20.926.csv
114,69,,1.0,49.0,2883254439-140941.jpg,2989724308-73928.jpg,1.0,,,,A3HFB277V5OXY0_2022-12-12_10h12.20.926.csv
115,70,,1.0,50.0,2964216465-219242.jpg,2446760917-347439.jpg,3.0,,,,A3HFB277V5OXY0_2022-12-12_10h12.20.926.csv
116,71,,1.0,51.0,2868475410-213219.jpg,2238436851-238821.jpg,3.0,,,,A3HFB277V5OXY0_2022-12-12_10h12.20.926.csv
117,72,,1.0,52.0,2964213381-294061.jpg,2981234334-145491.jpg,2.0,,,,A3HFB277V5OXY0_2022-12-12_10h12.20.926.csv
118,73,,1.0,53.0,2883255450-215311.jpg,2238481575-168208.jpg,1.0,,,,A3HFB277V5OXY0_2022-12-12_10h12.20.926.csv
119,74,,1.0,54.0,2238480434-93829.jpg,2804906319-133082.jpg,1.0,,,,A3HFB277V5OXY0_2022-12-12_10h12.20.926.csv
120,75,,1.0,55.0,2964209380-218956.jpg,2898617396-291219.jpg,3.0,,,,A3HFB277V5OXY0_2022-12-12_10h12.20.926.csv
121,76,,1.0,56.0,2901938432-367627.jpg,2856919327-359675.jpg,2.0,,,,A3HFB277V5OXY0_2022-12-12_10h12.20.926.csv
122,77,,1.0,57.0,2898633480-217190.jpg,2237858043-1434.jpg,3.0,,,,A3HFB277V5OXY0_2022-12-12_10h12.20.926.csv
123,78,,1.0,58.0,2898617468-68274.jpg,2862684406-285700.jpg,3.0,,,,A3HFB277V5OXY0_2022-12-12_10h12.20.926.csv
124,79,,1.0,59.0,2898624426-291546.jpg,2986402377-371266.jpg,1.0,,,,A3HFB277V5OXY0_2022-12-12_10h12.20.926.csv
125,80,,1.0,60.0,2238129579-80916.jpg,2238161924-82646.jpg,3.0,,,,A3HFB277V5OXY0_2022-12-12_10h12.20.926.csv
126,81,,1.0,61.0,2238521193-26286.jpg,2446760306-272024.jpg,3.0,,,,A3HFB277V5OXY0_2022-12-12_10h12.20.926.csv
127,82,,1.0,62.0,2446759803-49249.jpg,2592380177-354629.jpg,1.0,,,,A3HFB277V5OXY0_2022-12-12_10h12.20.926.csv
128,83,,1.0,63.0,2592380138-56727.jpg,2238537701-251772.jpg,3.0,,,,A3HFB277V5OXY0_2022-12-12_10h12.20.926.csv
129,84,,1.0,64.0,2238496457-319749.jpg,2238570142-333223.jpg,1.0,,,,A3HFB277V5OXY0_2022-12-12_10h12.20.926.csv
130,20,,1.0,0.0,2238516618-25604.jpg,2862686459-136888.jpg,2.0,,,,A177M9OIBDUWFW_2022-12-12_10h21.40.131.csv
131,21,,1.0,1.0,2625337302-355866.jpg,2598726160-205998.jpg,3.0,,,,A177M9OIBDUWFW_2022-12-12_10h21.40.131.csv
132,22,,1.0,2.0,2238584018-38513.jpg,2452381442-348755.jpg,3.0,,,,A177M9OIBDUWFW_2022-12-12_10h21.40.131.csv
133,23,,1.0,3.0,2898632385-217138.jpg,2575120738-55529.jpg,1.0,,,,A177M9OIBDUWFW_2022-12-12_10h21.40.131.csv
134,24,,1.0,4.0,2452380166-273109.jpg,2238380901-236499.jpg,3.0,,,,A177M9OIBDUWFW_2022-12-12_10h21.40.131.csv
135,25,,1.0,5.0,2512876023-52283.jpg,2898636443-69154.jpg,2.0,,,,A177M9OIBDUWFW_2022-12-12_10h21.40.131.csv
136,26,,1.0,6.0,2964213381-294060.jpg,2989724308-73930.jpg,3.0,,,,A177M9OIBDUWFW_2022-12-12_10h21.40.131.csv
137,27,right,1.0,7.0,right.jpg,,,right,0.993299999,,A177M9OIBDUWFW_2022-12-12_10h21.40.131.csv
138,28,,1.0,8.0,2238496457-319749.jpg,2592380234-131135.jpg,2.0,,,,A177M9OIBDUWFW_2022-12-12_10h21.40.131.csv
139,29,,1.0,9.0,2898632385-217137.jpg,2238360884-87525.jpg,1.0,,,,A177M9OIBDUWFW_2022-12-12_10h21.40.131.csv
140,30,,1.0,10.0,2238584869-113153.jpg,2864901420-212147.jpg,1.0,,,,A177M9OIBDUWFW_2022-12-12_10h21.40.131.csv
141,31,,1.0,11.0,2238471391-240918.jpg,2986399339-146857.jpg,3.0,,,,A177M9OIBDUWFW_2022-12-12_10h21.40.131.csv
142,32,,1.0,12.0,2898633480-217190.jpg,2986450334-147216.jpg,2.0,,,,A177M9OIBDUWFW_2022-12-12_10h21.40.131.csv
143,33,,1.0,13.0,2981231446-294731.jpg,2986450330-221526.jpg,1.0,,,,A177M9OIBDUWFW_2022-12-12_10h21.40.131.csv
144,34,,1.0,14.0,2964213381-294061.jpg,2981234334-145491.jpg,2.0,,,,A177M9OIBDUWFW_2022-12-12_10h21.40.131.csv
145,35,,1.0,15.0,2864909447-362146.jpg,2238555799-106905.jpg,2.0,,,,A177M9OIBDUWFW_2022-12-12_10h21.40.131.csv
146,36,,1.0,16.0,2883254439-140941.jpg,2417207511-266975.jpg,3.0,,,,A177M9OIBDUWFW_2022-12-12_10h21.40.131.csv
147,37,,1.0,17.0,2238375302-311538.jpg,2592380255-205552.jpg,1.0,,,,A177M9OIBDUWFW_2022-12-12_10h21.40.131.csv
148,38,,1.0,18.0,2238429999-90218.jpg,2901951459-144433.jpg,2.0,,,,A177M9OIBDUWFW_2022-12-12_10h21.40.131.csv
149,39,,1.0,19.0,2579432576-279079.jpg,2446760226-272006.jpg,2.0,,,,A177M9OIBDUWFW_2022-12-12_10h21.40.131.csv
150,40,,1.0,20.0,2986408352-371293.jpg,2856916345-210056.jpg,3.0,,,,A177M9OIBDUWFW_2022-12-12_10h21.40.131.csv
151,41,,1.0,21.0,2274829821-263682.jpg,2862687442-360837.jpg,3.0,,,,A177M9OIBDUWFW_2022-12-12_10h21.40.131.csv
152,42,right,1.0,22.0,right.jpg,,,right,0.966199999,,A177M9OIBDUWFW_2022-12-12_10h21.40.131.csv
153,43,,1.0,23.0,2446760940-198145.jpg,2446760692-347392.jpg,3.0,,,,A177M9OIBDUWFW_2022-12-12_10h21.40.131.csv
154,44,,1.0,24.0,2449442529-124446.jpg,2238481610-168214.jpg,1.0,,,,A177M9OIBDUWFW_2022-12-12_10h21.40.131.csv
155,45,,1.0,25.0,2331570830-189984.jpg,2446760483-49429.jpg,1.0,,,,A177M9OIBDUWFW_2022-12-12_10h21.40.131.csv
156,46,left,1.0,26.0,left.jpg,,,left,1.278800001,,A177M9OIBDUWFW_2022-12-12_10h21.40.131.csv
157,47,,1.0,27.0,2868475410-213219.jpg,2238436851-238821.jpg,3.0,,,,A177M9OIBDUWFW_2022-12-12_10h21.40.131.csv
158,48,,1.0,28.0,2238480434-93829.jpg,2804906319-133082.jpg,1.0,,,,A177M9OIBDUWFW_2022-12-12_10h21.40.131.csv
159,49,,1.0,29.0,2964218374-144968.jpg,2238521157-323782.jpg,2.0,,,,A177M9OIBDUWFW_2022-12-12_10h21.40.131.csv
160,50,,1.0,30.0,2883272438-68133.jpg,2237949408-4018.jpg,1.0,,,,A177M9OIBDUWFW_2022-12-12_10h21.40.131.csv
161,51,,1.0,31.0,2964216465-219242.jpg,2446760917-347439.jpg,3.0,,,,A177M9OIBDUWFW_2022-12-12_10h21.40.131.csv
162,52,,1.0,32.0,2898617468-68274.jpg,2512875899-126682.jpg,1.0,,,,A177M9OIBDUWFW_2022-12-12_10h21.40.131.csv
163,53,,1.0,33.0,2238550049-105691.jpg,2964219468-71238.jpg,3.0,,,,A177M9OIBDUWFW_2022-12-12_10h21.40.131.csv
164,54,,1.0,34.0,2575964140-205050.jpg,2238547522-328488.jpg,2.0,,,,A177M9OIBDUWFW_2022-12-12_10h21.40.131.csv
165,55,,1.0,35.0,2238575092-334269.jpg,2860304305-210777.jpg,2.0,,,,A177M9OIBDUWFW_2022-12-12_10h21.40.131.csv
166,56,,1.0,36.0,2901939379-143479.jpg,2986450334-147215.jpg,1.0,,,,A177M9OIBDUWFW_2022-12-12_10h21.40.131.csv
167,57,,1.0,37.0,2898626385-216899.jpg,2989715328-73658.jpg,1.0,,,,A177M9OIBDUWFW_2022-12-12_10h21.40.131.csv
168,58,,1.0,38.0,2883254439-140940.jpg,2812983311-281946.jpg,3.0,,,,A177M9OIBDUWFW_2022-12-12_10h21.40.131.csv
169,59,,1.0,39.0,2238521193-26286.jpg,2874301437-363905.jpg,2.0,,,,A177M9OIBDUWFW_2022-12-12_10h21.40.131.csv
170,60,,1.0,40.0,2994405328-74628.jpg,2883273443-68192.jpg,3.0,,,,A177M9OIBDUWFW_2022-12-12_10h21.40.131.csv
171,61,,1.0,41.0,2868485396-288511.jpg,2868472420-213024.jpg,2.0,,,,A177M9OIBDUWFW_2022-12-12_10h21.40.131.csv
172,62,,1.0,42.0,2446760524-123999.jpg,2238552469-106359.jpg,2.0,,,,A177M9OIBDUWFW_2022-12-12_10h21.40.131.csv
173,63,left,1.0,43.0,left.jpg,,,left,2.5146,,A177M9OIBDUWFW_2022-12-12_10h21.40.131.csv
174,64,,1.0,44.0,2964209380-218956.jpg,2868488456-288710.jpg,1.0,,,,A177M9OIBDUWFW_2022-12-12_10h21.40.131.csv
175,65,,1.0,45.0,2592380138-56727.jpg,2238537701-251772.jpg,3.0,,,,A177M9OIBDUWFW_2022-12-12_10h21.40.131.csv
176,66,left,1.0,46.0,left.jpg,,,left,1.007200001,,A177M9OIBDUWFW_2022-12-12_10h21.40.131.csv
177,67,,1.0,47.0,2446758985-197609.jpg,2984618344-146295.jpg,3.0,,,,A177M9OIBDUWFW_2022-12-12_10h21.40.131.csv
178,68,,1.0,48.0,2864906345-212360.jpg,2986397365-221133.jpg,1.0,,,,A177M9OIBDUWFW_2022-12-12_10h21.40.131.csv
179,69,,1.0,49.0,2883255450-215309.jpg,2238562336-256366.jpg,3.0,,,,A177M9OIBDUWFW_2022-12-12_10h21.40.131.csv
180,70,,1.0,50.0,2898635427-367120.jpg,2238436632-314069.jpg,1.0,,,,A177M9OIBDUWFW_2022-12-12_10h21.40.131.csv
181,71,,1.0,51.0,2898624426-291546.jpg,2986402377-371266.jpg,1.0,,,,A177M9OIBDUWFW_2022-12-12_10h21.40.131.csv
182,72,,1.0,52.0,2883255450-215311.jpg,2868485399-139476.jpg,2.0,,,,A177M9OIBDUWFW_2022-12-12_10h21.40.131.csv
183,73,,1.0,53.0,2862691449-137104.jpg,2238540598-30035.jpg,1.0,,,,A177M9OIBDUWFW_2022-12-12_10h21.40.131.csv
184,74,,1.0,54.0,2964224310-219527.jpg,2238380178-14011.jpg,1.0,,,,A177M9OIBDUWFW_2022-12-12_10h21.40.131.csv
185,75,,1.0,55.0,2238129579-80916.jpg,2898618444-142233.jpg,2.0,,,,A177M9OIBDUWFW_2022-12-12_10h21.40.131.csv
186,76,,1.0,56.0,2460547467-349421.jpg,2901934573-69336.jpg,1.0,,,,A177M9OIBDUWFW_2022-12-12_10h21.40.131.csv
187,77,,1.0,57.0,2986400320-221190.jpg,2238470979-92615.jpg,2.0,,,,A177M9OIBDUWFW_2022-12-12_10h21.40.131.csv
188,78,,1.0,58.0,2446759803-49249.jpg,2238468265-166556.jpg,2.0,,,,A177M9OIBDUWFW_2022-12-12_10h21.40.131.csv
189,79,,1.0,59.0,2238499155-170911.jpg,2452380832-348593.jpg,2.0,,,,A177M9OIBDUWFW_2022-12-12_10h21.40.131.csv
190,80,,1.0,60.0,2238561223-33794.jpg,2883271323-68049.jpg,3.0,,,,A177M9OIBDUWFW_2022-12-12_10h21.40.131.csv
191,81,,1.0,61.0,2901934573-69337.jpg,2238345946-235007.jpg,2.0,,,,A177M9OIBDUWFW_2022-12-12_10h21.40.131.csv
192,82,,1.0,62.0,2901938432-367627.jpg,2424122568-45517.jpg,3.0,,,,A177M9OIBDUWFW_2022-12-12_10h21.40.131.csv
193,83,,1.0,63.0,2901941426-292805.jpg,2868488422-363715.jpg,1.0,,,,A177M9OIBDUWFW_2022-12-12_10h21.40.131.csv
194,84,,1.0,64.0,2238126735-154721.jpg,2901951430-218724.jpg,3.0,,,,A177M9OIBDUWFW_2022-12-12_10h21.40.131.csv
195,20,,1.0,0.0,2238521193-26286.jpg,2874301437-363905.jpg,2.0,,,,AHZP05WVFXXCG_2022-12-12_11h20.48.549.csv
196,21,,1.0,1.0,2994405328-74628.jpg,2417206274-118542.jpg,1.0,,,,AHZP05WVFXXCG_2022-12-12_11h20.48.549.csv
197,22,,1.0,2.0,2238584869-113153.jpg,2986455373-73646.jpg,3.0,,,,AHZP05WVFXXCG_2022-12-12_11h20.48.549.csv
198,23,,1.0,3.0,2625337302-355866.jpg,2425492472-343825.jpg,1.0,,,,AHZP05WVFXXCG_2022-12-12_11h20.48.549.csv
199,24,,1.0,4.0,2901939379-143479.jpg,2864909422-362141.jpg,3.0,,,,AHZP05WVFXXCG_2022-12-12_11h20.48.549.csv
200,25,,1.0,5.0,2964216465-219242.jpg,2512875796-274856.jpg,2.0,,,,AHZP05WVFXXCG_2022-12-12_11h20.48.549.csv
201,26,,1.0,6.0,2274829821-263682.jpg,2238570526-257884.jpg,1.0,,,,AHZP05WVFXXCG_2022-12-12_11h20.48.549.csv
202,27,,1.0,7.0,2512876023-52283.jpg,2238576267-334532.jpg,3.0,,,,AHZP05WVFXXCG_2022-12-12_11h20.48.549.csv
203,28,,1.0,8.0,2964224310-219527.jpg,2238380178-14011.jpg,1.0,,,,AHZP05WVFXXCG_2022-12-12_11h20.48.549.csv
204,29,,1.0,9.0,2238496457-319749.jpg,2460547467-349422.jpg,3.0,,,,AHZP05WVFXXCG_2022-12-12_11h20.48.549.csv
205,30,,1.0,10.0,2238126735-154721.jpg,2856919327-359676.jpg,1.0,,,,AHZP05WVFXXCG_2022-12-12_11h20.48.549.csv
206,31,left,1.0,11.0,left.jpg,,,left,1.0394,,AHZP05WVFXXCG_2022-12-12_11h20.48.549.csv
207,32,,1.0,12.0,2901941426-292805.jpg,2901945303-70125.jpg,3.0,,,,AHZP05WVFXXCG_2022-12-12_11h20.48.549.csv
208,33,,1.0,13.0,2898626385-216899.jpg,2989715328-73658.jpg,1.0,,,,AHZP05WVFXXCG_2022-12-12_11h20.48.549.csv
209,34,,1.0,14.0,2238471391-240918.jpg,2901943388-69995.jpg,2.0,,,,AHZP05WVFXXCG_2022-12-12_11h20.48.549.csv
210,35,,1.0,15.0,2883254439-140940.jpg,2452380166-273110.jpg,1.0,,,,AHZP05WVFXXCG_2022-12-12_11h20.48.549.csv
211,36,,1.0,16.0,2986400320-221190.jpg,2238538133-29662.jpg,3.0,,,,AHZP05WVFXXCG_2022-12-12_11h20.48.549.csv
212,37,,1.0,17.0,2446759803-49249.jpg,2592380177-354629.jpg,1.0,,,,AHZP05WVFXXCG_2022-12-12_11h20.48.549.csv
213,38,,1.0,18.0,2449442529-124446.jpg,2864911339-138231.jpg,3.0,,,,AHZP05WVFXXCG_2022-12-12_11h20.48.549.csv
214,39,,1.0,19.0,2964209380-218956.jpg,2868488456-288710.jpg,1.0,,,,AHZP05WVFXXCG_2022-12-12_11h20.48.549.csv
215,40,,1.0,20.0,2238129579-80916.jpg,2898618444-142233.jpg,2.0,,,,AHZP05WVFXXCG_2022-12-12_11h20.48.549.csv
216,41,left,1.0,21.0,left.jpg,,,left,1.0573,,AHZP05WVFXXCG_2022-12-12_11h20.48.549.csv
217,42,,1.0,22.0,2446760524-123999.jpg,2238539138-29878.jpg,3.0,,,,AHZP05WVFXXCG_2022-12-12_11h20.48.549.csv
218,43,,1.0,23.0,2898633480-217190.jpg,2237858043-1434.jpg,3.0,,,,AHZP05WVFXXCG_2022-12-12_11h20.48.549.csv
219,44,,1.0,24.0,2452380166-273109.jpg,2592379781-279345.jpg,2.0,,,,AHZP05WVFXXCG_2022-12-12_11h20.48.549.csv
220,45,,1.0,25.0,2238561223-33794.jpg,2238506233-23904.jpg,1.0,,,,AHZP05WVFXXCG_2022-12-12_11h20.48.549.csv
221,46,,1.0,26.0,2238499155-170911.jpg,2452380832-348593.jpg,2.0,,,,AHZP05WVFXXCG_2022-12-12_11h20.48.549.csv
222,47,,1.0,27.0,2898617468-68274.jpg,2238585512-336576.jpg,2.0,,,,AHZP05WVFXXCG_2022-12-12_11h20.48.549.csv
223,48,,1.0,28.0,2238429999-90218.jpg,2964222378-71332.jpg,3.0,,,,AHZP05WVFXXCG_2022-12-12_11h20.48.549.csv
224,49,,1.0,29.0,2238575092-334269.jpg,2964218374-144967.jpg,3.0,,,,AHZP05WVFXXCG_2022-12-12_11h20.48.549.csv
225,50,,1.0,30.0,2883255450-215309.jpg,2238429999-90216.jpg,1.0,,,,AHZP05WVFXXCG_2022-12-12_11h20.48.549.csv
226,51,left,1.0,31.0,left.jpg,,,left,1.2391,,AHZP05WVFXXCG_2022-12-12_11h20.48.549.csv
227,52,,1.0,32.0,2901938432-367627.jpg,2856919327-359675.jpg,2.0,,,,AHZP05WVFXXCG_2022-12-12_11h20.48.549.csv
228,53,,1.0,33.0,2964213381-294060.jpg,2238520921-248323.jpg,2.0,,,,AHZP05WVFXXCG_2022-12-12_11h20.48.549.csv
229,54,,1.0,34.0,2238550049-105691.jpg,2238482972-317759.jpg,1.0,,,,AHZP05WVFXXCG_2022-12-12_11h20.48.549.csv
230,55,,1.0,35.0,2898635427-367120.jpg,2238436632-314069.jpg,1.0,,,,AHZP05WVFXXCG_2022-12-12_11h20.48.549.csv
231,56,,1.0,36.0,2575964140-205050.jpg,2238482920-168428.jpg,1.0,,,,AHZP05WVFXXCG_2022-12-12_11h20.48.549.csv
232,57,,1.0,37.0,2592380138-56727.jpg,2238537701-251772.jpg,3.0,,,,AHZP05WVFXXCG_2022-12-12_11h20.48.549.csv
233,58,,1.0,38.0,2864909447-362146.jpg,2874303453-66056.jpg,3.0,,,,AHZP05WVFXXCG_2022-12-12_11h20.48.549.csv
234,59,right,1.0,39.0,right.jpg,,,right,1.4773,,AHZP05WVFXXCG_2022-12-12_11h20.48.549.csv
235,60,,1.0,40.0,2460547467-349421.jpg,2238470079-92499.jpg,2.0,,,,AHZP05WVFXXCG_2022-12-12_11h20.48.549.csv
236,61,,1.0,41.0,2898632385-217138.jpg,2273188118-40829.jpg,2.0,,,,AHZP05WVFXXCG_2022-12-12_11h20.48.549.csv
237,62,,1.0,42.0,2579432576-279079.jpg,2446760226-272006.jpg,2.0,,,,AHZP05WVFXXCG_2022-12-12_11h20.48.549.csv
238,63,,1.0,43.0,2883254439-140941.jpg,2417207511-266975.jpg,3.0,,,,AHZP05WVFXXCG_2022-12-12_11h20.48.549.csv
239,64,,1.0,44.0,2981231446-294731.jpg,2986450330-221526.jpg,1.0,,,,AHZP05WVFXXCG_2022-12-12_11h20.48.549.csv
240,65,,1.0,45.0,2986408352-371293.jpg,2868488422-363713.jpg,1.0,,,,AHZP05WVFXXCG_2022-12-12_11h20.48.549.csv
241,66,left,1.0,46.0,left.jpg,,,left,1.2547,,AHZP05WVFXXCG_2022-12-12_11h20.48.549.csv
242,67,,1.0,47.0,2331570830-189984.jpg,2446760483-49429.jpg,1.0,,,,AHZP05WVFXXCG_2022-12-12_11h20.48.549.csv
243,68,,1.0,48.0,2898632385-217137.jpg,2238480803-19739.jpg,2.0,,,,AHZP05WVFXXCG_2022-12-12_11h20.48.549.csv
244,69,,1.0,49.0,2868475410-213219.jpg,2575964140-205051.jpg,2.0,,,,AHZP05WVFXXCG_2022-12-12_11h20.48.549.csv
245,70,,1.0,50.0,2964218374-144968.jpg,2238525773-27014.jpg,3.0,,,,AHZP05WVFXXCG_2022-12-12_11h20.48.549.csv
246,71,,1.0,51.0,2446758985-197609.jpg,2898633421-291973.jpg,1.0,,,,AHZP05WVFXXCG_2022-12-12_11h20.48.549.csv
247,72,,1.0,52.0,2864906345-212360.jpg,2986397365-221133.jpg,1.0,,,,AHZP05WVFXXCG_2022-12-12_11h20.48.549.csv
248,73,,1.0,53.0,2862691449-137104.jpg,2986455341-296758.jpg,2.0,,,,AHZP05WVFXXCG_2022-12-12_11h20.48.549.csv
249,74,,1.0,54.0,2238584018-38513.jpg,2452381442-348755.jpg,3.0,,,,AHZP05WVFXXCG_2022-12-12_11h20.48.549.csv
250,75,,1.0,55.0,2868485396-288511.jpg,2868472420-213024.jpg,2.0,,,,AHZP05WVFXXCG_2022-12-12_11h20.48.549.csv
251,76,,1.0,56.0,2883272438-68133.jpg,2592380136-279476.jpg,3.0,,,,AHZP05WVFXXCG_2022-12-12_11h20.48.549.csv
252,77,,1.0,57.0,2238480434-93829.jpg,2592380255-205551.jpg,2.0,,,,AHZP05WVFXXCG_2022-12-12_11h20.48.549.csv
253,78,,1.0,58.0,2898624426-291546.jpg,2549106844-127878.jpg,2.0,,,,AHZP05WVFXXCG_2022-12-12_11h20.48.549.csv
254,79,,1.0,59.0,2964213381-294061.jpg,2981234334-145491.jpg,2.0,,,,AHZP05WVFXXCG_2022-12-12_11h20.48.549.csv
255,80,,1.0,60.0,2901934573-69337.jpg,2901936407-367476.jpg,3.0,,,,AHZP05WVFXXCG_2022-12-12_11h20.48.549.csv
256,81,,1.0,61.0,2446760940-198145.jpg,2592380188-56743.jpg,2.0,,,,AHZP05WVFXXCG_2022-12-12_11h20.48.549.csv
257,82,,1.0,62.0,2238516618-25604.jpg,2238470979-92618.jpg,3.0,,,,AHZP05WVFXXCG_2022-12-12_11h20.48.549.csv
258,83,,1.0,63.0,2238375302-311538.jpg,2460547508-51571.jpg,3.0,,,,AHZP05WVFXXCG_2022-12-12_11h20.48.549.csv
259,84,,1.0,64.0,2883255450-215311.jpg,2238481575-168208.jpg,1.0,,,,AHZP05WVFXXCG_2022-12-12_11h20.48.549.csv
260,20,,1.0,0.0,2625337302-355866.jpg,2425492472-343825.jpg,1.0,,,,A389RPZ5TJZQ7D_2022-12-12_10h12.54.952.csv
261,21,,1.0,1.0,2898624426-291546.jpg,2864902304-137862.jpg,3.0,,,,A389RPZ5TJZQ7D_2022-12-12_10h12.54.952.csv
262,22,,1.0,2.0,2238516618-25604.jpg,2238573549-110485.jpg,1.0,,,,A389RPZ5TJZQ7D_2022-12-12_10h12.54.952.csv
263,23,,1.0,3.0,2238429999-90218.jpg,2901951459-144433.jpg,2.0,,,,A389RPZ5TJZQ7D_2022-12-12_10h12.54.952.csv
264,24,,1.0,4.0,2238480434-93829.jpg,2238479903-19596.jpg,3.0,,,,A389RPZ5TJZQ7D_2022-12-12_10h12.54.952.csv
265,25,,1.0,5.0,2883255450-215311.jpg,2868485399-139476.jpg,2.0,,,,A389RPZ5TJZQ7D_2022-12-12_10h12.54.952.csv
266,26,,1.0,6.0,2238584869-113153.jpg,2981241419-145844.jpg,2.0,,,,A389RPZ5TJZQ7D_2022-12-12_10h12.54.952.csv
267,27,,1.0,7.0,2862691449-137104.jpg,2238540598-30035.jpg,1.0,,,,A389RPZ5TJZQ7D_2022-12-12_10h12.54.952.csv
268,28,left,1.0,8.0,left.jpg,,,left,1.832799999,,A389RPZ5TJZQ7D_2022-12-12_10h12.54.952.csv
269,29,,1.0,9.0,2868475410-213219.jpg,2238216693-10721.jpg,1.0,,,,A389RPZ5TJZQ7D_2022-12-12_10h12.54.952.csv
270,30,,1.0,10.0,2460547467-349421.jpg,2238554179-106663.jpg,3.0,,,,A389RPZ5TJZQ7D_2022-12-12_10h12.54.952.csv
271,31,,1.0,11.0,2898633480-217190.jpg,2986450334-147216.jpg,2.0,,,,A389RPZ5TJZQ7D_2022-12-12_10h12.54.952.csv
272,32,,1.0,12.0,2964224310-219527.jpg,2238490590-169598.jpg,3.0,,,,A389RPZ5TJZQ7D_2022-12-12_10h12.54.952.csv
273,33,,1.0,13.0,2883255450-215309.jpg,2868476439-138927.jpg,2.0,,,,A389RPZ5TJZQ7D_2022-12-12_10h12.54.952.csv
274,34,,1.0,14.0,2446758985-197609.jpg,2984618344-146295.jpg,3.0,,,,A389RPZ5TJZQ7D_2022-12-12_10h12.54.952.csv
275,35,,1.0,15.0,2238561223-33794.jpg,2238506233-23904.jpg,1.0,,,,A389RPZ5TJZQ7D_2022-12-12_10h12.54.952.csv
276,36,,1.0,16.0,2274829821-263682.jpg,2862687442-360837.jpg,3.0,,,,A389RPZ5TJZQ7D_2022-12-12_10h12.54.952.csv
277,37,right,1.0,17.0,right.jpg,,,right,1.5884,,A389RPZ5TJZQ7D_2022-12-12_10h12.54.952.csv
278,38,,1.0,18.0,2986400320-221190.jpg,2238538133-29662.jpg,3.0,,,,A389RPZ5TJZQ7D_2022-12-12_10h12.54.952.csv
279,39,,1.0,19.0,2964213381-294061.jpg,2981234334-145491.jpg,2.0,,,,A389RPZ5TJZQ7D_2022-12-12_10h12.54.952.csv
280,40,,1.0,20.0,2446760940-198145.jpg,2449443300-198739.jpg,1.0,,,,A389RPZ5TJZQ7D_2022-12-12_10h12.54.952.csv
281,41,,1.0,21.0,2238129579-80916.jpg,2460547477-349426.jpg,1.0,,,,A389RPZ5TJZQ7D_2022-12-12_10h12.54.952.csv
282,42,,1.0,22.0,2512876023-52283.jpg,2898636443-69154.jpg,2.0,,,,A389RPZ5TJZQ7D_2022-12-12_10h12.54.952.csv
283,43,,1.0,23.0,2868485396-288511.jpg,2868470456-287597.jpg,1.0,,,,A389RPZ5TJZQ7D_2022-12-12_10h12.54.952.csv
284,44,,1.0,24.0,2592380138-56727.jpg,2430664847-345753.jpg,2.0,,,,A389RPZ5TJZQ7D_2022-12-12_10h12.54.952.csv
285,45,,1.0,25.0,2898626385-216899.jpg,2449442365-198476.jpg,2.0,,,,A389RPZ5TJZQ7D_2022-12-12_10h12.54.952.csv
286,46,,1.0,26.0,2898632385-217138.jpg,2460547992-349586.jpg,3.0,,,,A389RPZ5TJZQ7D_2022-12-12_10h12.54.952.csv
287,47,,1.0,27.0,2964213381-294060.jpg,2238520921-248323.jpg,2.0,,,,A389RPZ5TJZQ7D_2022-12-12_10h12.54.952.csv
288,48,,1.0,28.0,2446760524-123999.jpg,2446760621-272102.jpg,1.0,,,,A389RPZ5TJZQ7D_2022-12-12_10h12.54.952.csv
289,49,,1.0,29.0,2449442529-124446.jpg,2864911339-138231.jpg,3.0,,,,A389RPZ5TJZQ7D_2022-12-12_10h12.54.952.csv
290,50,,1.0,30.0,2964209380-218956.jpg,2868488456-288710.jpg,1.0,,,,A389RPZ5TJZQ7D_2022-12-12_10h12.54.952.csv
291,51,right,1.0,31.0,right.jpg,,,right,1.825,,A389RPZ5TJZQ7D_2022-12-12_10h12.54.952.csv
292,52,,1.0,32.0,2238499155-170911.jpg,2238373603-13733.jpg,3.0,,,,A389RPZ5TJZQ7D_2022-12-12_10h12.54.952.csv
293,53,,1.0,33.0,2883272438-68133.jpg,2901936369-143233.jpg,2.0,,,,A389RPZ5TJZQ7D_2022-12-12_10h12.54.952.csv
294,54,,1.0,34.0,2579432576-279079.jpg,2446760226-272006.jpg,2.0,,,,A389RPZ5TJZQ7D_2022-12-12_10h12.54.952.csv
295,55,,1.0,35.0,2898632385-217137.jpg,2238360884-87525.jpg,1.0,,,,A389RPZ5TJZQ7D_2022-12-12_10h12.54.952.csv
296,56,,1.0,36.0,2238126735-154721.jpg,2575122854-130480.jpg,2.0,,,,A389RPZ5TJZQ7D_2022-12-12_10h12.54.952.csv
297,57,,1.0,37.0,2901941426-292805.jpg,2868488422-363715.jpg,1.0,,,,A389RPZ5TJZQ7D_2022-12-12_10h12.54.952.csv
298,58,,1.0,38.0,2901934573-69337.jpg,2901936407-367476.jpg,3.0,,,,A389RPZ5TJZQ7D_2022-12-12_10h12.54.952.csv
299,59,,1.0,39.0,2238496457-319749.jpg,2460547467-349422.jpg,3.0,,,,A389RPZ5TJZQ7D_2022-12-12_10h12.54.952.csv
300,60,,1.0,40.0,2864909447-362146.jpg,2874303453-66056.jpg,3.0,,,,A389RPZ5TJZQ7D_2022-12-12_10h12.54.952.csv
301,61,,1.0,41.0,2331570830-189984.jpg,2446760483-49429.jpg,1.0,,,,A389RPZ5TJZQ7D_2022-12-12_10h12.54.952.csv
302,62,left,1.0,42.0,left.jpg,,,left,1.738200001,,A389RPZ5TJZQ7D_2022-12-12_10h12.54.952.csv
303,63,,1.0,43.0,2238584018-38513.jpg,2898633321-291943.jpg,2.0,,,,A389RPZ5TJZQ7D_2022-12-12_10h12.54.952.csv
304,64,,1.0,44.0,2238521193-26286.jpg,2874301437-363905.jpg,2.0,,,,A389RPZ5TJZQ7D_2022-12-12_10h12.54.952.csv
305,65,,1.0,45.0,2238471391-240918.jpg,2868470400-212889.jpg,1.0,,,,A389RPZ5TJZQ7D_2022-12-12_10h12.54.952.csv
306,66,,1.0,46.0,2452380166-273109.jpg,2452380171-273112.jpg,1.0,,,,A389RPZ5TJZQ7D_2022-12-12_10h12.54.952.csv
307,67,,1.0,47.0,2238550049-105691.jpg,2449443271-272729.jpg,2.0,,,,A389RPZ5TJZQ7D_2022-12-12_10h12.54.952.csv
308,68,,1.0,48.0,2898635427-367120.jpg,2901936309-143207.jpg,3.0,,,,A389RPZ5TJZQ7D_2022-12-12_10h12.54.952.csv
309,69,,1.0,49.0,2238375302-311538.jpg,2592380255-205552.jpg,1.0,,,,A389RPZ5TJZQ7D_2022-12-12_10h12.54.952.csv
310,70,,1.0,50.0,2964216465-219242.jpg,2446760917-347439.jpg,3.0,,,,A389RPZ5TJZQ7D_2022-12-12_10h12.54.952.csv
311,71,,1.0,51.0,2901939379-143479.jpg,2864909422-362141.jpg,3.0,,,,A389RPZ5TJZQ7D_2022-12-12_10h12.54.952.csv
312,72,left,1.0,52.0,left.jpg,,,left,1.6946,,A389RPZ5TJZQ7D_2022-12-12_10h12.54.952.csv
313,73,,1.0,53.0,2901938432-367627.jpg,2579432708-56394.jpg,1.0,,,,A389RPZ5TJZQ7D_2022-12-12_10h12.54.952.csv
314,74,,1.0,54.0,2981231446-294731.jpg,2417207297-342139.jpg,3.0,,,,A389RPZ5TJZQ7D_2022-12-12_10h12.54.952.csv
315,75,,1.0,55.0,2964218374-144968.jpg,2238411877-313125.jpg,1.0,,,,A389RPZ5TJZQ7D_2022-12-12_10h12.54.952.csv
316,76,,1.0,56.0,2864906345-212360.jpg,2986397365-221133.jpg,1.0,,,,A389RPZ5TJZQ7D_2022-12-12_10h12.54.952.csv
317,77,,1.0,57.0,2986408352-371293.jpg,2446759580-197801.jpg,2.0,,,,A389RPZ5TJZQ7D_2022-12-12_10h12.54.952.csv
318,78,,1.0,58.0,2994405328-74628.jpg,2883273443-68192.jpg,3.0,,,,A389RPZ5TJZQ7D_2022-12-12_10h12.54.952.csv
319,79,,1.0,59.0,2883254439-140941.jpg,2417207511-266975.jpg,3.0,,,,A389RPZ5TJZQ7D_2022-12-12_10h12.54.952.csv
320,80,,1.0,60.0,2238575092-334269.jpg,2860304305-210777.jpg,2.0,,,,A389RPZ5TJZQ7D_2022-12-12_10h12.54.952.csv
321,81,,1.0,61.0,2575964140-205050.jpg,2238547522-328488.jpg,2.0,,,,A389RPZ5TJZQ7D_2022-12-12_10h12.54.952.csv
322,82,,1.0,62.0,2446759803-49249.jpg,2592380177-354629.jpg,1.0,,,,A389RPZ5TJZQ7D_2022-12-12_10h12.54.952.csv
323,83,,1.0,63.0,2898617468-68274.jpg,2238585512-336576.jpg,2.0,,,,A389RPZ5TJZQ7D_2022-12-12_10h12.54.952.csv
324,84,,1.0,64.0,2883254439-140940.jpg,2812983311-281946.jpg,3.0,,,,A389RPZ5TJZQ7D_2022-12-12_10h12.54.952.csv
325,20,,1.0,0.0,2592380138-56727.jpg,2986419351-296471.jpg,1.0,,,,AIXO7JFFSBR5O_2022-12-12_11h49.52.553.csv
326,21,,1.0,1.0,2449442529-124446.jpg,2238481610-168214.jpg,1.0,,,,AIXO7JFFSBR5O_2022-12-12_11h49.52.553.csv
327,22,,1.0,2.0,2238480434-93829.jpg,2238479903-19596.jpg,3.0,,,,AIXO7JFFSBR5O_2022-12-12_11h49.52.553.csv
328,23,,1.0,3.0,2883254439-140941.jpg,2237965109-79314.jpg,2.0,,,,AIXO7JFFSBR5O_2022-12-12_11h49.52.553.csv
329,24,,1.0,4.0,2579432576-279079.jpg,2458348144-125787.jpg,3.0,,,,AIXO7JFFSBR5O_2022-12-12_11h49.52.553.csv
330,25,,1.0,5.0,2238429999-90218.jpg,2901951459-144433.jpg,2.0,,,,AIXO7JFFSBR5O_2022-12-12_11h49.52.553.csv
331,26,,1.0,6.0,2238129579-80916.jpg,2898618444-142233.jpg,2.0,,,,AIXO7JFFSBR5O_2022-12-12_11h49.52.553.csv
332,27,,1.0,7.0,2446760940-198145.jpg,2449443300-198739.jpg,1.0,,,,AIXO7JFFSBR5O_2022-12-12_11h49.52.553.csv
333,28,right,1.0,8.0,right.jpg,,,right,1.2537,,AIXO7JFFSBR5O_2022-12-12_11h49.52.553.csv
334,29,,1.0,9.0,2898626385-216899.jpg,2898618440-216545.jpg,3.0,,,,AIXO7JFFSBR5O_2022-12-12_11h49.52.553.csv
335,30,,1.0,10.0,2901938432-367627.jpg,2424122568-45517.jpg,3.0,,,,AIXO7JFFSBR5O_2022-12-12_11h49.52.553.csv
336,31,,1.0,11.0,2868485396-288511.jpg,2868472420-213024.jpg,2.0,,,,AIXO7JFFSBR5O_2022-12-12_11h49.52.553.csv
337,32,,1.0,12.0,2981231446-294731.jpg,2238568685-183597.jpg,2.0,,,,AIXO7JFFSBR5O_2022-12-12_11h49.52.553.csv
338,33,,1.0,13.0,2446758985-197609.jpg,2898633421-291973.jpg,1.0,,,,AIXO7JFFSBR5O_2022-12-12_11h49.52.553.csv
339,34,,1.0,14.0,2901939379-143479.jpg,2986450334-147215.jpg,1.0,,,,AIXO7JFFSBR5O_2022-12-12_11h49.52.553.csv
340,35,,1.0,15.0,2274829821-263682.jpg,2446758985-197610.jpg,2.0,,,,AIXO7JFFSBR5O_2022-12-12_11h49.52.553.csv
341,36,,1.0,16.0,2864909447-362146.jpg,2874303453-66056.jpg,3.0,,,,AIXO7JFFSBR5O_2022-12-12_11h49.52.553.csv
342,37,,1.0,17.0,2898624426-291546.jpg,2986402377-371266.jpg,1.0,,,,AIXO7JFFSBR5O_2022-12-12_11h49.52.553.csv
343,38,,1.0,18.0,2986408352-371293.jpg,2868488422-363713.jpg,1.0,,,,AIXO7JFFSBR5O_2022-12-12_11h49.52.553.csv
344,39,,1.0,19.0,2238496457-319749.jpg,2592380234-131135.jpg,2.0,,,,AIXO7JFFSBR5O_2022-12-12_11h49.52.553.csv
345,40,,1.0,20.0,2901941426-292805.jpg,2868488422-363715.jpg,1.0,,,,AIXO7JFFSBR5O_2022-12-12_11h49.52.553.csv
346,41,,1.0,21.0,2964213381-294060.jpg,2898631359-142720.jpg,1.0,,,,AIXO7JFFSBR5O_2022-12-12_11h49.52.553.csv
347,42,,1.0,22.0,2883254439-140940.jpg,2452380166-273110.jpg,1.0,,,,AIXO7JFFSBR5O_2022-12-12_11h49.52.553.csv
348,43,left,1.0,23.0,left.jpg,,,left,1.1221,,AIXO7JFFSBR5O_2022-12-12_11h49.52.553.csv
349,44,,1.0,24.0,2883255450-215309.jpg,2238429999-90216.jpg,1.0,,,,AIXO7JFFSBR5O_2022-12-12_11h49.52.553.csv
350,45,,1.0,25.0,2898617468-68274.jpg,2862684406-285700.jpg,3.0,,,,AIXO7JFFSBR5O_2022-12-12_11h49.52.553.csv
351,46,right,1.0,26.0,right.jpg,,,right,1.0826,,AIXO7JFFSBR5O_2022-12-12_11h49.52.553.csv
352,47,,1.0,27.0,2452380166-273109.jpg,2452380171-273112.jpg,1.0,,,,AIXO7JFFSBR5O_2022-12-12_11h49.52.553.csv
353,48,,1.0,28.0,2625337302-355866.jpg,2598726160-205998.jpg,3.0,,,,AIXO7JFFSBR5O_2022-12-12_11h49.52.553.csv
354,49,,1.0,29.0,2238584869-113153.jpg,2864901420-212147.jpg,1.0,,,,AIXO7JFFSBR5O_2022-12-12_11h49.52.553.csv
355,50,,1.0,30.0,2898633480-217190.jpg,2237858043-1434.jpg,3.0,,,,AIXO7JFFSBR5O_2022-12-12_11h49.52.553.csv
356,51,,1.0,31.0,2238575092-334269.jpg,2860304305-210777.jpg,2.0,,,,AIXO7JFFSBR5O_2022-12-12_11h49.52.553.csv
357,52,,1.0,32.0,2964218374-144968.jpg,2238525773-27014.jpg,3.0,,,,AIXO7JFFSBR5O_2022-12-12_11h49.52.553.csv
358,53,,1.0,33.0,2898635427-367120.jpg,2901936309-143207.jpg,3.0,,,,AIXO7JFFSBR5O_2022-12-12_11h49.52.553.csv
359,54,,1.0,34.0,2986400320-221190.jpg,2989727350-222011.jpg,1.0,,,,AIXO7JFFSBR5O_2022-12-12_11h49.52.553.csv
360,55,,1.0,35.0,2238550049-105691.jpg,2449443271-272729.jpg,2.0,,,,AIXO7JFFSBR5O_2022-12-12_11h49.52.553.csv
361,56,,1.0,36.0,2460547467-349421.jpg,2238554179-106663.jpg,3.0,,,,AIXO7JFFSBR5O_2022-12-12_11h49.52.553.csv
362,57,,1.0,37.0,2238126735-154721.jpg,2901951430-218724.jpg,3.0,,,,AIXO7JFFSBR5O_2022-12-12_11h49.52.553.csv
363,58,,1.0,38.0,2994405328-74628.jpg,2883273443-68192.jpg,3.0,,,,AIXO7JFFSBR5O_2022-12-12_11h49.52.553.csv
364,59,,1.0,39.0,2964224310-219527.jpg,2238490590-169598.jpg,3.0,,,,AIXO7JFFSBR5O_2022-12-12_11h49.52.553.csv
365,60,,1.0,40.0,2964209380-218956.jpg,2898631429-142736.jpg,2.0,,,,AIXO7JFFSBR5O_2022-12-12_11h49.52.553.csv
366,61,,1.0,41.0,2883255450-215311.jpg,2868485399-139476.jpg,2.0,,,,AIXO7JFFSBR5O_2022-12-12_11h49.52.553.csv
367,62,right,1.0,42.0,right.jpg,,,right,1.2237,,AIXO7JFFSBR5O_2022-12-12_11h49.52.553.csv
368,63,,1.0,43.0,2238471391-240918.jpg,2986399339-146857.jpg,3.0,,,,AIXO7JFFSBR5O_2022-12-12_11h49.52.553.csv
369,64,,1.0,44.0,2238521193-26286.jpg,2874301437-363905.jpg,2.0,,,,AIXO7JFFSBR5O_2022-12-12_11h49.52.553.csv
370,65,,1.0,45.0,2883272438-68133.jpg,2237949408-4018.jpg,1.0,,,,AIXO7JFFSBR5O_2022-12-12_11h49.52.553.csv
371,66,,1.0,46.0,2238499155-170911.jpg,2452380832-348593.jpg,2.0,,,,AIXO7JFFSBR5O_2022-12-12_11h49.52.553.csv
372,67,right,1.0,47.0,right.jpg,,,right,1.3019,,AIXO7JFFSBR5O_2022-12-12_11h49.52.553.csv
373,68,,1.0,48.0,2238561223-33794.jpg,2883271323-68049.jpg,3.0,,,,AIXO7JFFSBR5O_2022-12-12_11h49.52.553.csv
374,69,,1.0,49.0,2446759803-49249.jpg,2592380177-354629.jpg,1.0,,,,AIXO7JFFSBR5O_2022-12-12_11h49.52.553.csv
375,70,,1.0,50.0,2238584018-38513.jpg,2449443163-50093.jpg,1.0,,,,AIXO7JFFSBR5O_2022-12-12_11h49.52.553.csv
376,71,,1.0,51.0,2238516618-25604.jpg,2238573549-110485.jpg,1.0,,,,AIXO7JFFSBR5O_2022-12-12_11h49.52.553.csv
377,72,,1.0,52.0,2964213381-294061.jpg,2989721347-371917.jpg,3.0,,,,AIXO7JFFSBR5O_2022-12-12_11h49.52.553.csv
378,73,,1.0,53.0,2901934573-69337.jpg,2238345946-235007.jpg,2.0,,,,AIXO7JFFSBR5O_2022-12-12_11h49.52.553.csv
379,74,,1.0,54.0,2512876023-52283.jpg,2864908323-64106.jpg,1.0,,,,AIXO7JFFSBR5O_2022-12-12_11h49.52.553.csv
380,75,,1.0,55.0,2238375302-311538.jpg,2460547508-51571.jpg,3.0,,,,AIXO7JFFSBR5O_2022-12-12_11h49.52.553.csv
381,76,,1.0,56.0,2964216465-219242.jpg,2512875796-274856.jpg,2.0,,,,AIXO7JFFSBR5O_2022-12-12_11h49.52.553.csv
382,77,,1.0,57.0,2575964140-205050.jpg,2238547522-328488.jpg,2.0,,,,AIXO7JFFSBR5O_2022-12-12_11h49.52.553.csv
383,78,,1.0,58.0,2898632385-217137.jpg,2238480803-19739.jpg,2.0,,,,AIXO7JFFSBR5O_2022-12-12_11h49.52.553.csv
384,79,,1.0,59.0,2862691449-137104.jpg,2238540598-30035.jpg,1.0,,,,AIXO7JFFSBR5O_2022-12-12_11h49.52.553.csv
385,80,,1.0,60.0,2868475410-213219.jpg,2575964140-205051.jpg,2.0,,,,AIXO7JFFSBR5O_2022-12-12_11h49.52.553.csv
386,81,,1.0,61.0,2864906345-212360.jpg,2238087237-303447.jpg,2.0,,,,AIXO7JFFSBR5O_2022-12-12_11h49.52.553.csv
387,82,,1.0,62.0,2446760524-123999.jpg,2238552469-106359.jpg,2.0,,,,AIXO7JFFSBR5O_2022-12-12_11h49.52.553.csv
388,83,,1.0,63.0,2898632385-217138.jpg,2460547992-349586.jpg,3.0,,,,AIXO7JFFSBR5O_2022-12-12_11h49.52.553.csv
389,84,,1.0,64.0,2331570830-189984.jpg,2458348012-349114.jpg,3.0,,,,AIXO7JFFSBR5O_2022-12-12_11h49.52.553.csv
390,20,,1.0,0.0,2901939379-143479.jpg,2449443292-348022.jpg,2.0,,,,A2TTYORXHJ7I23_2022-12-12_09h43.50.224.csv
391,21,,1.0,1.0,2883272438-68133.jpg,2592380136-279476.jpg,3.0,,,,A2TTYORXHJ7I23_2022-12-12_09h43.50.224.csv
392,22,,1.0,2.0,2446760524-123999.jpg,2238539138-29878.jpg,3.0,,,,A2TTYORXHJ7I23_2022-12-12_09h43.50.224.csv
393,23,,1.0,3.0,2901941426-292805.jpg,2238510189-98616.jpg,2.0,,,,A2TTYORXHJ7I23_2022-12-12_09h43.50.224.csv
394,24,,1.0,4.0,2898632385-217138.jpg,2575120738-55529.jpg,1.0,,,,A2TTYORXHJ7I23_2022-12-12_09h43.50.224.csv
395,25,,1.0,5.0,2452380166-273109.jpg,2452380171-273112.jpg,1.0,,,,A2TTYORXHJ7I23_2022-12-12_09h43.50.224.csv
396,26,,1.0,6.0,2862691449-137104.jpg,2238540598-30035.jpg,1.0,,,,A2TTYORXHJ7I23_2022-12-12_09h43.50.224.csv
397,27,,1.0,7.0,2986408352-371293.jpg,2446759580-197801.jpg,2.0,,,,A2TTYORXHJ7I23_2022-12-12_09h43.50.224.csv
398,28,,1.0,8.0,2449442529-124446.jpg,2238481610-168214.jpg,1.0,,,,A2TTYORXHJ7I23_2022-12-12_09h43.50.224.csv
399,29,,1.0,9.0,2446760940-198145.jpg,2446760692-347392.jpg,3.0,,,,A2TTYORXHJ7I23_2022-12-12_09h43.50.224.csv
400,30,left,1.0,10.0,left.jpg,,,left,1.0539,,A2TTYORXHJ7I23_2022-12-12_09h43.50.224.csv
401,31,,1.0,11.0,2460547467-349421.jpg,2238470079-92499.jpg,2.0,,,,A2TTYORXHJ7I23_2022-12-12_09h43.50.224.csv
402,32,,1.0,12.0,2238499155-170911.jpg,2446760621-272103.jpg,1.0,,,,A2TTYORXHJ7I23_2022-12-12_09h43.50.224.csv
403,33,,1.0,13.0,2898617468-68274.jpg,2862684406-285700.jpg,3.0,,,,A2TTYORXHJ7I23_2022-12-12_09h43.50.224.csv
404,34,,1.0,14.0,2575964140-205050.jpg,2238547522-328488.jpg,2.0,,,,A2TTYORXHJ7I23_2022-12-12_09h43.50.224.csv
405,35,,1.0,15.0,2592380138-56727.jpg,2430664847-345753.jpg,2.0,,,,A2TTYORXHJ7I23_2022-12-12_09h43.50.224.csv
406,36,,1.0,16.0,2964216465-219242.jpg,2446760917-347439.jpg,3.0,,,,A2TTYORXHJ7I23_2022-12-12_09h43.50.224.csv
407,37,,1.0,17.0,2898632385-217137.jpg,2864904453-63932.jpg,3.0,,,,A2TTYORXHJ7I23_2022-12-12_09h43.50.224.csv
408,38,right,1.0,18.0,right.jpg,,,right,1.5075,,A2TTYORXHJ7I23_2022-12-12_09h43.50.224.csv
409,39,,1.0,19.0,2883254439-140941.jpg,2417207511-266975.jpg,3.0,,,,A2TTYORXHJ7I23_2022-12-12_09h43.50.224.csv
410,40,,1.0,20.0,2238575092-334269.jpg,2592380285-205564.jpg,1.0,,,,A2TTYORXHJ7I23_2022-12-12_09h43.50.224.csv
411,41,,1.0,21.0,2898626385-216899.jpg,2449442365-198476.jpg,2.0,,,,A2TTYORXHJ7I23_2022-12-12_09h43.50.224.csv
412,42,,1.0,22.0,2868485396-288511.jpg,2238380314-88261.jpg,3.0,,,,A2TTYORXHJ7I23_2022-12-12_09h43.50.224.csv
413,43,,1.0,23.0,2994405328-74628.jpg,2417206274-118542.jpg,1.0,,,,A2TTYORXHJ7I23_2022-12-12_09h43.50.224.csv
414,44,,1.0,24.0,2898635427-367120.jpg,2237941457-301342.jpg,2.0,,,,A2TTYORXHJ7I23_2022-12-12_09h43.50.224.csv
415,45,,1.0,25.0,2964213381-294060.jpg,2898631359-142720.jpg,1.0,,,,A2TTYORXHJ7I23_2022-12-12_09h43.50.224.csv
416,46,,1.0,26.0,2883255450-215311.jpg,2868485399-139476.jpg,2.0,,,,A2TTYORXHJ7I23_2022-12-12_09h43.50.224.csv
417,47,,1.0,27.0,2883255450-215309.jpg,2238562336-256366.jpg,3.0,,,,A2TTYORXHJ7I23_2022-12-12_09h43.50.224.csv
418,48,,1.0,28.0,2512876023-52283.jpg,2898636443-69154.jpg,2.0,,,,A2TTYORXHJ7I23_2022-12-12_09h43.50.224.csv
419,49,,1.0,29.0,2901934573-69337.jpg,2901936407-367476.jpg,3.0,,,,A2TTYORXHJ7I23_2022-12-12_09h43.50.224.csv
420,50,,1.0,30.0,2238471391-240918.jpg,2868470400-212889.jpg,1.0,,,,A2TTYORXHJ7I23_2022-12-12_09h43.50.224.csv
421,51,left,1.0,31.0,left.jpg,,,left,1.5728,,A2TTYORXHJ7I23_2022-12-12_09h43.50.224.csv
422,52,,1.0,32.0,2898624426-291546.jpg,2864902304-137862.jpg,3.0,,,,A2TTYORXHJ7I23_2022-12-12_09h43.50.224.csv
423,53,,1.0,33.0,2868475410-213219.jpg,2238436851-238821.jpg,3.0,,,,A2TTYORXHJ7I23_2022-12-12_09h43.50.224.csv
424,54,,1.0,34.0,2864906345-212360.jpg,2238087237-303447.jpg,2.0,,,,A2TTYORXHJ7I23_2022-12-12_09h43.50.224.csv
425,55,,1.0,35.0,2579432576-279079.jpg,2446760226-272006.jpg,2.0,,,,A2TTYORXHJ7I23_2022-12-12_09h43.50.224.csv
426,56,,1.0,36.0,2446758985-197609.jpg,2898633421-291973.jpg,1.0,,,,A2TTYORXHJ7I23_2022-12-12_09h43.50.224.csv
427,57,,1.0,37.0,2238550049-105691.jpg,2238482972-317759.jpg,1.0,,,,A2TTYORXHJ7I23_2022-12-12_09h43.50.224.csv
428,58,,1.0,38.0,2964213381-294061.jpg,2238433340-164524.jpg,1.0,,,,A2TTYORXHJ7I23_2022-12-12_09h43.50.224.csv
429,59,,1.0,39.0,2238126735-154721.jpg,2901951430-218724.jpg,3.0,,,,A2TTYORXHJ7I23_2022-12-12_09h43.50.224.csv
430,60,,1.0,40.0,2331570830-189984.jpg,2449442529-124445.jpg,2.0,,,,A2TTYORXHJ7I23_2022-12-12_09h43.50.224.csv
431,61,left,1.0,41.0,left.jpg,,,left,1.1665,,A2TTYORXHJ7I23_2022-12-12_09h43.50.224.csv
432,62,,1.0,42.0,2625337302-355866.jpg,2598726160-205998.jpg,3.0,,,,A2TTYORXHJ7I23_2022-12-12_09h43.50.224.csv
433,63,,1.0,43.0,2883254439-140940.jpg,2812983311-281946.jpg,3.0,,,,A2TTYORXHJ7I23_2022-12-12_09h43.50.224.csv
434,64,,1.0,44.0,2238584869-113153.jpg,2864901420-212147.jpg,1.0,,,,A2TTYORXHJ7I23_2022-12-12_09h43.50.224.csv
435,65,,1.0,45.0,2864909447-362146.jpg,2238555799-106905.jpg,2.0,,,,A2TTYORXHJ7I23_2022-12-12_09h43.50.224.csv
436,66,,1.0,46.0,2238584018-38513.jpg,2898633321-291943.jpg,2.0,,,,A2TTYORXHJ7I23_2022-12-12_09h43.50.224.csv
437,67,,1.0,47.0,2238480434-93829.jpg,2238479903-19596.jpg,3.0,,,,A2TTYORXHJ7I23_2022-12-12_09h43.50.224.csv
438,68,,1.0,48.0,2964209380-218956.jpg,2898631429-142736.jpg,2.0,,,,A2TTYORXHJ7I23_2022-12-12_09h43.50.224.csv
439,69,,1.0,49.0,2238429999-90218.jpg,2986448334-147157.jpg,1.0,,,,A2TTYORXHJ7I23_2022-12-12_09h43.50.224.csv
440,70,,1.0,50.0,2238521193-26286.jpg,2825712309-134957.jpg,1.0,,,,A2TTYORXHJ7I23_2022-12-12_09h43.50.224.csv
441,71,,1.0,51.0,2964224310-219527.jpg,2964213441-294073.jpg,2.0,,,,A2TTYORXHJ7I23_2022-12-12_09h43.50.224.csv
442,72,left,1.0,52.0,left.jpg,,,left,1.1331,,A2TTYORXHJ7I23_2022-12-12_09h43.50.224.csv
443,73,,1.0,53.0,2986400320-221190.jpg,2238470979-92615.jpg,2.0,,,,A2TTYORXHJ7I23_2022-12-12_09h43.50.224.csv
444,74,,1.0,54.0,2964218374-144968.jpg,2238525773-27014.jpg,3.0,,,,A2TTYORXHJ7I23_2022-12-12_09h43.50.224.csv
445,75,,1.0,55.0,2274829821-263682.jpg,2862687442-360837.jpg,3.0,,,,A2TTYORXHJ7I23_2022-12-12_09h43.50.224.csv
446,76,,1.0,56.0,2238496457-319749.jpg,2238570142-333223.jpg,1.0,,,,A2TTYORXHJ7I23_2022-12-12_09h43.50.224.csv
447,77,,1.0,57.0,2238516618-25604.jpg,2238573549-110485.jpg,1.0,,,,A2TTYORXHJ7I23_2022-12-12_09h43.50.224.csv
448,78,,1.0,58.0,2898633480-217190.jpg,2237858043-1434.jpg,3.0,,,,A2TTYORXHJ7I23_2022-12-12_09h43.50.224.csv
449,79,,1.0,59.0,2446759803-49249.jpg,2238498786-244797.jpg,3.0,,,,A2TTYORXHJ7I23_2022-12-12_09h43.50.224.csv
450,80,,1.0,60.0,2901938432-367627.jpg,2579432708-56394.jpg,1.0,,,,A2TTYORXHJ7I23_2022-12-12_09h43.50.224.csv
451,81,,1.0,61.0,2238129579-80916.jpg,2460547477-349426.jpg,1.0,,,,A2TTYORXHJ7I23_2022-12-12_09h43.50.224.csv
452,82,,1.0,62.0,2238561223-33794.jpg,2592380177-354626.jpg,2.0,,,,A2TTYORXHJ7I23_2022-12-12_09h43.50.224.csv
453,83,,1.0,63.0,2981231446-294731.jpg,2238568685-183597.jpg,2.0,,,,A2TTYORXHJ7I23_2022-12-12_09h43.50.224.csv
454,84,,1.0,64.0,2238375302-311538.jpg,2592380255-205552.jpg,1.0,,,,A2TTYORXHJ7I23_2022-12-12_09h43.50.224.csv
455,20,,1.0,0.0,2868485396-288511.jpg,2868470456-287597.jpg,1.0,,,,A3SFP9VSFJY2YW_2022-12-12_12h07.08.411.csv
456,21,,1.0,1.0,2868475410-213219.jpg,2238216693-10721.jpg,1.0,,,,A3SFP9VSFJY2YW_2022-12-12_12h07.08.411.csv
457,22,,1.0,2.0,2238499155-170911.jpg,2446760621-272103.jpg,1.0,,,,A3SFP9VSFJY2YW_2022-12-12_12h07.08.411.csv
458,23,,1.0,3.0,2446758985-197609.jpg,2898633421-291973.jpg,1.0,,,,A3SFP9VSFJY2YW_2022-12-12_12h07.08.411.csv
459,24,,1.0,4.0,2986408352-371293.jpg,2446759580-197801.jpg,2.0,,,,A3SFP9VSFJY2YW_2022-12-12_12h07.08.411.csv
460,25,,1.0,5.0,2238521193-26286.jpg,2825712309-134957.jpg,1.0,,,,A3SFP9VSFJY2YW_2022-12-12_12h07.08.411.csv
461,26,,1.0,6.0,2238126735-154721.jpg,2856919327-359676.jpg,1.0,,,,A3SFP9VSFJY2YW_2022-12-12_12h07.08.411.csv
462,27,,1.0,7.0,2994405328-74628.jpg,2883273443-68192.jpg,3.0,,,,A3SFP9VSFJY2YW_2022-12-12_12h07.08.411.csv
463,28,,1.0,8.0,2512876023-52283.jpg,2238576267-334532.jpg,3.0,,,,A3SFP9VSFJY2YW_2022-12-12_12h07.08.411.csv
464,29,,1.0,9.0,2883254439-140940.jpg,2575121890-204630.jpg,2.0,,,,A3SFP9VSFJY2YW_2022-12-12_12h07.08.411.csv
465,30,,1.0,10.0,2238575092-334269.jpg,2592380285-205564.jpg,1.0,,,,A3SFP9VSFJY2YW_2022-12-12_12h07.08.411.csv
466,31,,1.0,11.0,2898617468-68274.jpg,2238585512-336576.jpg,2.0,,,,A3SFP9VSFJY2YW_2022-12-12_12h07.08.411.csv
467,32,right,1.0,12.0,right.jpg,,,right,1.2447,,A3SFP9VSFJY2YW_2022-12-12_12h07.08.411.csv
468,33,,1.0,13.0,2592380138-56727.jpg,2430664847-345753.jpg,2.0,,,,A3SFP9VSFJY2YW_2022-12-12_12h07.08.411.csv
469,34,,1.0,14.0,2446760940-198145.jpg,2446760692-347392.jpg,3.0,,,,A3SFP9VSFJY2YW_2022-12-12_12h07.08.411.csv
470,35,,1.0,15.0,2238129579-80916.jpg,2898618444-142233.jpg,2.0,,,,A3SFP9VSFJY2YW_2022-12-12_12h07.08.411.csv
471,36,right,1.0,16.0,right.jpg,,,right,1.3517,,A3SFP9VSFJY2YW_2022-12-12_12h07.08.411.csv
472,37,,1.0,17.0,2964213381-294061.jpg,2989721347-371917.jpg,3.0,,,,A3SFP9VSFJY2YW_2022-12-12_12h07.08.411.csv
473,38,,1.0,18.0,2238561223-33794.jpg,2238506233-23904.jpg,1.0,,,,A3SFP9VSFJY2YW_2022-12-12_12h07.08.411.csv
474,39,,1.0,19.0,2238471391-240918.jpg,2986399339-146857.jpg,3.0,,,,A3SFP9VSFJY2YW_2022-12-12_12h07.08.411.csv
475,40,,1.0,20.0,2981231446-294731.jpg,2417207297-342139.jpg,3.0,,,,A3SFP9VSFJY2YW_2022-12-12_12h07.08.411.csv
476,41,,1.0,21.0,2238480434-93829.jpg,2238479903-19596.jpg,3.0,,,,A3SFP9VSFJY2YW_2022-12-12_12h07.08.411.csv
477,42,,1.0,22.0,2579432576-279079.jpg,2446760226-272006.jpg,2.0,,,,A3SFP9VSFJY2YW_2022-12-12_12h07.08.411.csv
478,43,,1.0,23.0,2331570830-189984.jpg,2446760483-49429.jpg,1.0,,,,A3SFP9VSFJY2YW_2022-12-12_12h07.08.411.csv
479,44,,1.0,24.0,2898632385-217137.jpg,2238360884-87525.jpg,1.0,,,,A3SFP9VSFJY2YW_2022-12-12_12h07.08.411.csv
480,45,,1.0,25.0,2238429999-90218.jpg,2901951459-144433.jpg,2.0,,,,A3SFP9VSFJY2YW_2022-12-12_12h07.08.411.csv
481,46,,1.0,26.0,2864906345-212360.jpg,2986397365-221133.jpg,1.0,,,,A3SFP9VSFJY2YW_2022-12-12_12h07.08.411.csv
482,47,,1.0,27.0,2986400320-221190.jpg,2238470979-92615.jpg,2.0,,,,A3SFP9VSFJY2YW_2022-12-12_12h07.08.411.csv
483,48,,1.0,28.0,2238496457-319749.jpg,2460547467-349422.jpg,3.0,,,,A3SFP9VSFJY2YW_2022-12-12_12h07.08.411.csv
484,49,,1.0,29.0,2964218374-144968.jpg,2238521157-323782.jpg,2.0,,,,A3SFP9VSFJY2YW_2022-12-12_12h07.08.411.csv
485,50,,1.0,30.0,2625337302-355866.jpg,2425492472-343825.jpg,1.0,,,,A3SFP9VSFJY2YW_2022-12-12_12h07.08.411.csv
486,51,,1.0,31.0,2274829821-263682.jpg,2238570526-257884.jpg,1.0,,,,A3SFP9VSFJY2YW_2022-12-12_12h07.08.411.csv
487,52,,1.0,32.0,2864909447-362146.jpg,2874316384-140749.jpg,1.0,,,,A3SFP9VSFJY2YW_2022-12-12_12h07.08.411.csv
488,53,,1.0,33.0,2862691449-137104.jpg,2238328478-11678.jpg,3.0,,,,A3SFP9VSFJY2YW_2022-12-12_12h07.08.411.csv
489,54,right,1.0,34.0,right.jpg,,,right,0.9929,,A3SFP9VSFJY2YW_2022-12-12_12h07.08.411.csv
490,55,,1.0,35.0,2964216465-219242.jpg,2592380049-131079.jpg,1.0,,,,A3SFP9VSFJY2YW_2022-12-12_12h07.08.411.csv
491,56,left,1.0,36.0,left.jpg,,,left,1.3263,,A3SFP9VSFJY2YW_2022-12-12_12h07.08.411.csv
492,57,,1.0,37.0,2883272438-68133.jpg,2592380136-279476.jpg,3.0,,,,A3SFP9VSFJY2YW_2022-12-12_12h07.08.411.csv
493,58,,1.0,38.0,2883254439-140941.jpg,2237965109-79314.jpg,2.0,,,,A3SFP9VSFJY2YW_2022-12-12_12h07.08.411.csv
494,59,,1.0,39.0,2964209380-218956.jpg,2898617396-291219.jpg,3.0,,,,A3SFP9VSFJY2YW_2022-12-12_12h07.08.411.csv
495,60,,1.0,40.0,2238584018-38513.jpg,2452381442-348755.jpg,3.0,,,,A3SFP9VSFJY2YW_2022-12-12_12h07.08.411.csv
496,61,,1.0,41.0,2449442529-124446.jpg,2238481610-168214.jpg,1.0,,,,A3SFP9VSFJY2YW_2022-12-12_12h07.08.411.csv
497,62,,1.0,42.0,2460547467-349421.jpg,2238470079-92499.jpg,2.0,,,,A3SFP9VSFJY2YW_2022-12-12_12h07.08.411.csv
498,63,,1.0,43.0,2238550049-105691.jpg,2449443271-272729.jpg,2.0,,,,A3SFP9VSFJY2YW_2022-12-12_12h07.08.411.csv
499,64,,1.0,44.0,2901934573-69337.jpg,2901936407-367476.jpg,3.0,,,,A3SFP9VSFJY2YW_2022-12-12_12h07.08.411.csv
500,65,,1.0,45.0,2238584869-113153.jpg,2981241419-145844.jpg,2.0,,,,A3SFP9VSFJY2YW_2022-12-12_12h07.08.411.csv
501,66,,1.0,46.0,2901938432-367627.jpg,2856919327-359675.jpg,2.0,,,,A3SFP9VSFJY2YW_2022-12-12_12h07.08.411.csv
502,67,,1.0,47.0,2901939379-143479.jpg,2864909422-362141.jpg,3.0,,,,A3SFP9VSFJY2YW_2022-12-12_12h07.08.411.csv
503,68,,1.0,48.0,2898633480-217190.jpg,2446760147-347245.jpg,1.0,,,,A3SFP9VSFJY2YW_2022-12-12_12h07.08.411.csv
504,69,,1.0,49.0,2901941426-292805.jpg,2901945303-70125.jpg,3.0,,,,A3SFP9VSFJY2YW_2022-12-12_12h07.08.411.csv
505,70,,1.0,50.0,2898632385-217138.jpg,2460547992-349586.jpg,3.0,,,,A3SFP9VSFJY2YW_2022-12-12_12h07.08.411.csv
506,71,,1.0,51.0,2883255450-215311.jpg,2575964014-130589.jpg,3.0,,,,A3SFP9VSFJY2YW_2022-12-12_12h07.08.411.csv
507,72,,1.0,52.0,2898624426-291546.jpg,2549106844-127878.jpg,2.0,,,,A3SFP9VSFJY2YW_2022-12-12_12h07.08.411.csv
508,73,right,1.0,53.0,right.jpg,,,right,0.9189,,A3SFP9VSFJY2YW_2022-12-12_12h07.08.411.csv
509,74,,1.0,54.0,2575964140-205050.jpg,2238482920-168428.jpg,1.0,,,,A3SFP9VSFJY2YW_2022-12-12_12h07.08.411.csv
510,75,,1.0,55.0,2898635427-367120.jpg,2237941457-301342.jpg,2.0,,,,A3SFP9VSFJY2YW_2022-12-12_12h07.08.411.csv
511,76,,1.0,56.0,2883255450-215309.jpg,2238562336-256366.jpg,3.0,,,,A3SFP9VSFJY2YW_2022-12-12_12h07.08.411.csv
512,77,,1.0,57.0,2898626385-216899.jpg,2449442365-198476.jpg,2.0,,,,A3SFP9VSFJY2YW_2022-12-12_12h07.08.411.csv
513,78,,1.0,58.0,2238516618-25604.jpg,2862686459-136888.jpg,2.0,,,,A3SFP9VSFJY2YW_2022-12-12_12h07.08.411.csv
514,79,,1.0,59.0,2446759803-49249.jpg,2238468265-166556.jpg,2.0,,,,A3SFP9VSFJY2YW_2022-12-12_12h07.08.411.csv
515,80,,1.0,60.0,2238375302-311538.jpg,2460547508-51571.jpg,3.0,,,,A3SFP9VSFJY2YW_2022-12-12_12h07.08.411.csv
516,81,,1.0,61.0,2964213381-294060.jpg,2989724308-73930.jpg,3.0,,,,A3SFP9VSFJY2YW_2022-12-12_12h07.08.411.csv
517,82,,1.0,62.0,2964224310-219527.jpg,2238380178-14011.jpg,1.0,,,,A3SFP9VSFJY2YW_2022-12-12_12h07.08.411.csv
518,83,,1.0,63.0,2452380166-273109.jpg,2592379781-279345.jpg,2.0,,,,A3SFP9VSFJY2YW_2022-12-12_12h07.08.411.csv
519,84,,1.0,64.0,2446760524-123999.jpg,2446760621-272102.jpg,1.0,,,,A3SFP9VSFJY2YW_2022-12-12_12h07.08.411.csv
520,20,,1.0,0.0,2238429999-90218.jpg,2964222378-71332.jpg,3.0,,,,A28K46TA74RQH7_2022-12-12_10h21.32.130.csv
521,21,,1.0,1.0,2898617468-68274.jpg,2512875899-126682.jpg,1.0,,,,A28K46TA74RQH7_2022-12-12_10h21.32.130.csv
522,22,,1.0,2.0,2964218374-144968.jpg,2238411877-313125.jpg,1.0,,,,A28K46TA74RQH7_2022-12-12_10h21.32.130.csv
523,23,,1.0,3.0,2446758985-197609.jpg,2635396318-58409.jpg,2.0,,,,A28K46TA74RQH7_2022-12-12_10h21.32.130.csv
524,24,,1.0,4.0,2452380166-273109.jpg,2592379781-279345.jpg,2.0,,,,A28K46TA74RQH7_2022-12-12_10h21.32.130.csv
525,25,,1.0,5.0,2446759803-49249.jpg,2238498786-244797.jpg,3.0,,,,A28K46TA74RQH7_2022-12-12_10h21.32.130.csv
526,26,,1.0,6.0,2898632385-217138.jpg,2273188118-40829.jpg,2.0,,,,A28K46TA74RQH7_2022-12-12_10h21.32.130.csv
527,27,left,1.0,7.0,left.jpg,,,left,1.0347,,A28K46TA74RQH7_2022-12-12_10h21.32.130.csv
528,28,,1.0,8.0,2883255450-215311.jpg,2575964014-130589.jpg,3.0,,,,A28K46TA74RQH7_2022-12-12_10h21.32.130.csv
529,29,,1.0,9.0,2901941426-292805.jpg,2238510189-98616.jpg,2.0,,,,A28K46TA74RQH7_2022-12-12_10h21.32.130.csv
530,30,,1.0,10.0,2446760524-123999.jpg,2238539138-29878.jpg,3.0,,,,A28K46TA74RQH7_2022-12-12_10h21.32.130.csv
531,31,,1.0,11.0,2864906345-212360.jpg,2994403305-222559.jpg,3.0,,,,A28K46TA74RQH7_2022-12-12_10h21.32.130.csv
532,32,,1.0,12.0,2898633480-217190.jpg,2986450334-147216.jpg,2.0,,,,A28K46TA74RQH7_2022-12-12_10h21.32.130.csv
533,33,,1.0,13.0,2883254439-140941.jpg,2237965109-79314.jpg,2.0,,,,A28K46TA74RQH7_2022-12-12_10h21.32.130.csv
534,34,,1.0,14.0,2964216465-219242.jpg,2446760917-347439.jpg,3.0,,,,A28K46TA74RQH7_2022-12-12_10h21.32.130.csv
535,35,,1.0,15.0,2238521193-26286.jpg,2825712309-134957.jpg,1.0,,,,A28K46TA74RQH7_2022-12-12_10h21.32.130.csv
536,36,,1.0,16.0,2238480434-93829.jpg,2804906319-133082.jpg,1.0,,,,A28K46TA74RQH7_2022-12-12_10h21.32.130.csv
537,37,left,1.0,17.0,left.jpg,,,left,1.2428,,A28K46TA74RQH7_2022-12-12_10h21.32.130.csv
538,38,,1.0,18.0,2238584869-113153.jpg,2986455373-73646.jpg,3.0,,,,A28K46TA74RQH7_2022-12-12_10h21.32.130.csv
539,39,,1.0,19.0,2868475410-213219.jpg,2238436851-238821.jpg,3.0,,,,A28K46TA74RQH7_2022-12-12_10h21.32.130.csv
540,40,,1.0,20.0,2862691449-137104.jpg,2238540598-30035.jpg,1.0,,,,A28K46TA74RQH7_2022-12-12_10h21.32.130.csv
541,41,,1.0,21.0,2579432576-279079.jpg,2446760226-272006.jpg,2.0,,,,A28K46TA74RQH7_2022-12-12_10h21.32.130.csv
542,42,,1.0,22.0,2238550049-105691.jpg,2964219468-71238.jpg,3.0,,,,A28K46TA74RQH7_2022-12-12_10h21.32.130.csv
543,43,,1.0,23.0,2883255450-215309.jpg,2238429999-90216.jpg,1.0,,,,A28K46TA74RQH7_2022-12-12_10h21.32.130.csv
544,44,,1.0,24.0,2964213381-294061.jpg,2238433340-164524.jpg,1.0,,,,A28K46TA74RQH7_2022-12-12_10h21.32.130.csv
545,45,,1.0,25.0,2981231446-294731.jpg,2986450330-221526.jpg,1.0,,,,A28K46TA74RQH7_2022-12-12_10h21.32.130.csv
546,46,,1.0,26.0,2238471391-240918.jpg,2868470400-212889.jpg,1.0,,,,A28K46TA74RQH7_2022-12-12_10h21.32.130.csv
547,47,,1.0,27.0,2274829821-263682.jpg,2446758985-197610.jpg,2.0,,,,A28K46TA74RQH7_2022-12-12_10h21.32.130.csv
548,48,,1.0,28.0,2592380138-56727.jpg,2986419351-296471.jpg,1.0,,,,A28K46TA74RQH7_2022-12-12_10h21.32.130.csv
549,49,,1.0,29.0,2864909447-362146.jpg,2874316384-140749.jpg,1.0,,,,A28K46TA74RQH7_2022-12-12_10h21.32.130.csv
550,50,left,1.0,30.0,left.jpg,,,left,1.0181,,A28K46TA74RQH7_2022-12-12_10h21.32.130.csv
551,51,,1.0,31.0,2883254439-140940.jpg,2452380166-273110.jpg,1.0,,,,A28K46TA74RQH7_2022-12-12_10h21.32.130.csv
552,52,,1.0,32.0,2901934573-69337.jpg,2986401333-73218.jpg,1.0,,,,A28K46TA74RQH7_2022-12-12_10h21.32.130.csv
553,53,,1.0,33.0,2964209380-218956.jpg,2898617396-291219.jpg,3.0,,,,A28K46TA74RQH7_2022-12-12_10h21.32.130.csv
554,54,,1.0,34.0,2238126735-154721.jpg,2575122854-130480.jpg,2.0,,,,A28K46TA74RQH7_2022-12-12_10h21.32.130.csv
555,55,,1.0,35.0,2446760940-198145.jpg,2592380188-56743.jpg,2.0,,,,A28K46TA74RQH7_2022-12-12_10h21.32.130.csv
556,56,,1.0,36.0,2898632385-217137.jpg,2238480803-19739.jpg,2.0,,,,A28K46TA74RQH7_2022-12-12_10h21.32.130.csv
557,57,,1.0,37.0,2460547467-349421.jpg,2901934573-69336.jpg,1.0,,,,A28K46TA74RQH7_2022-12-12_10h21.32.130.csv
558,58,,1.0,38.0,2986408352-371293.jpg,2856916345-210056.jpg,3.0,,,,A28K46TA74RQH7_2022-12-12_10h21.32.130.csv
559,59,,1.0,39.0,2868485396-288511.jpg,2868472420-213024.jpg,2.0,,,,A28K46TA74RQH7_2022-12-12_10h21.32.130.csv
560,60,,1.0,40.0,2898626385-216899.jpg,2989715328-73658.jpg,1.0,,,,A28K46TA74RQH7_2022-12-12_10h21.32.130.csv
561,61,left,1.0,41.0,left.jpg,,,left,1.2494,,A28K46TA74RQH7_2022-12-12_10h21.32.130.csv
562,62,,1.0,42.0,2898635427-367120.jpg,2238436632-314069.jpg,1.0,,,,A28K46TA74RQH7_2022-12-12_10h21.32.130.csv
563,63,,1.0,43.0,2238496457-319749.jpg,2238570142-333223.jpg,1.0,,,,A28K46TA74RQH7_2022-12-12_10h21.32.130.csv
564,64,,1.0,44.0,2238499155-170911.jpg,2446760621-272103.jpg,1.0,,,,A28K46TA74RQH7_2022-12-12_10h21.32.130.csv
565,65,,1.0,45.0,2994405328-74628.jpg,2825702353-60662.jpg,2.0,,,,A28K46TA74RQH7_2022-12-12_10h21.32.130.csv
566,66,,1.0,46.0,2238129579-80916.jpg,2898618444-142233.jpg,2.0,,,,A28K46TA74RQH7_2022-12-12_10h21.32.130.csv
567,67,,1.0,47.0,2238516618-25604.jpg,2862686459-136888.jpg,2.0,,,,A28K46TA74RQH7_2022-12-12_10h21.32.130.csv
568,68,,1.0,48.0,2331570830-189984.jpg,2446760483-49429.jpg,1.0,,,,A28K46TA74RQH7_2022-12-12_10h21.32.130.csv
569,69,,1.0,49.0,2901939379-143479.jpg,2986450334-147215.jpg,1.0,,,,A28K46TA74RQH7_2022-12-12_10h21.32.130.csv
570,70,,1.0,50.0,2575964140-205050.jpg,2238547522-328488.jpg,2.0,,,,A28K46TA74RQH7_2022-12-12_10h21.32.130.csv
571,71,,1.0,51.0,2512876023-52283.jpg,2898636443-69154.jpg,2.0,,,,A28K46TA74RQH7_2022-12-12_10h21.32.130.csv
572,72,right,1.0,52.0,right.jpg,,,right,1.429,,A28K46TA74RQH7_2022-12-12_10h21.32.130.csv
573,73,,1.0,53.0,2238375302-311538.jpg,2460547508-51571.jpg,3.0,,,,A28K46TA74RQH7_2022-12-12_10h21.32.130.csv
574,74,,1.0,54.0,2238584018-38513.jpg,2452381442-348755.jpg,3.0,,,,A28K46TA74RQH7_2022-12-12_10h21.32.130.csv
575,75,,1.0,55.0,2625337302-355866.jpg,2238478760-167789.jpg,2.0,,,,A28K46TA74RQH7_2022-12-12_10h21.32.130.csv
576,76,,1.0,56.0,2901938432-367627.jpg,2424122568-45517.jpg,3.0,,,,A28K46TA74RQH7_2022-12-12_10h21.32.130.csv
577,77,,1.0,57.0,2238561223-33794.jpg,2592380177-354626.jpg,2.0,,,,A28K46TA74RQH7_2022-12-12_10h21.32.130.csv
578,78,,1.0,58.0,2238575092-334269.jpg,2964218374-144967.jpg,3.0,,,,A28K46TA74RQH7_2022-12-12_10h21.32.130.csv
579,79,,1.0,59.0,2964224310-219527.jpg,2238490590-169598.jpg,3.0,,,,A28K46TA74RQH7_2022-12-12_10h21.32.130.csv
580,80,,1.0,60.0,2964213381-294060.jpg,2989724308-73930.jpg,3.0,,,,A28K46TA74RQH7_2022-12-12_10h21.32.130.csv
581,81,,1.0,61.0,2898624426-291546.jpg,2864902304-137862.jpg,3.0,,,,A28K46TA74RQH7_2022-12-12_10h21.32.130.csv
582,82,,1.0,62.0,2883272438-68133.jpg,2901936369-143233.jpg,2.0,,,,A28K46TA74RQH7_2022-12-12_10h21.32.130.csv
583,83,,1.0,63.0,2986400320-221190.jpg,2238538133-29662.jpg,3.0,,,,A28K46TA74RQH7_2022-12-12_10h21.32.130.csv
584,84,,1.0,64.0,2449442529-124446.jpg,2864911339-138231.jpg,3.0,,,,A28K46TA74RQH7_2022-12-12_10h21.32.130.csv
585,20,,1.0,0.0,2986400320-221190.jpg,2238470979-92615.jpg,2.0,,,,A2WJ1KQW2UBTG6_2022-12-12_10h32.46.517.csv
586,21,,1.0,1.0,2862691449-137104.jpg,2986455341-296758.jpg,2.0,,,,A2WJ1KQW2UBTG6_2022-12-12_10h32.46.517.csv
587,22,,1.0,2.0,2883272438-68133.jpg,2237949408-4018.jpg,1.0,,,,A2WJ1KQW2UBTG6_2022-12-12_10h32.46.517.csv
588,23,,1.0,3.0,2901941426-292805.jpg,2868488422-363715.jpg,1.0,,,,A2WJ1KQW2UBTG6_2022-12-12_10h32.46.517.csv
589,24,,1.0,4.0,2883254439-140941.jpg,2237965109-79314.jpg,2.0,,,,A2WJ1KQW2UBTG6_2022-12-12_10h32.46.517.csv
590,25,,1.0,5.0,2964216465-219242.jpg,2592380049-131079.jpg,1.0,,,,A2WJ1KQW2UBTG6_2022-12-12_10h32.46.517.csv
591,26,,1.0,6.0,2238561223-33794.jpg,2592380177-354626.jpg,2.0,,,,A2WJ1KQW2UBTG6_2022-12-12_10h32.46.517.csv
592,27,,1.0,7.0,2883255450-215309.jpg,2238429999-90216.jpg,1.0,,,,A2WJ1KQW2UBTG6_2022-12-12_10h32.46.517.csv
593,28,,1.0,8.0,2238550049-105691.jpg,2238482972-317759.jpg,1.0,,,,A2WJ1KQW2UBTG6_2022-12-12_10h32.46.517.csv
594,29,,1.0,9.0,2964218374-144968.jpg,2238411877-313125.jpg,1.0,,,,A2WJ1KQW2UBTG6_2022-12-12_10h32.46.517.csv
595,30,,1.0,10.0,2446760524-123999.jpg,2238552469-106359.jpg,2.0,,,,A2WJ1KQW2UBTG6_2022-12-12_10h32.46.517.csv
596,31,right,1.0,11.0,right.jpg,,,right,0.7503,,A2WJ1KQW2UBTG6_2022-12-12_10h32.46.517.csv
597,32,,1.0,12.0,2238126735-154721.jpg,2575122854-130480.jpg,2.0,,,,A2WJ1KQW2UBTG6_2022-12-12_10h32.46.517.csv
598,33,,1.0,13.0,2898617468-68274.jpg,2512875899-126682.jpg,1.0,,,,A2WJ1KQW2UBTG6_2022-12-12_10h32.46.517.csv
599,34,,1.0,14.0,2864909447-362146.jpg,2238555799-106905.jpg,2.0,,,,A2WJ1KQW2UBTG6_2022-12-12_10h32.46.517.csv
600,35,,1.0,15.0,2238375302-311538.jpg,2592380049-131077.jpg,2.0,,,,A2WJ1KQW2UBTG6_2022-12-12_10h32.46.517.csv
601,36,,1.0,16.0,2898632385-217137.jpg,2864904453-63932.jpg,3.0,,,,A2WJ1KQW2UBTG6_2022-12-12_10h32.46.517.csv
602,37,,1.0,17.0,2981231446-294731.jpg,2417207297-342139.jpg,3.0,,,,A2WJ1KQW2UBTG6_2022-12-12_10h32.46.517.csv
603,38,left,1.0,18.0,left.jpg,,,left,0.6805,,A2WJ1KQW2UBTG6_2022-12-12_10h32.46.517.csv
604,39,,1.0,19.0,2868475410-213219.jpg,2238216693-10721.jpg,1.0,,,,A2WJ1KQW2UBTG6_2022-12-12_10h32.46.517.csv
605,40,,1.0,20.0,2238480434-93829.jpg,2238479903-19596.jpg,3.0,,,,A2WJ1KQW2UBTG6_2022-12-12_10h32.46.517.csv
606,41,,1.0,21.0,2901934573-69337.jpg,2901936407-367476.jpg,3.0,,,,A2WJ1KQW2UBTG6_2022-12-12_10h32.46.517.csv
607,42,,1.0,22.0,2868485396-288511.jpg,2868472420-213024.jpg,2.0,,,,A2WJ1KQW2UBTG6_2022-12-12_10h32.46.517.csv
608,43,,1.0,23.0,2898632385-217138.jpg,2575120738-55529.jpg,1.0,,,,A2WJ1KQW2UBTG6_2022-12-12_10h32.46.517.csv
609,44,,1.0,24.0,2238516618-25604.jpg,2238470979-92618.jpg,3.0,,,,A2WJ1KQW2UBTG6_2022-12-12_10h32.46.517.csv
610,45,,1.0,25.0,2625337302-355866.jpg,2425492472-343825.jpg,1.0,,,,A2WJ1KQW2UBTG6_2022-12-12_10h32.46.517.csv
611,46,,1.0,26.0,2238429999-90218.jpg,2964222378-71332.jpg,3.0,,,,A2WJ1KQW2UBTG6_2022-12-12_10h32.46.517.csv
612,47,,1.0,27.0,2898626385-216899.jpg,2898618440-216545.jpg,3.0,,,,A2WJ1KQW2UBTG6_2022-12-12_10h32.46.517.csv
613,48,,1.0,28.0,2449442529-124446.jpg,2868469458-64561.jpg,2.0,,,,A2WJ1KQW2UBTG6_2022-12-12_10h32.46.517.csv
614,49,,1.0,29.0,2986408352-371293.jpg,2868488422-363713.jpg,1.0,,,,A2WJ1KQW2UBTG6_2022-12-12_10h32.46.517.csv
615,50,,1.0,30.0,2864906345-212360.jpg,2238087237-303447.jpg,2.0,,,,A2WJ1KQW2UBTG6_2022-12-12_10h32.46.517.csv
616,51,,1.0,31.0,2238584018-38513.jpg,2449443163-50093.jpg,1.0,,,,A2WJ1KQW2UBTG6_2022-12-12_10h32.46.517.csv
617,52,,1.0,32.0,2964224310-219527.jpg,2238490590-169598.jpg,3.0,,,,A2WJ1KQW2UBTG6_2022-12-12_10h32.46.517.csv
618,53,right,1.0,33.0,right.jpg,,,right,0.5915,,A2WJ1KQW2UBTG6_2022-12-12_10h32.46.517.csv
619,54,,1.0,34.0,2238129579-80916.jpg,2238161924-82646.jpg,3.0,,,,A2WJ1KQW2UBTG6_2022-12-12_10h32.46.517.csv
620,55,,1.0,35.0,2446759803-49249.jpg,2238468265-166556.jpg,2.0,,,,A2WJ1KQW2UBTG6_2022-12-12_10h32.46.517.csv
621,56,,1.0,36.0,2446760940-198145.jpg,2446760692-347392.jpg,3.0,,,,A2WJ1KQW2UBTG6_2022-12-12_10h32.46.517.csv
622,57,,1.0,37.0,2238471391-240918.jpg,2986399339-146857.jpg,3.0,,,,A2WJ1KQW2UBTG6_2022-12-12_10h32.46.517.csv
623,58,,1.0,38.0,2579432576-279079.jpg,2901934574-143126.jpg,1.0,,,,A2WJ1KQW2UBTG6_2022-12-12_10h32.46.517.csv
624,59,right,1.0,39.0,right.jpg,,,right,0.6971,,A2WJ1KQW2UBTG6_2022-12-12_10h32.46.517.csv
625,60,,1.0,40.0,2883255450-215311.jpg,2238481575-168208.jpg,1.0,,,,A2WJ1KQW2UBTG6_2022-12-12_10h32.46.517.csv
626,61,,1.0,41.0,2446758985-197609.jpg,2635396318-58409.jpg,2.0,,,,A2WJ1KQW2UBTG6_2022-12-12_10h32.46.517.csv
627,62,,1.0,42.0,2964209380-218956.jpg,2868488456-288710.jpg,1.0,,,,A2WJ1KQW2UBTG6_2022-12-12_10h32.46.517.csv
628,63,,1.0,43.0,2898633480-217190.jpg,2446760147-347245.jpg,1.0,,,,A2WJ1KQW2UBTG6_2022-12-12_10h32.46.517.csv
629,64,,1.0,44.0,2898624426-291546.jpg,2549106844-127878.jpg,2.0,,,,A2WJ1KQW2UBTG6_2022-12-12_10h32.46.517.csv
630,65,,1.0,45.0,2452380166-273109.jpg,2592379781-279345.jpg,2.0,,,,A2WJ1KQW2UBTG6_2022-12-12_10h32.46.517.csv
631,66,,1.0,46.0,2460547467-349421.jpg,2901934573-69336.jpg,1.0,,,,A2WJ1KQW2UBTG6_2022-12-12_10h32.46.517.csv
632,67,,1.0,47.0,2994405328-74628.jpg,2883273443-68192.jpg,3.0,,,,A2WJ1KQW2UBTG6_2022-12-12_10h32.46.517.csv
633,68,,1.0,48.0,2901938432-367627.jpg,2856919327-359675.jpg,2.0,,,,A2WJ1KQW2UBTG6_2022-12-12_10h32.46.517.csv
634,69,right,1.0,49.0,right.jpg,,,right,0.6517,,A2WJ1KQW2UBTG6_2022-12-12_10h32.46.517.csv
635,70,,1.0,50.0,2238521193-26286.jpg,2446760306-272024.jpg,3.0,,,,A2WJ1KQW2UBTG6_2022-12-12_10h32.46.517.csv
636,71,,1.0,51.0,2575964140-205050.jpg,2446760226-272005.jpg,3.0,,,,A2WJ1KQW2UBTG6_2022-12-12_10h32.46.517.csv
637,72,,1.0,52.0,2964213381-294061.jpg,2989721347-371917.jpg,3.0,,,,A2WJ1KQW2UBTG6_2022-12-12_10h32.46.517.csv
638,73,,1.0,53.0,2238496457-319749.jpg,2460547467-349422.jpg,3.0,,,,A2WJ1KQW2UBTG6_2022-12-12_10h32.46.517.csv
639,74,,1.0,54.0,2964213381-294060.jpg,2898631359-142720.jpg,1.0,,,,A2WJ1KQW2UBTG6_2022-12-12_10h32.46.517.csv
640,75,,1.0,55.0,2238584869-113153.jpg,2981241419-145844.jpg,2.0,,,,A2WJ1KQW2UBTG6_2022-12-12_10h32.46.517.csv
641,76,,1.0,56.0,2883254439-140940.jpg,2812983311-281946.jpg,3.0,,,,A2WJ1KQW2UBTG6_2022-12-12_10h32.46.517.csv
642,77,,1.0,57.0,2274829821-263682.jpg,2446758985-197610.jpg,2.0,,,,A2WJ1KQW2UBTG6_2022-12-12_10h32.46.517.csv
643,78,,1.0,58.0,2901939379-143479.jpg,2864909422-362141.jpg,3.0,,,,A2WJ1KQW2UBTG6_2022-12-12_10h32.46.517.csv
644,79,,1.0,59.0,2592380138-56727.jpg,2238537701-251772.jpg,3.0,,,,A2WJ1KQW2UBTG6_2022-12-12_10h32.46.517.csv
645,80,,1.0,60.0,2238499155-170911.jpg,2446760621-272103.jpg,1.0,,,,A2WJ1KQW2UBTG6_2022-12-12_10h32.46.517.csv
646,81,,1.0,61.0,2512876023-52283.jpg,2898636443-69154.jpg,2.0,,,,A2WJ1KQW2UBTG6_2022-12-12_10h32.46.517.csv
647,82,,1.0,62.0,2238575092-334269.jpg,2592380285-205564.jpg,1.0,,,,A2WJ1KQW2UBTG6_2022-12-12_10h32.46.517.csv
648,83,,1.0,63.0,2331570830-189984.jpg,2449442529-124445.jpg,2.0,,,,A2WJ1KQW2UBTG6_2022-12-12_10h32.46.517.csv
649,84,,1.0,64.0,2898635427-367120.jpg,2901936309-143207.jpg,3.0,,,,A2WJ1KQW2UBTG6_2022-12-12_10h32.46.517.csv
650,20,,1.0,0.0,2898635427-367120.jpg,2237941457-301342.jpg,2.0,,,,A2IQ0QCTQ3KWLT_2022-12-12_10h46.52.230.csv
651,21,,1.0,1.0,2625337302-355866.jpg,2425492472-343825.jpg,1.0,,,,A2IQ0QCTQ3KWLT_2022-12-12_10h46.52.230.csv
652,22,,1.0,2.0,2238516618-25604.jpg,2238573549-110485.jpg,1.0,,,,A2IQ0QCTQ3KWLT_2022-12-12_10h46.52.230.csv
653,23,,1.0,3.0,2238584869-113153.jpg,2864901420-212147.jpg,1.0,,,,A2IQ0QCTQ3KWLT_2022-12-12_10h46.52.230.csv
654,24,,1.0,4.0,2898626385-216899.jpg,2989715328-73658.jpg,1.0,,,,A2IQ0QCTQ3KWLT_2022-12-12_10h46.52.230.csv
655,25,,1.0,5.0,2981231446-294731.jpg,2238568685-183597.jpg,2.0,,,,A2IQ0QCTQ3KWLT_2022-12-12_10h46.52.230.csv
656,26,right,1.0,6.0,right.jpg,,,right,0.6586,,A2IQ0QCTQ3KWLT_2022-12-12_10h46.52.230.csv
657,27,,1.0,7.0,2994405328-74628.jpg,2825702353-60662.jpg,2.0,,,,A2IQ0QCTQ3KWLT_2022-12-12_10h46.52.230.csv
658,28,,1.0,8.0,2238129579-80916.jpg,2460547477-349426.jpg,1.0,,,,A2IQ0QCTQ3KWLT_2022-12-12_10h46.52.230.csv
659,29,,1.0,9.0,2898624426-291546.jpg,2549106844-127878.jpg,2.0,,,,A2IQ0QCTQ3KWLT_2022-12-12_10h46.52.230.csv
660,30,,1.0,10.0,2452380166-273109.jpg,2238380901-236499.jpg,3.0,,,,A2IQ0QCTQ3KWLT_2022-12-12_10h46.52.230.csv
661,31,,1.0,11.0,2238480434-93829.jpg,2592380255-205551.jpg,2.0,,,,A2IQ0QCTQ3KWLT_2022-12-12_10h46.52.230.csv
662,32,,1.0,12.0,2238521193-26286.jpg,2825712309-134957.jpg,1.0,,,,A2IQ0QCTQ3KWLT_2022-12-12_10h46.52.230.csv
663,33,,1.0,13.0,2883255450-215309.jpg,2238562336-256366.jpg,3.0,,,,A2IQ0QCTQ3KWLT_2022-12-12_10h46.52.230.csv
664,34,,1.0,14.0,2460547467-349421.jpg,2901934573-69336.jpg,1.0,,,,A2IQ0QCTQ3KWLT_2022-12-12_10h46.52.230.csv
665,35,,1.0,15.0,2986408352-371293.jpg,2868488422-363713.jpg,1.0,,,,A2IQ0QCTQ3KWLT_2022-12-12_10h46.52.230.csv
666,36,,1.0,16.0,2862691449-137104.jpg,2238328478-11678.jpg,3.0,,,,A2IQ0QCTQ3KWLT_2022-12-12_10h46.52.230.csv
667,37,,1.0,17.0,2238429999-90218.jpg,2901951459-144433.jpg,2.0,,,,A2IQ0QCTQ3KWLT_2022-12-12_10h46.52.230.csv
668,38,,1.0,18.0,2331570830-189984.jpg,2446760483-49429.jpg,1.0,,,,A2IQ0QCTQ3KWLT_2022-12-12_10h46.52.230.csv
669,39,left,1.0,19.0,left.jpg,,,left,0.5646,,A2IQ0QCTQ3KWLT_2022-12-12_10h46.52.230.csv
670,40,,1.0,20.0,2238550049-105691.jpg,2964219468-71238.jpg,3.0,,,,A2IQ0QCTQ3KWLT_2022-12-12_10h46.52.230.csv
671,41,,1.0,21.0,2883254439-140940.jpg,2452380166-273110.jpg,1.0,,,,A2IQ0QCTQ3KWLT_2022-12-12_10h46.52.230.csv
672,42,,1.0,22.0,2898633480-217190.jpg,2237858043-1434.jpg,3.0,,,,A2IQ0QCTQ3KWLT_2022-12-12_10h46.52.230.csv
673,43,,1.0,23.0,2883272438-68133.jpg,2901936369-143233.jpg,2.0,,,,A2IQ0QCTQ3KWLT_2022-12-12_10h46.52.230.csv
674,44,,1.0,24.0,2901941426-292805.jpg,2868488422-363715.jpg,1.0,,,,A2IQ0QCTQ3KWLT_2022-12-12_10h46.52.230.csv
675,45,,1.0,25.0,2868485396-288511.jpg,2868472420-213024.jpg,2.0,,,,A2IQ0QCTQ3KWLT_2022-12-12_10h46.52.230.csv
676,46,,1.0,26.0,2883255450-215311.jpg,2575964014-130589.jpg,3.0,,,,A2IQ0QCTQ3KWLT_2022-12-12_10h46.52.230.csv
677,47,,1.0,27.0,2274829821-263682.jpg,2862687442-360837.jpg,3.0,,,,A2IQ0QCTQ3KWLT_2022-12-12_10h46.52.230.csv
678,48,,1.0,28.0,2238375302-311538.jpg,2460547508-51571.jpg,3.0,,,,A2IQ0QCTQ3KWLT_2022-12-12_10h46.52.230.csv
679,49,,1.0,29.0,2901939379-143479.jpg,2449443292-348022.jpg,2.0,,,,A2IQ0QCTQ3KWLT_2022-12-12_10h46.52.230.csv
680,50,,1.0,30.0,2238471391-240918.jpg,2986399339-146857.jpg,3.0,,,,A2IQ0QCTQ3KWLT_2022-12-12_10h46.52.230.csv
681,51,,1.0,31.0,2238575092-334269.jpg,2860304305-210777.jpg,2.0,,,,A2IQ0QCTQ3KWLT_2022-12-12_10h46.52.230.csv
682,52,left,1.0,32.0,left.jpg,,,left,0.4648,,A2IQ0QCTQ3KWLT_2022-12-12_10h46.52.230.csv
683,53,,1.0,33.0,2449442529-124446.jpg,2238481610-168214.jpg,1.0,,,,A2IQ0QCTQ3KWLT_2022-12-12_10h46.52.230.csv
684,54,,1.0,34.0,2238561223-33794.jpg,2592380177-354626.jpg,2.0,,,,A2IQ0QCTQ3KWLT_2022-12-12_10h46.52.230.csv
685,55,,1.0,35.0,2512876023-52283.jpg,2864908323-64106.jpg,1.0,,,,A2IQ0QCTQ3KWLT_2022-12-12_10h46.52.230.csv
686,56,,1.0,36.0,2446758985-197609.jpg,2898633421-291973.jpg,1.0,,,,A2IQ0QCTQ3KWLT_2022-12-12_10h46.52.230.csv
687,57,,1.0,37.0,2238496457-319749.jpg,2592380234-131135.jpg,2.0,,,,A2IQ0QCTQ3KWLT_2022-12-12_10h46.52.230.csv
688,58,,1.0,38.0,2964218374-144968.jpg,2238411877-313125.jpg,1.0,,,,A2IQ0QCTQ3KWLT_2022-12-12_10h46.52.230.csv
689,59,,1.0,39.0,2964209380-218956.jpg,2868488456-288710.jpg,1.0,,,,A2IQ0QCTQ3KWLT_2022-12-12_10h46.52.230.csv
690,60,,1.0,40.0,2964213381-294060.jpg,2238520921-248323.jpg,2.0,,,,A2IQ0QCTQ3KWLT_2022-12-12_10h46.52.230.csv
691,61,,1.0,41.0,2868475410-213219.jpg,2238436851-238821.jpg,3.0,,,,A2IQ0QCTQ3KWLT_2022-12-12_10h46.52.230.csv
692,62,,1.0,42.0,2898617468-68274.jpg,2238585512-336576.jpg,2.0,,,,A2IQ0QCTQ3KWLT_2022-12-12_10h46.52.230.csv
693,63,,1.0,43.0,2864909447-362146.jpg,2874303453-66056.jpg,3.0,,,,A2IQ0QCTQ3KWLT_2022-12-12_10h46.52.230.csv
694,64,left,1.0,44.0,left.jpg,,,left,0.6413,,A2IQ0QCTQ3KWLT_2022-12-12_10h46.52.230.csv
695,65,,1.0,45.0,2898632385-217138.jpg,2273188118-40829.jpg,2.0,,,,A2IQ0QCTQ3KWLT_2022-12-12_10h46.52.230.csv
696,66,,1.0,46.0,2238584018-38513.jpg,2898633321-291943.jpg,2.0,,,,A2IQ0QCTQ3KWLT_2022-12-12_10h46.52.230.csv
697,67,,1.0,47.0,2898632385-217137.jpg,2864904453-63932.jpg,3.0,,,,A2IQ0QCTQ3KWLT_2022-12-12_10h46.52.230.csv
698,68,,1.0,48.0,2575964140-205050.jpg,2238547522-328488.jpg,2.0,,,,A2IQ0QCTQ3KWLT_2022-12-12_10h46.52.230.csv
699,69,,1.0,49.0,2964224310-219527.jpg,2238380178-14011.jpg,1.0,,,,A2IQ0QCTQ3KWLT_2022-12-12_10h46.52.230.csv
700,70,,1.0,50.0,2883254439-140941.jpg,2237965109-79314.jpg,2.0,,,,A2IQ0QCTQ3KWLT_2022-12-12_10h46.52.230.csv
701,71,,1.0,51.0,2864906345-212360.jpg,2986397365-221133.jpg,1.0,,,,A2IQ0QCTQ3KWLT_2022-12-12_10h46.52.230.csv
702,72,,1.0,52.0,2964213381-294061.jpg,2238433340-164524.jpg,1.0,,,,A2IQ0QCTQ3KWLT_2022-12-12_10h46.52.230.csv
703,73,,1.0,53.0,2579432576-279079.jpg,2446760226-272006.jpg,2.0,,,,A2IQ0QCTQ3KWLT_2022-12-12_10h46.52.230.csv
704,74,right,1.0,54.0,right.jpg,,,right,0.727,,A2IQ0QCTQ3KWLT_2022-12-12_10h46.52.230.csv
705,75,,1.0,55.0,2592380138-56727.jpg,2986419351-296471.jpg,1.0,,,,A2IQ0QCTQ3KWLT_2022-12-12_10h46.52.230.csv
706,76,,1.0,56.0,2446760940-198145.jpg,2446760692-347392.jpg,3.0,,,,A2IQ0QCTQ3KWLT_2022-12-12_10h46.52.230.csv
707,77,,1.0,57.0,2901934573-69337.jpg,2238345946-235007.jpg,2.0,,,,A2IQ0QCTQ3KWLT_2022-12-12_10h46.52.230.csv
708,78,,1.0,58.0,2901938432-367627.jpg,2424122568-45517.jpg,3.0,,,,A2IQ0QCTQ3KWLT_2022-12-12_10h46.52.230.csv
709,79,,1.0,59.0,2238499155-170911.jpg,2238373603-13733.jpg,3.0,,,,A2IQ0QCTQ3KWLT_2022-12-12_10h46.52.230.csv
710,80,,1.0,60.0,2986400320-221190.jpg,2238538133-29662.jpg,3.0,,,,A2IQ0QCTQ3KWLT_2022-12-12_10h46.52.230.csv
711,81,,1.0,61.0,2446760524-123999.jpg,2238539138-29878.jpg,3.0,,,,A2IQ0QCTQ3KWLT_2022-12-12_10h46.52.230.csv
712,82,,1.0,62.0,2964216465-219242.jpg,2446760917-347439.jpg,3.0,,,,A2IQ0QCTQ3KWLT_2022-12-12_10h46.52.230.csv
713,83,,1.0,63.0,2238126735-154721.jpg,2901951430-218724.jpg,3.0,,,,A2IQ0QCTQ3KWLT_2022-12-12_10h46.52.230.csv
714,84,,1.0,64.0,2446759803-49249.jpg,2238498786-244797.jpg,3.0,,,,A2IQ0QCTQ3KWLT_2022-12-12_10h46.52.230.csv
715,20,,1.0,0.0,2964216465-219242.jpg,2446760917-347439.jpg,3.0,,,,A26M997VYVK0E6_2022-12-12_07h10.50.382.csv
716,21,,1.0,1.0,2452380166-273109.jpg,2452380171-273112.jpg,1.0,,,,A26M997VYVK0E6_2022-12-12_07h10.50.382.csv
717,22,,1.0,2.0,2964218374-144968.jpg,2238411877-313125.jpg,1.0,,,,A26M997VYVK0E6_2022-12-12_07h10.50.382.csv
718,23,,1.0,3.0,2986408352-371293.jpg,2856916345-210056.jpg,3.0,,,,A26M997VYVK0E6_2022-12-12_07h10.50.382.csv
719,24,,1.0,4.0,2898626385-216899.jpg,2898618440-216545.jpg,3.0,,,,A26M997VYVK0E6_2022-12-12_07h10.50.382.csv
720,25,,1.0,5.0,2901938432-367627.jpg,2856919327-359675.jpg,2.0,,,,A26M997VYVK0E6_2022-12-12_07h10.50.382.csv
721,26,,1.0,6.0,2575964140-205050.jpg,2238482920-168428.jpg,1.0,,,,A26M997VYVK0E6_2022-12-12_07h10.50.382.csv
722,27,,1.0,7.0,2238561223-33794.jpg,2592380177-354626.jpg,2.0,,,,A26M997VYVK0E6_2022-12-12_07h10.50.382.csv
723,28,,1.0,8.0,2625337302-355866.jpg,2425492472-343825.jpg,1.0,,,,A26M997VYVK0E6_2022-12-12_07h10.50.382.csv
724,29,,1.0,9.0,2238575092-334269.jpg,2964218374-144967.jpg,3.0,,,,A26M997VYVK0E6_2022-12-12_07h10.50.382.csv
725,30,left,1.0,10.0,left.jpg,,,left,0.788,,A26M997VYVK0E6_2022-12-12_07h10.50.382.csv
726,31,,1.0,11.0,2994405328-74628.jpg,2417206274-118542.jpg,1.0,,,,A26M997VYVK0E6_2022-12-12_07h10.50.382.csv
727,32,,1.0,12.0,2512876023-52283.jpg,2238576267-334532.jpg,3.0,,,,A26M997VYVK0E6_2022-12-12_07h10.50.382.csv
728,33,,1.0,13.0,2446760524-123999.jpg,2238552469-106359.jpg,2.0,,,,A26M997VYVK0E6_2022-12-12_07h10.50.382.csv
729,34,,1.0,14.0,2238375302-311538.jpg,2460547508-51571.jpg,3.0,,,,A26M997VYVK0E6_2022-12-12_07h10.50.382.csv
730,35,,1.0,15.0,2868485396-288511.jpg,2868472420-213024.jpg,2.0,,,,A26M997VYVK0E6_2022-12-12_07h10.50.382.csv
731,36,,1.0,16.0,2864909447-362146.jpg,2874303453-66056.jpg,3.0,,,,A26M997VYVK0E6_2022-12-12_07h10.50.382.csv
732,37,,1.0,17.0,2274829821-263682.jpg,2446758985-197610.jpg,2.0,,,,A26M997VYVK0E6_2022-12-12_07h10.50.382.csv
733,38,,1.0,18.0,2446758985-197609.jpg,2898633421-291973.jpg,1.0,,,,A26M997VYVK0E6_2022-12-12_07h10.50.382.csv
734,39,,1.0,19.0,2238129579-80916.jpg,2898618444-142233.jpg,2.0,,,,A26M997VYVK0E6_2022-12-12_07h10.50.382.csv
735,40,,1.0,20.0,2238126735-154721.jpg,2856919327-359676.jpg,1.0,,,,A26M997VYVK0E6_2022-12-12_07h10.50.382.csv
736,41,,1.0,21.0,2898624426-291546.jpg,2549106844-127878.jpg,2.0,,,,A26M997VYVK0E6_2022-12-12_07h10.50.382.csv
737,42,,1.0,22.0,2238521193-26286.jpg,2825712309-134957.jpg,1.0,,,,A26M997VYVK0E6_2022-12-12_07h10.50.382.csv
738,43,,1.0,23.0,2964213381-294061.jpg,2238433340-164524.jpg,1.0,,,,A26M997VYVK0E6_2022-12-12_07h10.50.382.csv
739,44,right,1.0,24.0,right.jpg,,,right,0.902,,A26M997VYVK0E6_2022-12-12_07h10.50.382.csv
740,45,,1.0,25.0,2238584869-113153.jpg,2986455373-73646.jpg,3.0,,,,A26M997VYVK0E6_2022-12-12_07h10.50.382.csv
741,46,,1.0,26.0,2883255450-215311.jpg,2575964014-130589.jpg,3.0,,,,A26M997VYVK0E6_2022-12-12_07h10.50.382.csv
742,47,,1.0,27.0,2460547467-349421.jpg,2901934573-69336.jpg,1.0,,,,A26M997VYVK0E6_2022-12-12_07h10.50.382.csv
743,48,,1.0,28.0,2446760940-198145.jpg,2449443300-198739.jpg,1.0,,,,A26M997VYVK0E6_2022-12-12_07h10.50.382.csv
744,49,,1.0,29.0,2901939379-143479.jpg,2864909422-362141.jpg,3.0,,,,A26M997VYVK0E6_2022-12-12_07h10.50.382.csv
745,50,,1.0,30.0,2901941426-292805.jpg,2901945303-70125.jpg,3.0,,,,A26M997VYVK0E6_2022-12-12_07h10.50.382.csv
746,51,,1.0,31.0,2868475410-213219.jpg,2238216693-10721.jpg,1.0,,,,A26M997VYVK0E6_2022-12-12_07h10.50.382.csv
747,52,,1.0,32.0,2446759803-49249.jpg,2238498786-244797.jpg,3.0,,,,A26M997VYVK0E6_2022-12-12_07h10.50.382.csv
748,53,right,1.0,33.0,right.jpg,,,right,0.712,,A26M997VYVK0E6_2022-12-12_07h10.50.382.csv
749,54,,1.0,34.0,2964224310-219527.jpg,2238490590-169598.jpg,3.0,,,,A26M997VYVK0E6_2022-12-12_07h10.50.382.csv
750,55,,1.0,35.0,2238496457-319749.jpg,2592380234-131135.jpg,2.0,,,,A26M997VYVK0E6_2022-12-12_07h10.50.382.csv
751,56,right,1.0,36.0,right.jpg,,,right,0.702,,A26M997VYVK0E6_2022-12-12_07h10.50.382.csv
752,57,,1.0,37.0,2864906345-212360.jpg,2994403305-222559.jpg,3.0,,,,A26M997VYVK0E6_2022-12-12_07h10.50.382.csv
753,58,,1.0,38.0,2238499155-170911.jpg,2452380832-348593.jpg,2.0,,,,A26M997VYVK0E6_2022-12-12_07h10.50.382.csv
754,59,,1.0,39.0,2883272438-68133.jpg,2901936369-143233.jpg,2.0,,,,A26M997VYVK0E6_2022-12-12_07h10.50.382.csv
755,60,,1.0,40.0,2898633480-217190.jpg,2446760147-347245.jpg,1.0,,,,A26M997VYVK0E6_2022-12-12_07h10.50.382.csv
756,61,,1.0,41.0,2986400320-221190.jpg,2238538133-29662.jpg,3.0,,,,A26M997VYVK0E6_2022-12-12_07h10.50.382.csv
757,62,,1.0,42.0,2331570830-189984.jpg,2449442529-124445.jpg,2.0,,,,A26M997VYVK0E6_2022-12-12_07h10.50.382.csv
758,63,,1.0,43.0,2238584018-38513.jpg,2898633321-291943.jpg,2.0,,,,A26M997VYVK0E6_2022-12-12_07h10.50.382.csv
759,64,,1.0,44.0,2964213381-294060.jpg,2898631359-142720.jpg,1.0,,,,A26M997VYVK0E6_2022-12-12_07h10.50.382.csv
760,65,,1.0,45.0,2883254439-140941.jpg,2237965109-79314.jpg,2.0,,,,A26M997VYVK0E6_2022-12-12_07h10.50.382.csv
761,66,,1.0,46.0,2862691449-137104.jpg,2986455341-296758.jpg,2.0,,,,A26M997VYVK0E6_2022-12-12_07h10.50.382.csv
762,67,,1.0,47.0,2981231446-294731.jpg,2986450330-221526.jpg,1.0,,,,A26M997VYVK0E6_2022-12-12_07h10.50.382.csv
763,68,,1.0,48.0,2238471391-240918.jpg,2901943388-69995.jpg,2.0,,,,A26M997VYVK0E6_2022-12-12_07h10.50.382.csv
764,69,,1.0,49.0,2238550049-105691.jpg,2964219468-71238.jpg,3.0,,,,A26M997VYVK0E6_2022-12-12_07h10.50.382.csv
765,70,right,1.0,50.0,right.jpg,,,right,0.698,,A26M997VYVK0E6_2022-12-12_07h10.50.382.csv
766,71,,1.0,51.0,2898635427-367120.jpg,2238436632-314069.jpg,1.0,,,,A26M997VYVK0E6_2022-12-12_07h10.50.382.csv
767,72,,1.0,52.0,2579432576-279079.jpg,2446760226-272006.jpg,2.0,,,,A26M997VYVK0E6_2022-12-12_07h10.50.382.csv
768,73,,1.0,53.0,2964209380-218956.jpg,2898631429-142736.jpg,2.0,,,,A26M997VYVK0E6_2022-12-12_07h10.50.382.csv
769,74,,1.0,54.0,2238429999-90218.jpg,2986448334-147157.jpg,1.0,,,,A26M997VYVK0E6_2022-12-12_07h10.50.382.csv
770,75,,1.0,55.0,2449442529-124446.jpg,2864911339-138231.jpg,3.0,,,,A26M997VYVK0E6_2022-12-12_07h10.50.382.csv
771,76,,1.0,56.0,2238480434-93829.jpg,2592380255-205551.jpg,2.0,,,,A26M997VYVK0E6_2022-12-12_07h10.50.382.csv
772,77,,1.0,57.0,2238516618-25604.jpg,2238470979-92618.jpg,3.0,,,,A26M997VYVK0E6_2022-12-12_07h10.50.382.csv
773,78,,1.0,58.0,2898617468-68274.jpg,2238585512-336576.jpg,2.0,,,,A26M997VYVK0E6_2022-12-12_07h10.50.382.csv
774,79,,1.0,59.0,2898632385-217137.jpg,2238360884-87525.jpg,1.0,,,,A26M997VYVK0E6_2022-12-12_07h10.50.382.csv
775,80,,1.0,60.0,2901934573-69337.jpg,2986401333-73218.jpg,1.0,,,,A26M997VYVK0E6_2022-12-12_07h10.50.382.csv
776,81,,1.0,61.0,2898632385-217138.jpg,2273188118-40829.jpg,2.0,,,,A26M997VYVK0E6_2022-12-12_07h10.50.382.csv
777,82,,1.0,62.0,2592380138-56727.jpg,2238537701-251772.jpg,3.0,,,,A26M997VYVK0E6_2022-12-12_07h10.50.382.csv
778,83,,1.0,63.0,2883255450-215309.jpg,2238429999-90216.jpg,1.0,,,,A26M997VYVK0E6_2022-12-12_07h10.50.382.csv
779,84,,1.0,64.0,2883254439-140940.jpg,2812983311-281946.jpg,3.0,,,,A26M997VYVK0E6_2022-12-12_07h10.50.382.csv
780,20,,1.0,0.0,2575964140-205050.jpg,2446760226-272005.jpg,3.0,,,,AHZ7C7ETHYX3N_2022-12-12_08h11.22.910.csv
781,21,,1.0,1.0,2238584869-113153.jpg,2981241419-145844.jpg,2.0,,,,AHZ7C7ETHYX3N_2022-12-12_08h11.22.910.csv
782,22,,1.0,2.0,2901939379-143479.jpg,2449443292-348022.jpg,2.0,,,,AHZ7C7ETHYX3N_2022-12-12_08h11.22.910.csv
783,23,,1.0,3.0,2452380166-273109.jpg,2238380901-236499.jpg,3.0,,,,AHZ7C7ETHYX3N_2022-12-12_08h11.22.910.csv
784,24,,1.0,4.0,2331570830-189984.jpg,2458348012-349114.jpg,3.0,,,,AHZ7C7ETHYX3N_2022-12-12_08h11.22.910.csv
785,25,,1.0,5.0,2898635427-367120.jpg,2901936309-143207.jpg,3.0,,,,AHZ7C7ETHYX3N_2022-12-12_08h11.22.910.csv
786,26,right,1.0,6.0,right.jpg,,,right,0.6671,,AHZ7C7ETHYX3N_2022-12-12_08h11.22.910.csv
787,27,,1.0,7.0,2964216465-219242.jpg,2512875796-274856.jpg,2.0,,,,AHZ7C7ETHYX3N_2022-12-12_08h11.22.910.csv
788,28,,1.0,8.0,2592380138-56727.jpg,2986419351-296471.jpg,1.0,,,,AHZ7C7ETHYX3N_2022-12-12_08h11.22.910.csv
789,29,,1.0,9.0,2238375302-311538.jpg,2592380255-205552.jpg,1.0,,,,AHZ7C7ETHYX3N_2022-12-12_08h11.22.910.csv
790,30,,1.0,10.0,2238429999-90218.jpg,2986448334-147157.jpg,1.0,,,,AHZ7C7ETHYX3N_2022-12-12_08h11.22.910.csv
791,31,,1.0,11.0,2274829821-263682.jpg,2862687442-360837.jpg,3.0,,,,AHZ7C7ETHYX3N_2022-12-12_08h11.22.910.csv
792,32,,1.0,12.0,2864906345-212360.jpg,2986397365-221133.jpg,1.0,,,,AHZ7C7ETHYX3N_2022-12-12_08h11.22.910.csv
793,33,,1.0,13.0,2446759803-49249.jpg,2238498786-244797.jpg,3.0,,,,AHZ7C7ETHYX3N_2022-12-12_08h11.22.910.csv
794,34,,1.0,14.0,2579432576-279079.jpg,2458348144-125787.jpg,3.0,,,,AHZ7C7ETHYX3N_2022-12-12_08h11.22.910.csv
795,35,,1.0,15.0,2238496457-319749.jpg,2238570142-333223.jpg,1.0,,,,AHZ7C7ETHYX3N_2022-12-12_08h11.22.910.csv
796,36,,1.0,16.0,2901938432-367627.jpg,2579432708-56394.jpg,1.0,,,,AHZ7C7ETHYX3N_2022-12-12_08h11.22.910.csv
797,37,,1.0,17.0,2238575092-334269.jpg,2592380285-205564.jpg,1.0,,,,AHZ7C7ETHYX3N_2022-12-12_08h11.22.910.csv
798,38,,1.0,18.0,2238129579-80916.jpg,2460547477-349426.jpg,1.0,,,,AHZ7C7ETHYX3N_2022-12-12_08h11.22.910.csv
799,39,,1.0,19.0,2238471391-240918.jpg,2868470400-212889.jpg,1.0,,,,AHZ7C7ETHYX3N_2022-12-12_08h11.22.910.csv
800,40,,1.0,20.0,2964224310-219527.jpg,2964213441-294073.jpg,2.0,,,,AHZ7C7ETHYX3N_2022-12-12_08h11.22.910.csv
801,41,,1.0,21.0,2883255450-215309.jpg,2238562336-256366.jpg,3.0,,,,AHZ7C7ETHYX3N_2022-12-12_08h11.22.910.csv
802,42,,1.0,22.0,2868485396-288511.jpg,2238380314-88261.jpg,3.0,,,,AHZ7C7ETHYX3N_2022-12-12_08h11.22.910.csv
803,43,,1.0,23.0,2238584018-38513.jpg,2898633321-291943.jpg,2.0,,,,AHZ7C7ETHYX3N_2022-12-12_08h11.22.910.csv
804,44,right,1.0,24.0,right.jpg,,,right,0.5781,,AHZ7C7ETHYX3N_2022-12-12_08h11.22.910.csv
805,45,,1.0,25.0,2883272438-68133.jpg,2901936369-143233.jpg,2.0,,,,AHZ7C7ETHYX3N_2022-12-12_08h11.22.910.csv
806,46,,1.0,26.0,2883254439-140940.jpg,2812983311-281946.jpg,3.0,,,,AHZ7C7ETHYX3N_2022-12-12_08h11.22.910.csv
807,47,left,1.0,27.0,left.jpg,,,left,0.5067,,AHZ7C7ETHYX3N_2022-12-12_08h11.22.910.csv
808,48,,1.0,28.0,2446758985-197609.jpg,2984618344-146295.jpg,3.0,,,,AHZ7C7ETHYX3N_2022-12-12_08h11.22.910.csv
809,49,,1.0,29.0,2446760940-198145.jpg,2592380188-56743.jpg,2.0,,,,AHZ7C7ETHYX3N_2022-12-12_08h11.22.910.csv
810,50,,1.0,30.0,2986408352-371293.jpg,2446759580-197801.jpg,2.0,,,,AHZ7C7ETHYX3N_2022-12-12_08h11.22.910.csv
811,51,,1.0,31.0,2238499155-170911.jpg,2452380832-348593.jpg,2.0,,,,AHZ7C7ETHYX3N_2022-12-12_08h11.22.910.csv
812,52,,1.0,32.0,2449442529-124446.jpg,2238481610-168214.jpg,1.0,,,,AHZ7C7ETHYX3N_2022-12-12_08h11.22.910.csv
813,53,,1.0,33.0,2964218374-144968.jpg,2238411877-313125.jpg,1.0,,,,AHZ7C7ETHYX3N_2022-12-12_08h11.22.910.csv
814,54,,1.0,34.0,2898626385-216899.jpg,2449442365-198476.jpg,2.0,,,,AHZ7C7ETHYX3N_2022-12-12_08h11.22.910.csv
815,55,,1.0,35.0,2883254439-140941.jpg,2237965109-79314.jpg,2.0,,,,AHZ7C7ETHYX3N_2022-12-12_08h11.22.910.csv
816,56,,1.0,36.0,2862691449-137104.jpg,2986455341-296758.jpg,2.0,,,,AHZ7C7ETHYX3N_2022-12-12_08h11.22.910.csv
817,57,right,1.0,37.0,right.jpg,,,right,0.6099,,AHZ7C7ETHYX3N_2022-12-12_08h11.22.910.csv
818,58,,1.0,38.0,2238126735-154721.jpg,2575122854-130480.jpg,2.0,,,,AHZ7C7ETHYX3N_2022-12-12_08h11.22.910.csv
819,59,,1.0,39.0,2964213381-294060.jpg,2238520921-248323.jpg,2.0,,,,AHZ7C7ETHYX3N_2022-12-12_08h11.22.910.csv
820,60,,1.0,40.0,2898617468-68274.jpg,2238585512-336576.jpg,2.0,,,,AHZ7C7ETHYX3N_2022-12-12_08h11.22.910.csv
821,61,,1.0,41.0,2898624426-291546.jpg,2986402377-371266.jpg,1.0,,,,AHZ7C7ETHYX3N_2022-12-12_08h11.22.910.csv
822,62,,1.0,42.0,2981231446-294731.jpg,2238568685-183597.jpg,2.0,,,,AHZ7C7ETHYX3N_2022-12-12_08h11.22.910.csv
823,63,,1.0,43.0,2446760524-123999.jpg,2446760621-272102.jpg,1.0,,,,AHZ7C7ETHYX3N_2022-12-12_08h11.22.910.csv
824,64,,1.0,44.0,2898632385-217138.jpg,2575120738-55529.jpg,1.0,,,,AHZ7C7ETHYX3N_2022-12-12_08h11.22.910.csv
825,65,,1.0,45.0,2238521193-26286.jpg,2825712309-134957.jpg,1.0,,,,AHZ7C7ETHYX3N_2022-12-12_08h11.22.910.csv
826,66,,1.0,46.0,2238550049-105691.jpg,2964219468-71238.jpg,3.0,,,,AHZ7C7ETHYX3N_2022-12-12_08h11.22.910.csv
827,67,,1.0,47.0,2901934573-69337.jpg,2901936407-367476.jpg,3.0,,,,AHZ7C7ETHYX3N_2022-12-12_08h11.22.910.csv
828,68,,1.0,48.0,2883255450-215311.jpg,2238481575-168208.jpg,1.0,,,,AHZ7C7ETHYX3N_2022-12-12_08h11.22.910.csv
829,69,,1.0,49.0,2460547467-349421.jpg,2238470079-92499.jpg,2.0,,,,AHZ7C7ETHYX3N_2022-12-12_08h11.22.910.csv
830,70,right,1.0,50.0,right.jpg,,,right,0.4864,,AHZ7C7ETHYX3N_2022-12-12_08h11.22.910.csv
831,71,,1.0,51.0,2868475410-213219.jpg,2238436851-238821.jpg,3.0,,,,AHZ7C7ETHYX3N_2022-12-12_08h11.22.910.csv
832,72,,1.0,52.0,2898632385-217137.jpg,2864904453-63932.jpg,3.0,,,,AHZ7C7ETHYX3N_2022-12-12_08h11.22.910.csv
833,73,,1.0,53.0,2964213381-294061.jpg,2989721347-371917.jpg,3.0,,,,AHZ7C7ETHYX3N_2022-12-12_08h11.22.910.csv
834,74,,1.0,54.0,2986400320-221190.jpg,2989727350-222011.jpg,1.0,,,,AHZ7C7ETHYX3N_2022-12-12_08h11.22.910.csv
835,75,,1.0,55.0,2238480434-93829.jpg,2804906319-133082.jpg,1.0,,,,AHZ7C7ETHYX3N_2022-12-12_08h11.22.910.csv
836,76,,1.0,56.0,2898633480-217190.jpg,2237858043-1434.jpg,3.0,,,,AHZ7C7ETHYX3N_2022-12-12_08h11.22.910.csv
837,77,,1.0,57.0,2238561223-33794.jpg,2592380177-354626.jpg,2.0,,,,AHZ7C7ETHYX3N_2022-12-12_08h11.22.910.csv
838,78,,1.0,58.0,2864909447-362146.jpg,2874316384-140749.jpg,1.0,,,,AHZ7C7ETHYX3N_2022-12-12_08h11.22.910.csv
839,79,,1.0,59.0,2964209380-218956.jpg,2898631429-142736.jpg,2.0,,,,AHZ7C7ETHYX3N_2022-12-12_08h11.22.910.csv
840,80,,1.0,60.0,2512876023-52283.jpg,2864908323-64106.jpg,1.0,,,,AHZ7C7ETHYX3N_2022-12-12_08h11.22.910.csv
841,81,,1.0,61.0,2994405328-74628.jpg,2883273443-68192.jpg,3.0,,,,AHZ7C7ETHYX3N_2022-12-12_08h11.22.910.csv
842,82,,1.0,62.0,2238516618-25604.jpg,2238470979-92618.jpg,3.0,,,,AHZ7C7ETHYX3N_2022-12-12_08h11.22.910.csv
843,83,,1.0,63.0,2901941426-292805.jpg,2238510189-98616.jpg,2.0,,,,AHZ7C7ETHYX3N_2022-12-12_08h11.22.910.csv
844,84,,1.0,64.0,2625337302-355866.jpg,2598726160-205998.jpg,3.0,,,,AHZ7C7ETHYX3N_2022-12-12_08h11.22.910.csv
845,20,,1.0,0.0,2986400320-221190.jpg,2238538133-29662.jpg,3.0,,,,A3VH9AT1MB4MI2_2022-12-12_10h34.11.155.csv
846,21,,1.0,1.0,2964209380-218956.jpg,2898617396-291219.jpg,3.0,,,,A3VH9AT1MB4MI2_2022-12-12_10h34.11.155.csv
847,22,,1.0,2.0,2579432576-279079.jpg,2446760226-272006.jpg,2.0,,,,A3VH9AT1MB4MI2_2022-12-12_10h34.11.155.csv
848,23,,1.0,3.0,2274829821-263682.jpg,2862687442-360837.jpg,3.0,,,,A3VH9AT1MB4MI2_2022-12-12_10h34.11.155.csv
849,24,,1.0,4.0,2460547467-349421.jpg,2238554179-106663.jpg,3.0,,,,A3VH9AT1MB4MI2_2022-12-12_10h34.11.155.csv
850,25,,1.0,5.0,2986408352-371293.jpg,2856916345-210056.jpg,3.0,,,,A3VH9AT1MB4MI2_2022-12-12_10h34.11.155.csv
851,26,,1.0,6.0,2446760524-123999.jpg,2238539138-29878.jpg,3.0,,,,A3VH9AT1MB4MI2_2022-12-12_10h34.11.155.csv
852,27,,1.0,7.0,2446758985-197609.jpg,2635396318-58409.jpg,2.0,,,,A3VH9AT1MB4MI2_2022-12-12_10h34.11.155.csv
853,28,,1.0,8.0,2238471391-240918.jpg,2868470400-212889.jpg,1.0,,,,A3VH9AT1MB4MI2_2022-12-12_10h34.11.155.csv
854,29,right,1.0,9.0,right.jpg,,,right,1.0747,,A3VH9AT1MB4MI2_2022-12-12_10h34.11.155.csv
855,30,,1.0,10.0,2238499155-170911.jpg,2238373603-13733.jpg,3.0,,,,A3VH9AT1MB4MI2_2022-12-12_10h34.11.155.csv
856,31,,1.0,11.0,2238584018-38513.jpg,2449443163-50093.jpg,1.0,,,,A3VH9AT1MB4MI2_2022-12-12_10h34.11.155.csv
857,32,,1.0,12.0,2964218374-144968.jpg,2238521157-323782.jpg,2.0,,,,A3VH9AT1MB4MI2_2022-12-12_10h34.11.155.csv
858,33,,1.0,13.0,2238561223-33794.jpg,2883271323-68049.jpg,3.0,,,,A3VH9AT1MB4MI2_2022-12-12_10h34.11.155.csv
859,34,,1.0,14.0,2898632385-217137.jpg,2238480803-19739.jpg,2.0,,,,A3VH9AT1MB4MI2_2022-12-12_10h34.11.155.csv
860,35,,1.0,15.0,2862691449-137104.jpg,2238328478-11678.jpg,3.0,,,,A3VH9AT1MB4MI2_2022-12-12_10h34.11.155.csv
861,36,,1.0,16.0,2238429999-90218.jpg,2986448334-147157.jpg,1.0,,,,A3VH9AT1MB4MI2_2022-12-12_10h34.11.155.csv
862,37,,1.0,17.0,2449442529-124446.jpg,2868469458-64561.jpg,2.0,,,,A3VH9AT1MB4MI2_2022-12-12_10h34.11.155.csv
863,38,,1.0,18.0,2452380166-273109.jpg,2238380901-236499.jpg,3.0,,,,A3VH9AT1MB4MI2_2022-12-12_10h34.11.155.csv
864,39,,1.0,19.0,2238129579-80916.jpg,2460547477-349426.jpg,1.0,,,,A3VH9AT1MB4MI2_2022-12-12_10h34.11.155.csv
865,40,,1.0,20.0,2238375302-311538.jpg,2592380255-205552.jpg,1.0,,,,A3VH9AT1MB4MI2_2022-12-12_10h34.11.155.csv
866,41,,1.0,21.0,2238575092-334269.jpg,2860304305-210777.jpg,2.0,,,,A3VH9AT1MB4MI2_2022-12-12_10h34.11.155.csv
867,42,left,1.0,22.0,left.jpg,,,left,1.1552,,A3VH9AT1MB4MI2_2022-12-12_10h34.11.155.csv
868,43,,1.0,23.0,2964213381-294061.jpg,2238433340-164524.jpg,1.0,,,,A3VH9AT1MB4MI2_2022-12-12_10h34.11.155.csv
869,44,,1.0,24.0,2592380138-56727.jpg,2986419351-296471.jpg,1.0,,,,A3VH9AT1MB4MI2_2022-12-12_10h34.11.155.csv
870,45,,1.0,25.0,2898633480-217190.jpg,2986450334-147216.jpg,2.0,,,,A3VH9AT1MB4MI2_2022-12-12_10h34.11.155.csv
871,46,,1.0,26.0,2901934573-69337.jpg,2238345946-235007.jpg,2.0,,,,A3VH9AT1MB4MI2_2022-12-12_10h34.11.155.csv
872,47,,1.0,27.0,2575964140-205050.jpg,2238482920-168428.jpg,1.0,,,,A3VH9AT1MB4MI2_2022-12-12_10h34.11.155.csv
873,48,,1.0,28.0,2864906345-212360.jpg,2238087237-303447.jpg,2.0,,,,A3VH9AT1MB4MI2_2022-12-12_10h34.11.155.csv
874,49,,1.0,29.0,2898624426-291546.jpg,2864902304-137862.jpg,3.0,,,,A3VH9AT1MB4MI2_2022-12-12_10h34.11.155.csv
875,50,left,1.0,30.0,left.jpg,,,left,0.9312,,A3VH9AT1MB4MI2_2022-12-12_10h34.11.155.csv
876,51,,1.0,31.0,2898635427-367120.jpg,2238436632-314069.jpg,1.0,,,,A3VH9AT1MB4MI2_2022-12-12_10h34.11.155.csv
877,52,,1.0,32.0,2238521193-26286.jpg,2874301437-363905.jpg,2.0,,,,A3VH9AT1MB4MI2_2022-12-12_10h34.11.155.csv
878,53,,1.0,33.0,2868485396-288511.jpg,2868470456-287597.jpg,1.0,,,,A3VH9AT1MB4MI2_2022-12-12_10h34.11.155.csv
879,54,,1.0,34.0,2625337302-355866.jpg,2238478760-167789.jpg,2.0,,,,A3VH9AT1MB4MI2_2022-12-12_10h34.11.155.csv
880,55,,1.0,35.0,2238126735-154721.jpg,2575122854-130480.jpg,2.0,,,,A3VH9AT1MB4MI2_2022-12-12_10h34.11.155.csv
881,56,,1.0,36.0,2964216465-219242.jpg,2512875796-274856.jpg,2.0,,,,A3VH9AT1MB4MI2_2022-12-12_10h34.11.155.csv
882,57,,1.0,37.0,2883255450-215309.jpg,2868476439-138927.jpg,2.0,,,,A3VH9AT1MB4MI2_2022-12-12_10h34.11.155.csv
883,58,,1.0,38.0,2883254439-140940.jpg,2575121890-204630.jpg,2.0,,,,A3VH9AT1MB4MI2_2022-12-12_10h34.11.155.csv
884,59,left,1.0,39.0,left.jpg,,,left,1.0193,,A3VH9AT1MB4MI2_2022-12-12_10h34.11.155.csv
885,60,,1.0,40.0,2868475410-213219.jpg,2238436851-238821.jpg,3.0,,,,A3VH9AT1MB4MI2_2022-12-12_10h34.11.155.csv
886,61,,1.0,41.0,2238550049-105691.jpg,2238482972-317759.jpg,1.0,,,,A3VH9AT1MB4MI2_2022-12-12_10h34.11.155.csv
887,62,,1.0,42.0,2238516618-25604.jpg,2862686459-136888.jpg,2.0,,,,A3VH9AT1MB4MI2_2022-12-12_10h34.11.155.csv
888,63,,1.0,43.0,2964224310-219527.jpg,2238490590-169598.jpg,3.0,,,,A3VH9AT1MB4MI2_2022-12-12_10h34.11.155.csv
889,64,,1.0,44.0,2238496457-319749.jpg,2592380234-131135.jpg,2.0,,,,A3VH9AT1MB4MI2_2022-12-12_10h34.11.155.csv
890,65,,1.0,45.0,2898617468-68274.jpg,2862684406-285700.jpg,3.0,,,,A3VH9AT1MB4MI2_2022-12-12_10h34.11.155.csv
891,66,,1.0,46.0,2898626385-216899.jpg,2989715328-73658.jpg,1.0,,,,A3VH9AT1MB4MI2_2022-12-12_10h34.11.155.csv
892,67,,1.0,47.0,2238584869-113153.jpg,2986455373-73646.jpg,3.0,,,,A3VH9AT1MB4MI2_2022-12-12_10h34.11.155.csv
893,68,,1.0,48.0,2864909447-362146.jpg,2874316384-140749.jpg,1.0,,,,A3VH9AT1MB4MI2_2022-12-12_10h34.11.155.csv
894,69,right,1.0,49.0,right.jpg,,,right,1.1372,,A3VH9AT1MB4MI2_2022-12-12_10h34.11.155.csv
895,70,,1.0,50.0,2512876023-52283.jpg,2238576267-334532.jpg,3.0,,,,A3VH9AT1MB4MI2_2022-12-12_10h34.11.155.csv
896,71,,1.0,51.0,2883255450-215311.jpg,2238481575-168208.jpg,1.0,,,,A3VH9AT1MB4MI2_2022-12-12_10h34.11.155.csv
897,72,,1.0,52.0,2901938432-367627.jpg,2579432708-56394.jpg,1.0,,,,A3VH9AT1MB4MI2_2022-12-12_10h34.11.155.csv
898,73,,1.0,53.0,2901941426-292805.jpg,2901945303-70125.jpg,3.0,,,,A3VH9AT1MB4MI2_2022-12-12_10h34.11.155.csv
899,74,,1.0,54.0,2901939379-143479.jpg,2986450334-147215.jpg,1.0,,,,A3VH9AT1MB4MI2_2022-12-12_10h34.11.155.csv
900,75,,1.0,55.0,2994405328-74628.jpg,2417206274-118542.jpg,1.0,,,,A3VH9AT1MB4MI2_2022-12-12_10h34.11.155.csv
901,76,,1.0,56.0,2883272438-68133.jpg,2237949408-4018.jpg,1.0,,,,A3VH9AT1MB4MI2_2022-12-12_10h34.11.155.csv
902,77,,1.0,57.0,2883254439-140941.jpg,2989724308-73928.jpg,1.0,,,,A3VH9AT1MB4MI2_2022-12-12_10h34.11.155.csv
903,78,,1.0,58.0,2446760940-198145.jpg,2592380188-56743.jpg,2.0,,,,A3VH9AT1MB4MI2_2022-12-12_10h34.11.155.csv
904,79,,1.0,59.0,2331570830-189984.jpg,2458348012-349114.jpg,3.0,,,,A3VH9AT1MB4MI2_2022-12-12_10h34.11.155.csv
905,80,,1.0,60.0,2964213381-294060.jpg,2989724308-73930.jpg,3.0,,,,A3VH9AT1MB4MI2_2022-12-12_10h34.11.155.csv
906,81,,1.0,61.0,2981231446-294731.jpg,2986450330-221526.jpg,1.0,,,,A3VH9AT1MB4MI2_2022-12-12_10h34.11.155.csv
907,82,,1.0,62.0,2238480434-93829.jpg,2592380255-205551.jpg,2.0,,,,A3VH9AT1MB4MI2_2022-12-12_10h34.11.155.csv
908,83,,1.0,63.0,2446759803-49249.jpg,2238468265-166556.jpg,2.0,,,,A3VH9AT1MB4MI2_2022-12-12_10h34.11.155.csv
909,84,,1.0,64.0,2898632385-217138.jpg,2460547992-349586.jpg,3.0,,,,A3VH9AT1MB4MI2_2022-12-12_10h34.11.155.csv
910,20,,1.0,0.0,2460547467-349421.jpg,2238470079-92499.jpg,2.0,,,,A3N0QZ9ZKUCTCQ_2022-12-12_10h48.04.613.csv
911,21,,1.0,1.0,2883272438-68133.jpg,2901936369-143233.jpg,2.0,,,,A3N0QZ9ZKUCTCQ_2022-12-12_10h48.04.613.csv
912,22,,1.0,2.0,2898632385-217138.jpg,2575120738-55529.jpg,1.0,,,,A3N0QZ9ZKUCTCQ_2022-12-12_10h48.04.613.csv
913,23,,1.0,3.0,2446760940-198145.jpg,2449443300-198739.jpg,1.0,,,,A3N0QZ9ZKUCTCQ_2022-12-12_10h48.04.613.csv
914,24,,1.0,4.0,2901941426-292805.jpg,2868488422-363715.jpg,1.0,,,,A3N0QZ9ZKUCTCQ_2022-12-12_10h48.04.613.csv
915,25,,1.0,5.0,2449442529-124446.jpg,2868469458-64561.jpg,2.0,,,,A3N0QZ9ZKUCTCQ_2022-12-12_10h48.04.613.csv
916,26,,1.0,6.0,2512876023-52283.jpg,2238576267-334532.jpg,3.0,,,,A3N0QZ9ZKUCTCQ_2022-12-12_10h48.04.613.csv
917,27,,1.0,7.0,2898624426-291546.jpg,2864902304-137862.jpg,3.0,,,,A3N0QZ9ZKUCTCQ_2022-12-12_10h48.04.613.csv
918,28,,1.0,8.0,2238129579-80916.jpg,2238161924-82646.jpg,3.0,,,,A3N0QZ9ZKUCTCQ_2022-12-12_10h48.04.613.csv
919,29,,1.0,9.0,2864909447-362146.jpg,2238555799-106905.jpg,2.0,,,,A3N0QZ9ZKUCTCQ_2022-12-12_10h48.04.613.csv
920,30,right,1.0,10.0,right.jpg,,,right,0.8132,,A3N0QZ9ZKUCTCQ_2022-12-12_10h48.04.613.csv
