,index,demo_encoding_loop.thisTrialN,DemoImage,DemoCorrect,demo_encoding_response.rt,demo_encoding_response.keys,index,demo_test_response.keys,demo_test_response.corr,demo_test_response.rt,demo_test_loop.thisTrialN,DemoImage1,DemoImage2,DemoCorrectTest,subject
0,4,0.0,flower1.jpg,,,,12.0,left,1.0,6.1939,0.0,flower1.jpg,flower1_pair.jpg,left,A87D3K9YVKTQ7_2022-12-12_10h15.11.273.csv
1,5,1.0,flower2.jpg,,,,13.0,left,0.0,2.9508,1.0,flower2_pair.jpg,flower2.jpg,right,A87D3K9YVKTQ7_2022-12-12_10h15.11.273.csv
2,6,2.0,left.jpg,left,0.5247,left,14.0,left,1.0,2.3648,2.0,flower3.jpg,flower3_pair.jpg,left,A87D3K9YVKTQ7_2022-12-12_10h15.11.273.csv
3,7,3.0,flower3.jpg,,,,15.0,right,0.0,1.9899,3.0,flower4.jpg,flower4_pair.jpg,left,A87D3K9YVKTQ7_2022-12-12_10h15.11.273.csv
4,8,4.0,flower4.jpg,,,,16.0,right,1.0,1.3162,4.0,flower5_pair.jpg,flower5.jpg,right,A87D3K9YVKTQ7_2022-12-12_10h15.11.273.csv
5,9,5.0,flower5.jpg,,,,17.0,left,1.0,1.2769,5.0,flower6.jpg,flower6_pair.jpg,left,A87D3K9YVKTQ7_2022-12-12_10h15.11.273.csv
6,10,6.0,flower6.jpg,,,,,,,,,,,,A87D3K9YVKTQ7_2022-12-12_10h15.11.273.csv
7,4,0.0,flower1.jpg,,,,12.0,left,1.0,1.4947,0.0,flower1.jpg,flower1_pair.jpg,left,A3HFB277V5OXY0_2022-12-12_10h12.20.926.csv
8,5,1.0,flower2.jpg,,,,13.0,right,1.0,6.9609,1.0,flower2_pair.jpg,flower2.jpg,right,A3HFB277V5OXY0_2022-12-12_10h12.20.926.csv
9,6,2.0,left.jpg,left,2.35,left,14.0,right,0.0,0.2727,2.0,flower3.jpg,flower3_pair.jpg,left,A3HFB277V5OXY0_2022-12-12_10h12.20.926.csv
10,7,3.0,flower3.jpg,,,,15.0,left,1.0,2.3027,3.0,flower4.jpg,flower4_pair.jpg,left,A3HFB277V5OXY0_2022-12-12_10h12.20.926.csv
11,8,4.0,flower4.jpg,,,,16.0,right,1.0,0.7878,4.0,flower5_pair.jpg,flower5.jpg,right,A3HFB277V5OXY0_2022-12-12_10h12.20.926.csv
12,9,5.0,flower5.jpg,,,,17.0,right,0.0,0.7605,5.0,flower6.jpg,flower6_pair.jpg,left,A3HFB277V5OXY0_2022-12-12_10h12.20.926.csv
13,10,6.0,flower6.jpg,,,,,,,,,,,,A3HFB277V5OXY0_2022-12-12_10h12.20.926.csv
14,4,0.0,flower1.jpg,,,,12.0,left,1.0,6.534200001,0.0,flower1.jpg,flower1_pair.jpg,left,A177M9OIBDUWFW_2022-12-12_10h21.40.131.csv
15,5,1.0,flower2.jpg,,,,13.0,right,1.0,2.376799999,1.0,flower2_pair.jpg,flower2.jpg,right,A177M9OIBDUWFW_2022-12-12_10h21.40.131.csv
16,6,2.0,left.jpg,left,1.690200001,left,14.0,left,1.0,1.9791,2.0,flower3.jpg,flower3_pair.jpg,left,A177M9OIBDUWFW_2022-12-12_10h21.40.131.csv
17,7,3.0,flower3.jpg,,,,15.0,left,1.0,1.520699999,3.0,flower4.jpg,flower4_pair.jpg,left,A177M9OIBDUWFW_2022-12-12_10h21.40.131.csv
18,8,4.0,flower4.jpg,,,,16.0,right,1.0,2.4075,4.0,flower5_pair.jpg,flower5.jpg,right,A177M9OIBDUWFW_2022-12-12_10h21.40.131.csv
19,9,5.0,flower5.jpg,,,,17.0,left,1.0,1.3235,5.0,flower6.jpg,flower6_pair.jpg,left,A177M9OIBDUWFW_2022-12-12_10h21.40.131.csv
20,10,6.0,flower6.jpg,,,,,,,,,,,,A177M9OIBDUWFW_2022-12-12_10h21.40.131.csv
21,4,0.0,flower1.jpg,,,,12.0,right,0.0,80.4855,0.0,flower1.jpg,flower1_pair.jpg,left,AHZP05WVFXXCG_2022-12-12_11h20.48.549.csv
22,5,1.0,flower2.jpg,,,,13.0,right,1.0,1.4313,1.0,flower2_pair.jpg,flower2.jpg,right,AHZP05WVFXXCG_2022-12-12_11h20.48.549.csv
23,6,2.0,left.jpg,left,1.6101,left,14.0,right,0.0,3.0324,2.0,flower3.jpg,flower3_pair.jpg,left,AHZP05WVFXXCG_2022-12-12_11h20.48.549.csv
24,7,3.0,flower3.jpg,,,,15.0,right,0.0,2.6867,3.0,flower4.jpg,flower4_pair.jpg,left,AHZP05WVFXXCG_2022-12-12_11h20.48.549.csv
25,8,4.0,flower4.jpg,,,,16.0,right,1.0,2.032,4.0,flower5_pair.jpg,flower5.jpg,right,AHZP05WVFXXCG_2022-12-12_11h20.48.549.csv
26,9,5.0,flower5.jpg,,,,17.0,right,0.0,1.4812,5.0,flower6.jpg,flower6_pair.jpg,left,AHZP05WVFXXCG_2022-12-12_11h20.48.549.csv
27,10,6.0,flower6.jpg,,,,,,,,,,,,AHZP05WVFXXCG_2022-12-12_11h20.48.549.csv
28,4,0.0,flower1.jpg,,,,12.0,left,1.0,3.8591,0.0,flower1.jpg,flower1_pair.jpg,left,A389RPZ5TJZQ7D_2022-12-12_10h12.54.952.csv
29,5,1.0,flower2.jpg,,,,13.0,right,1.0,2.958700001,1.0,flower2_pair.jpg,flower2.jpg,right,A389RPZ5TJZQ7D_2022-12-12_10h12.54.952.csv
30,6,2.0,left.jpg,left,2.3084,left,14.0,left,1.0,2.4201,2.0,flower3.jpg,flower3_pair.jpg,left,A389RPZ5TJZQ7D_2022-12-12_10h12.54.952.csv
31,7,3.0,flower3.jpg,,,,15.0,left,1.0,2.5055,3.0,flower4.jpg,flower4_pair.jpg,left,A389RPZ5TJZQ7D_2022-12-12_10h12.54.952.csv
32,8,4.0,flower4.jpg,,,,16.0,right,1.0,2.4456,4.0,flower5_pair.jpg,flower5.jpg,right,A389RPZ5TJZQ7D_2022-12-12_10h12.54.952.csv
33,9,5.0,flower5.jpg,,,,17.0,left,1.0,2.2389,5.0,flower6.jpg,flower6_pair.jpg,left,A389RPZ5TJZQ7D_2022-12-12_10h12.54.952.csv
34,10,6.0,flower6.jpg,,,,,,,,,,,,A389RPZ5TJZQ7D_2022-12-12_10h12.54.952.csv
35,4,0.0,flower1.jpg,,,,12.0,left,1.0,2.5715,0.0,flower1.jpg,flower1_pair.jpg,left,AIXO7JFFSBR5O_2022-12-12_11h49.52.553.csv
36,5,1.0,flower2.jpg,,,,13.0,right,1.0,2.5296,1.0,flower2_pair.jpg,flower2.jpg,right,AIXO7JFFSBR5O_2022-12-12_11h49.52.553.csv
37,6,2.0,left.jpg,left,1.0377,left,14.0,left,1.0,1.4198,2.0,flower3.jpg,flower3_pair.jpg,left,AIXO7JFFSBR5O_2022-12-12_11h49.52.553.csv
38,7,3.0,flower3.jpg,,,,15.0,left,1.0,1.6983,3.0,flower4.jpg,flower4_pair.jpg,left,AIXO7JFFSBR5O_2022-12-12_11h49.52.553.csv
39,8,4.0,flower4.jpg,,,,16.0,right,1.0,2.1748,4.0,flower5_pair.jpg,flower5.jpg,right,AIXO7JFFSBR5O_2022-12-12_11h49.52.553.csv
40,9,5.0,flower5.jpg,,,,17.0,left,1.0,2.1214,5.0,flower6.jpg,flower6_pair.jpg,left,AIXO7JFFSBR5O_2022-12-12_11h49.52.553.csv
41,10,6.0,flower6.jpg,,,,,,,,,,,,AIXO7JFFSBR5O_2022-12-12_11h49.52.553.csv
42,4,0.0,flower1.jpg,,,,12.0,left,1.0,17.3114,0.0,flower1.jpg,flower1_pair.jpg,left,A2TTYORXHJ7I23_2022-12-12_09h43.50.224.csv
43,5,1.0,flower2.jpg,,,,13.0,right,1.0,8.1622,1.0,flower2_pair.jpg,flower2.jpg,right,A2TTYORXHJ7I23_2022-12-12_09h43.50.224.csv
44,6,2.0,left.jpg,left,1.6761,left,14.0,left,1.0,5.63,2.0,flower3.jpg,flower3_pair.jpg,left,A2TTYORXHJ7I23_2022-12-12_09h43.50.224.csv
45,7,3.0,flower3.jpg,,,,15.0,left,1.0,6.1712,3.0,flower4.jpg,flower4_pair.jpg,left,A2TTYORXHJ7I23_2022-12-12_09h43.50.224.csv
46,8,4.0,flower4.jpg,,,,16.0,right,1.0,4.763,4.0,flower5_pair.jpg,flower5.jpg,right,A2TTYORXHJ7I23_2022-12-12_09h43.50.224.csv
47,9,5.0,flower5.jpg,,,,17.0,left,1.0,10.8333,5.0,flower6.jpg,flower6_pair.jpg,left,A2TTYORXHJ7I23_2022-12-12_09h43.50.224.csv
48,10,6.0,flower6.jpg,,,,,,,,,,,,A2TTYORXHJ7I23_2022-12-12_09h43.50.224.csv
49,4,0.0,flower1.jpg,,,,12.0,left,1.0,1.293,0.0,flower1.jpg,flower1_pair.jpg,left,A3SFP9VSFJY2YW_2022-12-12_12h07.08.411.csv
50,5,1.0,flower2.jpg,,,,13.0,right,1.0,2.8049,1.0,flower2_pair.jpg,flower2.jpg,right,A3SFP9VSFJY2YW_2022-12-12_12h07.08.411.csv
51,6,2.0,left.jpg,left,1.2298,left,14.0,left,1.0,1.9517,2.0,flower3.jpg,flower3_pair.jpg,left,A3SFP9VSFJY2YW_2022-12-12_12h07.08.411.csv
52,7,3.0,flower3.jpg,,,,15.0,left,1.0,2.8324,3.0,flower4.jpg,flower4_pair.jpg,left,A3SFP9VSFJY2YW_2022-12-12_12h07.08.411.csv
53,8,4.0,flower4.jpg,,,,16.0,right,1.0,2.8197,4.0,flower5_pair.jpg,flower5.jpg,right,A3SFP9VSFJY2YW_2022-12-12_12h07.08.411.csv
54,9,5.0,flower5.jpg,,,,17.0,left,1.0,2.8025,5.0,flower6.jpg,flower6_pair.jpg,left,A3SFP9VSFJY2YW_2022-12-12_12h07.08.411.csv
55,10,6.0,flower6.jpg,,,,,,,,,,,,A3SFP9VSFJY2YW_2022-12-12_12h07.08.411.csv
56,4,0.0,flower1.jpg,,,,12.0,left,1.0,1.6476,0.0,flower1.jpg,flower1_pair.jpg,left,A28K46TA74RQH7_2022-12-12_10h21.32.130.csv
57,5,1.0,flower2.jpg,,,,13.0,right,1.0,2.9544,1.0,flower2_pair.jpg,flower2.jpg,right,A28K46TA74RQH7_2022-12-12_10h21.32.130.csv
58,6,2.0,left.jpg,left,0.9219,left,14.0,right,0.0,1.7797,2.0,flower3.jpg,flower3_pair.jpg,left,A28K46TA74RQH7_2022-12-12_10h21.32.130.csv
59,7,3.0,flower3.jpg,,,,15.0,left,1.0,1.4235,3.0,flower4.jpg,flower4_pair.jpg,left,A28K46TA74RQH7_2022-12-12_10h21.32.130.csv
60,8,4.0,flower4.jpg,,,,16.0,right,1.0,1.3127,4.0,flower5_pair.jpg,flower5.jpg,right,A28K46TA74RQH7_2022-12-12_10h21.32.130.csv
61,9,5.0,flower5.jpg,,,,17.0,left,1.0,1.7834,5.0,flower6.jpg,flower6_pair.jpg,left,A28K46TA74RQH7_2022-12-12_10h21.32.130.csv
62,10,6.0,flower6.jpg,,,,,,,,,,,,A28K46TA74RQH7_2022-12-12_10h21.32.130.csv
63,4,0.0,flower1.jpg,,,,12.0,right,0.0,2.2964,0.0,flower1.jpg,flower1_pair.jpg,left,A2WJ1KQW2UBTG6_2022-12-12_10h32.46.517.csv
64,5,1.0,flower2.jpg,,,,13.0,left,0.0,1.4412,1.0,flower2_pair.jpg,flower2.jpg,right,A2WJ1KQW2UBTG6_2022-12-12_10h32.46.517.csv
65,6,2.0,left.jpg,left,0.6666,left,14.0,left,1.0,0.9625,2.0,flower3.jpg,flower3_pair.jpg,left,A2WJ1KQW2UBTG6_2022-12-12_10h32.46.517.csv
66,7,3.0,flower3.jpg,,,,15.0,left,1.0,0.6992,3.0,flower4.jpg,flower4_pair.jpg,left,A2WJ1KQW2UBTG6_2022-12-12_10h32.46.517.csv
67,8,4.0,flower4.jpg,,,,16.0,right,1.0,1.1949,4.0,flower5_pair.jpg,flower5.jpg,right,A2WJ1KQW2UBTG6_2022-12-12_10h32.46.517.csv
68,9,5.0,flower5.jpg,,,,17.0,left,1.0,0.8341,5.0,flower6.jpg,flower6_pair.jpg,left,A2WJ1KQW2UBTG6_2022-12-12_10h32.46.517.csv
69,10,6.0,flower6.jpg,,,,,,,,,,,,A2WJ1KQW2UBTG6_2022-12-12_10h32.46.517.csv
70,4,0.0,flower1.jpg,,,,12.0,left,1.0,1.649,0.0,flower1.jpg,flower1_pair.jpg,left,A2IQ0QCTQ3KWLT_2022-12-12_10h46.52.230.csv
71,5,1.0,flower2.jpg,,,,13.0,right,1.0,1.7538,1.0,flower2_pair.jpg,flower2.jpg,right,A2IQ0QCTQ3KWLT_2022-12-12_10h46.52.230.csv
72,6,2.0,left.jpg,left,0.6805,left,14.0,left,1.0,1.126,2.0,flower3.jpg,flower3_pair.jpg,left,A2IQ0QCTQ3KWLT_2022-12-12_10h46.52.230.csv
73,7,3.0,flower3.jpg,,,,15.0,left,1.0,1.0903,3.0,flower4.jpg,flower4_pair.jpg,left,A2IQ0QCTQ3KWLT_2022-12-12_10h46.52.230.csv
74,8,4.0,flower4.jpg,,,,16.0,right,1.0,1.8395,4.0,flower5_pair.jpg,flower5.jpg,right,A2IQ0QCTQ3KWLT_2022-12-12_10h46.52.230.csv
75,9,5.0,flower5.jpg,,,,17.0,left,1.0,1.3317,5.0,flower6.jpg,flower6_pair.jpg,left,A2IQ0QCTQ3KWLT_2022-12-12_10h46.52.230.csv
76,10,6.0,flower6.jpg,,,,,,,,,,,,A2IQ0QCTQ3KWLT_2022-12-12_10h46.52.230.csv
77,4,0.0,flower1.jpg,,,,12.0,left,1.0,1.598,0.0,flower1.jpg,flower1_pair.jpg,left,A26M997VYVK0E6_2022-12-12_07h10.50.382.csv
78,5,1.0,flower2.jpg,,,,13.0,right,1.0,1.651,1.0,flower2_pair.jpg,flower2.jpg,right,A26M997VYVK0E6_2022-12-12_07h10.50.382.csv
79,6,2.0,left.jpg,left,1.007,left,14.0,left,1.0,1.57,2.0,flower3.jpg,flower3_pair.jpg,left,A26M997VYVK0E6_2022-12-12_07h10.50.382.csv
80,7,3.0,flower3.jpg,,,,15.0,left,1.0,1.304,3.0,flower4.jpg,flower4_pair.jpg,left,A26M997VYVK0E6_2022-12-12_07h10.50.382.csv
81,8,4.0,flower4.jpg,,,,16.0,right,1.0,3.02,4.0,flower5_pair.jpg,flower5.jpg,right,A26M997VYVK0E6_2022-12-12_07h10.50.382.csv
82,9,5.0,flower5.jpg,,,,17.0,left,1.0,2.056,5.0,flower6.jpg,flower6_pair.jpg,left,A26M997VYVK0E6_2022-12-12_07h10.50.382.csv
83,10,6.0,flower6.jpg,,,,,,,,,,,,A26M997VYVK0E6_2022-12-12_07h10.50.382.csv
84,4,0.0,flower1.jpg,,,,12.0,left,1.0,2.9731,0.0,flower1.jpg,flower1_pair.jpg,left,AHZ7C7ETHYX3N_2022-12-12_08h11.22.910.csv
85,5,1.0,flower2.jpg,,,,13.0,left,0.0,2.3332,1.0,flower2_pair.jpg,flower2.jpg,right,AHZ7C7ETHYX3N_2022-12-12_08h11.22.910.csv
86,6,2.0,left.jpg,left,0.6646,left,14.0,left,1.0,1.3792,2.0,flower3.jpg,flower3_pair.jpg,left,AHZ7C7ETHYX3N_2022-12-12_08h11.22.910.csv
87,7,3.0,flower3.jpg,,,,15.0,left,1.0,1.1632,3.0,flower4.jpg,flower4_pair.jpg,left,AHZ7C7ETHYX3N_2022-12-12_08h11.22.910.csv
88,8,4.0,flower4.jpg,,,,16.0,left,0.0,2.2159,4.0,flower5_pair.jpg,flower5.jpg,right,AHZ7C7ETHYX3N_2022-12-12_08h11.22.910.csv
89,9,5.0,flower5.jpg,,,,17.0,left,1.0,1.3313,5.0,flower6.jpg,flower6_pair.jpg,left,AHZ7C7ETHYX3N_2022-12-12_08h11.22.910.csv
90,10,6.0,flower6.jpg,,,,,,,,,,,,AHZ7C7ETHYX3N_2022-12-12_08h11.22.910.csv
91,4,0.0,flower1.jpg,,,,12.0,right,0.0,4.3054,0.0,flower1.jpg,flower1_pair.jpg,left,A3VH9AT1MB4MI2_2022-12-12_10h34.11.155.csv
92,5,1.0,flower2.jpg,,,,13.0,right,1.0,1.9263,1.0,flower2_pair.jpg,flower2.jpg,right,A3VH9AT1MB4MI2_2022-12-12_10h34.11.155.csv
93,6,2.0,left.jpg,left,1.0237,left,14.0,left,1.0,1.6025,2.0,flower3.jpg,flower3_pair.jpg,left,A3VH9AT1MB4MI2_2022-12-12_10h34.11.155.csv
94,7,3.0,flower3.jpg,,,,15.0,left,1.0,2.4911,3.0,flower4.jpg,flower4_pair.jpg,left,A3VH9AT1MB4MI2_2022-12-12_10h34.11.155.csv
95,8,4.0,flower4.jpg,,,,16.0,right,1.0,2.9262,4.0,flower5_pair.jpg,flower5.jpg,right,A3VH9AT1MB4MI2_2022-12-12_10h34.11.155.csv
96,9,5.0,flower5.jpg,,,,17.0,right,0.0,2.4877,5.0,flower6.jpg,flower6_pair.jpg,left,A3VH9AT1MB4MI2_2022-12-12_10h34.11.155.csv
97,10,6.0,flower6.jpg,,,,,,,,,,,,A3VH9AT1MB4MI2_2022-12-12_10h34.11.155.csv
98,4,0.0,flower1.jpg,,,,12.0,left,1.0,2.7517,0.0,flower1.jpg,flower1_pair.jpg,left,A3N0QZ9ZKUCTCQ_2022-12-12_10h48.04.613.csv
99,5,1.0,flower2.jpg,,,,13.0,right,1.0,2.8093,1.0,flower2_pair.jpg,flower2.jpg,right,A3N0QZ9ZKUCTCQ_2022-12-12_10h48.04.613.csv
100,6,2.0,left.jpg,left,0.6839,left,14.0,left,1.0,1.5181,2.0,flower3.jpg,flower3_pair.jpg,left,A3N0QZ9ZKUCTCQ_2022-12-12_10h48.04.613.csv
101,7,3.0,flower3.jpg,,,,15.0,right,0.0,1.9809,3.0,flower4.jpg,flower4_pair.jpg,left,A3N0QZ9ZKUCTCQ_2022-12-12_10h48.04.613.csv
102,8,4.0,flower4.jpg,,,,16.0,left,0.0,1.5652,4.0,flower5_pair.jpg,flower5.jpg,right,A3N0QZ9ZKUCTCQ_2022-12-12_10h48.04.613.csv
103,9,5.0,flower5.jpg,,,,17.0,left,1.0,1.0679,5.0,flower6.jpg,flower6_pair.jpg,left,A3N0QZ9ZKUCTCQ_2022-12-12_10h48.04.613.csv
104,10,6.0,flower6.jpg,,,,,,,,,,,,A3N0QZ9ZKUCTCQ_2022-12-12_10h48.04.613.csv
105,4,0.0,flower1.jpg,,,,12.0,left,1.0,3.9704,0.0,flower1.jpg,flower1_pair.jpg,left,ATO97EQDSSE7U_2022-12-12_07h40.01.775.csv
106,5,1.0,flower2.jpg,,,,13.0,left,0.0,2.329,1.0,flower2_pair.jpg,flower2.jpg,right,ATO97EQDSSE7U_2022-12-12_07h40.01.775.csv
107,6,2.0,left.jpg,left,1.1403,left,14.0,left,1.0,2.9239,2.0,flower3.jpg,flower3_pair.jpg,left,ATO97EQDSSE7U_2022-12-12_07h40.01.775.csv
108,7,3.0,flower3.jpg,,,,15.0,left,1.0,3.66,3.0,flower4.jpg,flower4_pair.jpg,left,ATO97EQDSSE7U_2022-12-12_07h40.01.775.csv
109,8,4.0,flower4.jpg,,,,16.0,left,0.0,3.2226,4.0,flower5_pair.jpg,flower5.jpg,right,ATO97EQDSSE7U_2022-12-12_07h40.01.775.csv
110,9,5.0,flower5.jpg,,,,17.0,left,1.0,2.9027,5.0,flower6.jpg,flower6_pair.jpg,left,ATO97EQDSSE7U_2022-12-12_07h40.01.775.csv
111,10,6.0,flower6.jpg,,,,,,,,,,,,ATO97EQDSSE7U_2022-12-12_07h40.01.775.csv
112,4,0.0,flower1.jpg,,,,12.0,right,0.0,4.5335,0.0,flower1.jpg,flower1_pair.jpg,left,A2FFCQ9WU6R764_2022-12-12_10h15.17.138.csv
113,5,1.0,flower2.jpg,,,,13.0,right,1.0,2.8352,1.0,flower2_pair.jpg,flower2.jpg,right,A2FFCQ9WU6R764_2022-12-12_10h15.17.138.csv
114,6,2.0,left.jpg,left,1.248,left,14.0,left,1.0,2.1178,2.0,flower3.jpg,flower3_pair.jpg,left,A2FFCQ9WU6R764_2022-12-12_10h15.17.138.csv
115,7,3.0,flower3.jpg,,,,15.0,right,0.0,2.2881,3.0,flower4.jpg,flower4_pair.jpg,left,A2FFCQ9WU6R764_2022-12-12_10h15.17.138.csv
116,8,4.0,flower4.jpg,,,,16.0,left,0.0,1.9343,4.0,flower5_pair.jpg,flower5.jpg,right,A2FFCQ9WU6R764_2022-12-12_10h15.17.138.csv
117,9,5.0,flower5.jpg,,,,17.0,right,0.0,2.2215,5.0,flower6.jpg,flower6_pair.jpg,left,A2FFCQ9WU6R764_2022-12-12_10h15.17.138.csv
118,10,6.0,flower6.jpg,,,,,,,,,,,,A2FFCQ9WU6R764_2022-12-12_10h15.17.138.csv
119,4,0.0,flower1.jpg,,,,12.0,left,1.0,5.159,0.0,flower1.jpg,flower1_pair.jpg,left,AMBZATQDG38V0_2022-12-12_11h24.20.357.csv
120,5,1.0,flower2.jpg,,,,13.0,right,1.0,4.876,1.0,flower2_pair.jpg,flower2.jpg,right,AMBZATQDG38V0_2022-12-12_11h24.20.357.csv
121,6,2.0,left.jpg,left,1.794,left,14.0,left,1.0,2.885,2.0,flower3.jpg,flower3_pair.jpg,left,AMBZATQDG38V0_2022-12-12_11h24.20.357.csv
122,7,3.0,flower3.jpg,,,,15.0,right,0.0,5.28,3.0,flower4.jpg,flower4_pair.jpg,left,AMBZATQDG38V0_2022-12-12_11h24.20.357.csv
123,8,4.0,flower4.jpg,,,,16.0,right,1.0,6.293,4.0,flower5_pair.jpg,flower5.jpg,right,AMBZATQDG38V0_2022-12-12_11h24.20.357.csv
124,9,5.0,flower5.jpg,,,,17.0,left,1.0,3.531,5.0,flower6.jpg,flower6_pair.jpg,left,AMBZATQDG38V0_2022-12-12_11h24.20.357.csv
125,10,6.0,flower6.jpg,,,,,,,,,,,,AMBZATQDG38V0_2022-12-12_11h24.20.357.csv
126,4,0.0,flower1.jpg,,,,12.0,left,1.0,3.356,0.0,flower1.jpg,flower1_pair.jpg,left,AWG17Q6SD22GM_2022-12-12_11h11.48.363.csv
127,5,1.0,flower2.jpg,,,,13.0,right,1.0,2.571,1.0,flower2_pair.jpg,flower2.jpg,right,AWG17Q6SD22GM_2022-12-12_11h11.48.363.csv
128,6,2.0,left.jpg,left,0.7833,left,14.0,left,1.0,2.1058,2.0,flower3.jpg,flower3_pair.jpg,left,AWG17Q6SD22GM_2022-12-12_11h11.48.363.csv
129,7,3.0,flower3.jpg,,,,15.0,left,1.0,2.1799,3.0,flower4.jpg,flower4_pair.jpg,left,AWG17Q6SD22GM_2022-12-12_11h11.48.363.csv
130,8,4.0,flower4.jpg,,,,16.0,left,0.0,0.004,4.0,flower5_pair.jpg,flower5.jpg,right,AWG17Q6SD22GM_2022-12-12_11h11.48.363.csv
131,9,5.0,flower5.jpg,,,,17.0,left,1.0,2.076,5.0,flower6.jpg,flower6_pair.jpg,left,AWG17Q6SD22GM_2022-12-12_11h11.48.363.csv
132,10,6.0,flower6.jpg,,,,,,,,,,,,AWG17Q6SD22GM_2022-12-12_11h11.48.363.csv
133,4,0.0,flower1.jpg,,,,12.0,left,1.0,10.8106,0.0,flower1.jpg,flower1_pair.jpg,left,A23R1XDY6N3XK2_2022-12-12_10h27.19.409.csv
134,5,1.0,flower2.jpg,,,,13.0,right,1.0,0.1739,1.0,flower2_pair.jpg,flower2.jpg,right,A23R1XDY6N3XK2_2022-12-12_10h27.19.409.csv
135,6,2.0,left.jpg,left,2.355,left,14.0,left,1.0,0.8649,2.0,flower3.jpg,flower3_pair.jpg,left,A23R1XDY6N3XK2_2022-12-12_10h27.19.409.csv
136,7,3.0,flower3.jpg,,,,15.0,right,0.0,0.1537,3.0,flower4.jpg,flower4_pair.jpg,left,A23R1XDY6N3XK2_2022-12-12_10h27.19.409.csv
137,8,4.0,flower4.jpg,,,,16.0,left,0.0,0.4778,4.0,flower5_pair.jpg,flower5.jpg,right,A23R1XDY6N3XK2_2022-12-12_10h27.19.409.csv
138,9,5.0,flower5.jpg,,,,17.0,right,0.0,0.1361,5.0,flower6.jpg,flower6_pair.jpg,left,A23R1XDY6N3XK2_2022-12-12_10h27.19.409.csv
139,10,6.0,flower6.jpg,,,,,,,,,,,,A23R1XDY6N3XK2_2022-12-12_10h27.19.409.csv
140,4,0.0,flower1.jpg,,,,12.0,right,0.0,4.674400002,0.0,flower1.jpg,flower1_pair.jpg,left,AY3JOEWZT0APP_2022-12-12_10h12.44.548.csv
141,5,1.0,flower2.jpg,,,,13.0,left,0.0,3.8214,1.0,flower2_pair.jpg,flower2.jpg,right,AY3JOEWZT0APP_2022-12-12_10h12.44.548.csv
142,6,2.0,left.jpg,left,2.736300001,left,14.0,right,0.0,0.8801,2.0,flower3.jpg,flower3_pair.jpg,left,AY3JOEWZT0APP_2022-12-12_10h12.44.548.csv
143,7,3.0,flower3.jpg,,,,15.0,right,0.0,1.938200001,3.0,flower4.jpg,flower4_pair.jpg,left,AY3JOEWZT0APP_2022-12-12_10h12.44.548.csv
144,8,4.0,flower4.jpg,,,,16.0,left,0.0,2.102299999,4.0,flower5_pair.jpg,flower5.jpg,right,AY3JOEWZT0APP_2022-12-12_10h12.44.548.csv
145,9,5.0,flower5.jpg,,,,17.0,left,1.0,2.7665,5.0,flower6.jpg,flower6_pair.jpg,left,AY3JOEWZT0APP_2022-12-12_10h12.44.548.csv
146,10,6.0,flower6.jpg,,,,,,,,,,,,AY3JOEWZT0APP_2022-12-12_10h12.44.548.csv
147,4,0.0,flower1.jpg,,,,12.0,left,1.0,6.27,0.0,flower1.jpg,flower1_pair.jpg,left,ATNY69UI91LMQ_2022-12-12_11h39.18.639.csv
148,5,1.0,flower2.jpg,,,,13.0,left,0.0,3.83,1.0,flower2_pair.jpg,flower2.jpg,right,ATNY69UI91LMQ_2022-12-12_11h39.18.639.csv
149,6,2.0,left.jpg,left,2.254,left,14.0,left,1.0,2.517,2.0,flower3.jpg,flower3_pair.jpg,left,ATNY69UI91LMQ_2022-12-12_11h39.18.639.csv
150,7,3.0,flower3.jpg,,,,15.0,right,0.0,3.61,3.0,flower4.jpg,flower4_pair.jpg,left,ATNY69UI91LMQ_2022-12-12_11h39.18.639.csv
151,8,4.0,flower4.jpg,,,,16.0,right,1.0,2.608,4.0,flower5_pair.jpg,flower5.jpg,right,ATNY69UI91LMQ_2022-12-12_11h39.18.639.csv
152,9,5.0,flower5.jpg,,,,17.0,left,1.0,8.15,5.0,flower6.jpg,flower6_pair.jpg,left,ATNY69UI91LMQ_2022-12-12_11h39.18.639.csv
153,10,6.0,flower6.jpg,,,,,,,,,,,,ATNY69UI91LMQ_2022-12-12_11h39.18.639.csv
154,4,0.0,flower1.jpg,,,,12.0,left,1.0,1.211,0.0,flower1.jpg,flower1_pair.jpg,left,A2OTMALDJLAS7_2022-12-12_11h53.11.544.csv
155,5,1.0,flower2.jpg,,,,13.0,right,1.0,0.005,1.0,flower2_pair.jpg,flower2.jpg,right,A2OTMALDJLAS7_2022-12-12_11h53.11.544.csv
156,6,2.0,left.jpg,left,0.619,left,14.0,left,1.0,0.139,2.0,flower3.jpg,flower3_pair.jpg,left,A2OTMALDJLAS7_2022-12-12_11h53.11.544.csv
157,7,3.0,flower3.jpg,,,,15.0,left,1.0,0.007,3.0,flower4.jpg,flower4_pair.jpg,left,A2OTMALDJLAS7_2022-12-12_11h53.11.544.csv
158,8,4.0,flower4.jpg,,,,16.0,right,1.0,0.155,4.0,flower5_pair.jpg,flower5.jpg,right,A2OTMALDJLAS7_2022-12-12_11h53.11.544.csv
159,9,5.0,flower5.jpg,,,,17.0,left,1.0,0.006,5.0,flower6.jpg,flower6_pair.jpg,left,A2OTMALDJLAS7_2022-12-12_11h53.11.544.csv
160,10,6.0,flower6.jpg,,,,,,,,,,,,A2OTMALDJLAS7_2022-12-12_11h53.11.544.csv
161,4,0.0,flower1.jpg,,,,12.0,left,1.0,3.5155,0.0,flower1.jpg,flower1_pair.jpg,left,A1DIYFGQT1QDV2_2022-12-12_10h48.12.701.csv
162,5,1.0,flower2.jpg,,,,13.0,left,0.0,4.6216,1.0,flower2_pair.jpg,flower2.jpg,right,A1DIYFGQT1QDV2_2022-12-12_10h48.12.701.csv
163,6,2.0,left.jpg,left,0.8606,left,14.0,left,1.0,1.8051,2.0,flower3.jpg,flower3_pair.jpg,left,A1DIYFGQT1QDV2_2022-12-12_10h48.12.701.csv
164,7,3.0,flower3.jpg,,,,15.0,left,1.0,3.8457,3.0,flower4.jpg,flower4_pair.jpg,left,A1DIYFGQT1QDV2_2022-12-12_10h48.12.701.csv
165,8,4.0,flower4.jpg,,,,16.0,right,1.0,1.4429,4.0,flower5_pair.jpg,flower5.jpg,right,A1DIYFGQT1QDV2_2022-12-12_10h48.12.701.csv
166,9,5.0,flower5.jpg,,,,17.0,left,1.0,2.1895,5.0,flower6.jpg,flower6_pair.jpg,left,A1DIYFGQT1QDV2_2022-12-12_10h48.12.701.csv
167,10,6.0,flower6.jpg,,,,,,,,,,,,A1DIYFGQT1QDV2_2022-12-12_10h48.12.701.csv
168,4,0.0,flower1.jpg,,,,12.0,left,1.0,1.728,0.0,flower1.jpg,flower1_pair.jpg,left,A2UCS2T0N5YJWK_2022-12-12_10h13.08.454.csv
169,5,1.0,flower2.jpg,,,,13.0,right,1.0,2.394,1.0,flower2_pair.jpg,flower2.jpg,right,A2UCS2T0N5YJWK_2022-12-12_10h13.08.454.csv
170,6,2.0,left.jpg,left,1.077,left,14.0,left,1.0,1.884,2.0,flower3.jpg,flower3_pair.jpg,left,A2UCS2T0N5YJWK_2022-12-12_10h13.08.454.csv
171,7,3.0,flower3.jpg,,,,15.0,left,1.0,1.455,3.0,flower4.jpg,flower4_pair.jpg,left,A2UCS2T0N5YJWK_2022-12-12_10h13.08.454.csv
172,8,4.0,flower4.jpg,,,,16.0,right,1.0,2.353,4.0,flower5_pair.jpg,flower5.jpg,right,A2UCS2T0N5YJWK_2022-12-12_10h13.08.454.csv
173,9,5.0,flower5.jpg,,,,17.0,right,0.0,1.82,5.0,flower6.jpg,flower6_pair.jpg,left,A2UCS2T0N5YJWK_2022-12-12_10h13.08.454.csv
174,10,6.0,flower6.jpg,,,,,,,,,,,,A2UCS2T0N5YJWK_2022-12-12_10h13.08.454.csv
175,4,0.0,flower1.jpg,,,,12.0,left,1.0,5.8606,0.0,flower1.jpg,flower1_pair.jpg,left,AZ69TBTDH7AZS_2022-12-12_10h22.55.459.csv
176,5,1.0,flower2.jpg,,,,13.0,left,0.0,2.6327,1.0,flower2_pair.jpg,flower2.jpg,right,AZ69TBTDH7AZS_2022-12-12_10h22.55.459.csv
177,6,2.0,left.jpg,left,0.69,left,14.0,left,1.0,4.4872,2.0,flower3.jpg,flower3_pair.jpg,left,AZ69TBTDH7AZS_2022-12-12_10h22.55.459.csv
178,7,3.0,flower3.jpg,,,,15.0,left,1.0,3.226,3.0,flower4.jpg,flower4_pair.jpg,left,AZ69TBTDH7AZS_2022-12-12_10h22.55.459.csv
179,8,4.0,flower4.jpg,,,,16.0,right,1.0,2.6281,4.0,flower5_pair.jpg,flower5.jpg,right,AZ69TBTDH7AZS_2022-12-12_10h22.55.459.csv
180,9,5.0,flower5.jpg,,,,17.0,left,1.0,1.7606,5.0,flower6.jpg,flower6_pair.jpg,left,AZ69TBTDH7AZS_2022-12-12_10h22.55.459.csv
181,10,6.0,flower6.jpg,,,,,,,,,,,,AZ69TBTDH7AZS_2022-12-12_10h22.55.459.csv
182,4,0.0,flower1.jpg,,,,12.0,left,1.0,1.738200001,0.0,flower1.jpg,flower1_pair.jpg,left,A3UOG4U007DSXL_2022-12-12_08h10.42.729.csv
183,5,1.0,flower2.jpg,,,,13.0,left,0.0,1.591,1.0,flower2_pair.jpg,flower2.jpg,right,A3UOG4U007DSXL_2022-12-12_08h10.42.729.csv
184,6,2.0,left.jpg,left,1.5504,left,14.0,left,1.0,1.4059,2.0,flower3.jpg,flower3_pair.jpg,left,A3UOG4U007DSXL_2022-12-12_08h10.42.729.csv
185,7,3.0,flower3.jpg,,,,15.0,left,1.0,1.5157,3.0,flower4.jpg,flower4_pair.jpg,left,A3UOG4U007DSXL_2022-12-12_08h10.42.729.csv
186,8,4.0,flower4.jpg,,,,16.0,right,1.0,1.8515,4.0,flower5_pair.jpg,flower5.jpg,right,A3UOG4U007DSXL_2022-12-12_08h10.42.729.csv
187,9,5.0,flower5.jpg,,,,17.0,left,1.0,1.3332,5.0,flower6.jpg,flower6_pair.jpg,left,A3UOG4U007DSXL_2022-12-12_08h10.42.729.csv
188,10,6.0,flower6.jpg,,,,,,,,,,,,A3UOG4U007DSXL_2022-12-12_08h10.42.729.csv
189,4,0.0,flower1.jpg,,,,12.0,left,1.0,3.009,0.0,flower1.jpg,flower1_pair.jpg,left,A3QYT1UWB5FUM_2022-12-12_08h20.54.637.csv
190,5,1.0,flower2.jpg,,,,13.0,right,1.0,2.034,1.0,flower2_pair.jpg,flower2.jpg,right,A3QYT1UWB5FUM_2022-12-12_08h20.54.637.csv
191,6,2.0,left.jpg,left,2.074,left,14.0,left,1.0,1.819,2.0,flower3.jpg,flower3_pair.jpg,left,A3QYT1UWB5FUM_2022-12-12_08h20.54.637.csv
192,7,3.0,flower3.jpg,,,,15.0,right,0.0,1.599,3.0,flower4.jpg,flower4_pair.jpg,left,A3QYT1UWB5FUM_2022-12-12_08h20.54.637.csv
193,8,4.0,flower4.jpg,,,,16.0,right,1.0,2.442,4.0,flower5_pair.jpg,flower5.jpg,right,A3QYT1UWB5FUM_2022-12-12_08h20.54.637.csv
194,9,5.0,flower5.jpg,,,,17.0,right,0.0,1.884,5.0,flower6.jpg,flower6_pair.jpg,left,A3QYT1UWB5FUM_2022-12-12_08h20.54.637.csv
195,10,6.0,flower6.jpg,,,,,,,,,,,,A3QYT1UWB5FUM_2022-12-12_08h20.54.637.csv
196,4,0.0,flower1.jpg,,,,12.0,left,1.0,6.9468,0.0,flower1.jpg,flower1_pair.jpg,left,AWXP5WTDRP5L8_2022-12-12_16h26.05.852.csv
197,5,1.0,flower2.jpg,,,,13.0,right,1.0,3.9327,1.0,flower2_pair.jpg,flower2.jpg,right,AWXP5WTDRP5L8_2022-12-12_16h26.05.852.csv
198,6,2.0,left.jpg,left,0.2159,left,14.0,left,1.0,2.8672,2.0,flower3.jpg,flower3_pair.jpg,left,AWXP5WTDRP5L8_2022-12-12_16h26.05.852.csv
199,7,3.0,flower3.jpg,,,,15.0,right,0.0,2.392,3.0,flower4.jpg,flower4_pair.jpg,left,AWXP5WTDRP5L8_2022-12-12_16h26.05.852.csv
200,8,4.0,flower4.jpg,,,,16.0,right,1.0,29.8452,4.0,flower5_pair.jpg,flower5.jpg,right,AWXP5WTDRP5L8_2022-12-12_16h26.05.852.csv
201,9,5.0,flower5.jpg,,,,17.0,left,1.0,3.5646,5.0,flower6.jpg,flower6_pair.jpg,left,AWXP5WTDRP5L8_2022-12-12_16h26.05.852.csv
202,10,6.0,flower6.jpg,,,,,,,,,,,,AWXP5WTDRP5L8_2022-12-12_16h26.05.852.csv
203,4,0.0,flower1.jpg,,,,12.0,right,0.0,2.3624,0.0,flower1.jpg,flower1_pair.jpg,left,A3T8AGHKKNWY9J_2022-12-12_08h17.21.062.csv
204,5,1.0,flower2.jpg,,,,13.0,left,0.0,2.0166,1.0,flower2_pair.jpg,flower2.jpg,right,A3T8AGHKKNWY9J_2022-12-12_08h17.21.062.csv
205,6,2.0,left.jpg,left,0.7948,left,14.0,left,1.0,1.6251,2.0,flower3.jpg,flower3_pair.jpg,left,A3T8AGHKKNWY9J_2022-12-12_08h17.21.062.csv
206,7,3.0,flower3.jpg,,,,15.0,left,1.0,1.6102,3.0,flower4.jpg,flower4_pair.jpg,left,A3T8AGHKKNWY9J_2022-12-12_08h17.21.062.csv
207,8,4.0,flower4.jpg,,,,16.0,right,1.0,1.8873,4.0,flower5_pair.jpg,flower5.jpg,right,A3T8AGHKKNWY9J_2022-12-12_08h17.21.062.csv
208,9,5.0,flower5.jpg,,,,17.0,left,1.0,1.5596,5.0,flower6.jpg,flower6_pair.jpg,left,A3T8AGHKKNWY9J_2022-12-12_08h17.21.062.csv
209,10,6.0,flower6.jpg,,,,,,,,,,,,A3T8AGHKKNWY9J_2022-12-12_08h17.21.062.csv
210,4,0.0,flower1.jpg,,,,12.0,left,1.0,28.0951,0.0,flower1.jpg,flower1_pair.jpg,left,A2I9BPKBUTYWTY_2022-12-12_11h53.44.831.csv
211,5,1.0,flower2.jpg,,,,13.0,right,1.0,4.8606,1.0,flower2_pair.jpg,flower2.jpg,right,A2I9BPKBUTYWTY_2022-12-12_11h53.44.831.csv
212,6,2.0,left.jpg,left,1.0093,left,14.0,left,1.0,4.3186,2.0,flower3.jpg,flower3_pair.jpg,left,A2I9BPKBUTYWTY_2022-12-12_11h53.44.831.csv
213,7,3.0,flower3.jpg,,,,15.0,left,1.0,3.8954,3.0,flower4.jpg,flower4_pair.jpg,left,A2I9BPKBUTYWTY_2022-12-12_11h53.44.831.csv
214,8,4.0,flower4.jpg,,,,16.0,right,1.0,3.9028,4.0,flower5_pair.jpg,flower5.jpg,right,A2I9BPKBUTYWTY_2022-12-12_11h53.44.831.csv
215,9,5.0,flower5.jpg,,,,17.0,left,1.0,3.6247,5.0,flower6.jpg,flower6_pair.jpg,left,A2I9BPKBUTYWTY_2022-12-12_11h53.44.831.csv
216,10,6.0,flower6.jpg,,,,,,,,,,,,A2I9BPKBUTYWTY_2022-12-12_11h53.44.831.csv
217,4,0.0,flower1.jpg,,,,12.0,left,1.0,3.459,0.0,flower1.jpg,flower1_pair.jpg,left,A1WLSCW0N2KLCN_2022-12-12_07h17.26.605.csv
218,5,1.0,flower2.jpg,,,,13.0,right,1.0,3.435,1.0,flower2_pair.jpg,flower2.jpg,right,A1WLSCW0N2KLCN_2022-12-12_07h17.26.605.csv
219,6,2.0,left.jpg,left,2.438,left,14.0,left,1.0,1.502,2.0,flower3.jpg,flower3_pair.jpg,left,A1WLSCW0N2KLCN_2022-12-12_07h17.26.605.csv
220,7,3.0,flower3.jpg,,,,15.0,right,0.0,1.539,3.0,flower4.jpg,flower4_pair.jpg,left,A1WLSCW0N2KLCN_2022-12-12_07h17.26.605.csv
221,8,4.0,flower4.jpg,,,,16.0,left,0.0,1.724,4.0,flower5_pair.jpg,flower5.jpg,right,A1WLSCW0N2KLCN_2022-12-12_07h17.26.605.csv
222,9,5.0,flower5.jpg,,,,17.0,left,1.0,1.269,5.0,flower6.jpg,flower6_pair.jpg,left,A1WLSCW0N2KLCN_2022-12-12_07h17.26.605.csv
223,10,6.0,flower6.jpg,,,,,,,,,,,,A1WLSCW0N2KLCN_2022-12-12_07h17.26.605.csv
224,4,0.0,flower1.jpg,,,,12.0,left,1.0,1.8007,0.0,flower1.jpg,flower1_pair.jpg,left,A2B153AHPWHLH1_2022-12-12_10h35.34.583.csv
225,5,1.0,flower2.jpg,,,,13.0,right,1.0,1.7087,1.0,flower2_pair.jpg,flower2.jpg,right,A2B153AHPWHLH1_2022-12-12_10h35.34.583.csv
226,6,2.0,left.jpg,left,0.7502,left,14.0,left,1.0,1.7092,2.0,flower3.jpg,flower3_pair.jpg,left,A2B153AHPWHLH1_2022-12-12_10h35.34.583.csv
227,7,3.0,flower3.jpg,,,,15.0,left,1.0,1.4377,3.0,flower4.jpg,flower4_pair.jpg,left,A2B153AHPWHLH1_2022-12-12_10h35.34.583.csv
228,8,4.0,flower4.jpg,,,,16.0,right,1.0,1.3038,4.0,flower5_pair.jpg,flower5.jpg,right,A2B153AHPWHLH1_2022-12-12_10h35.34.583.csv
229,9,5.0,flower5.jpg,,,,17.0,left,1.0,1.4381,5.0,flower6.jpg,flower6_pair.jpg,left,A2B153AHPWHLH1_2022-12-12_10h35.34.583.csv
230,10,6.0,flower6.jpg,,,,,,,,,,,,A2B153AHPWHLH1_2022-12-12_10h35.34.583.csv
231,4,0.0,flower1.jpg,,,,12.0,left,1.0,2.796,0.0,flower1.jpg,flower1_pair.jpg,left,AFK9ALQK5GPNG_2022-12-12_10h33.08.725.csv
232,5,1.0,flower2.jpg,,,,13.0,right,1.0,2.947,1.0,flower2_pair.jpg,flower2.jpg,right,AFK9ALQK5GPNG_2022-12-12_10h33.08.725.csv
233,6,2.0,left.jpg,left,0.478,left,14.0,left,1.0,1.543,2.0,flower3.jpg,flower3_pair.jpg,left,AFK9ALQK5GPNG_2022-12-12_10h33.08.725.csv
234,7,3.0,flower3.jpg,,,,15.0,left,1.0,2.033,3.0,flower4.jpg,flower4_pair.jpg,left,AFK9ALQK5GPNG_2022-12-12_10h33.08.725.csv
235,8,4.0,flower4.jpg,,,,16.0,right,1.0,3.827,4.0,flower5_pair.jpg,flower5.jpg,right,AFK9ALQK5GPNG_2022-12-12_10h33.08.725.csv
236,9,5.0,flower5.jpg,,,,17.0,left,1.0,2.61,5.0,flower6.jpg,flower6_pair.jpg,left,AFK9ALQK5GPNG_2022-12-12_10h33.08.725.csv
237,10,6.0,flower6.jpg,,,,,,,,,,,,AFK9ALQK5GPNG_2022-12-12_10h33.08.725.csv
238,4,0.0,flower1.jpg,,,,12.0,left,1.0,1.8306,0.0,flower1.jpg,flower1_pair.jpg,left,A1PIOTGADK1EN1_2022-12-12_10h40.23.801.csv
239,5,1.0,flower2.jpg,,,,13.0,right,1.0,2.2782,1.0,flower2_pair.jpg,flower2.jpg,right,A1PIOTGADK1EN1_2022-12-12_10h40.23.801.csv
240,6,2.0,left.jpg,left,0.8643,left,14.0,left,1.0,1.6503,2.0,flower3.jpg,flower3_pair.jpg,left,A1PIOTGADK1EN1_2022-12-12_10h40.23.801.csv
241,7,3.0,flower3.jpg,,,,15.0,left,1.0,1.3066,3.0,flower4.jpg,flower4_pair.jpg,left,A1PIOTGADK1EN1_2022-12-12_10h40.23.801.csv
242,8,4.0,flower4.jpg,,,,16.0,right,1.0,1.9678,4.0,flower5_pair.jpg,flower5.jpg,right,A1PIOTGADK1EN1_2022-12-12_10h40.23.801.csv
243,9,5.0,flower5.jpg,,,,17.0,left,1.0,1.5854,5.0,flower6.jpg,flower6_pair.jpg,left,A1PIOTGADK1EN1_2022-12-12_10h40.23.801.csv
244,10,6.0,flower6.jpg,,,,,,,,,,,,A1PIOTGADK1EN1_2022-12-12_10h40.23.801.csv
245,4,0.0,flower1.jpg,,,,12.0,left,1.0,2.47,0.0,flower1.jpg,flower1_pair.jpg,left,A13H9NI9SOJ868_2022-12-12_10h59.22.684.csv
246,5,1.0,flower2.jpg,,,,13.0,right,1.0,2.02,1.0,flower2_pair.jpg,flower2.jpg,right,A13H9NI9SOJ868_2022-12-12_10h59.22.684.csv
247,6,2.0,left.jpg,left,1.425,left,14.0,left,1.0,2.967,2.0,flower3.jpg,flower3_pair.jpg,left,A13H9NI9SOJ868_2022-12-12_10h59.22.684.csv
248,7,3.0,flower3.jpg,,,,15.0,right,0.0,2.304,3.0,flower4.jpg,flower4_pair.jpg,left,A13H9NI9SOJ868_2022-12-12_10h59.22.684.csv
249,8,4.0,flower4.jpg,,,,16.0,right,1.0,2.81,4.0,flower5_pair.jpg,flower5.jpg,right,A13H9NI9SOJ868_2022-12-12_10h59.22.684.csv
250,9,5.0,flower5.jpg,,,,17.0,left,1.0,3.177,5.0,flower6.jpg,flower6_pair.jpg,left,A13H9NI9SOJ868_2022-12-12_10h59.22.684.csv
251,10,6.0,flower6.jpg,,,,,,,,,,,,A13H9NI9SOJ868_2022-12-12_10h59.22.684.csv
