,layer,correct,test_test_response.keys,test_test_response.corr,test_test_response.rt,trials_2.thisRepN,trials_2.thisTrialN,trials_2.thisN,trials_2.thisIndex,trials_2.ran,image1,image2,subject
0,1.0,left,left,1.0,1.8992,0.0,0.0,0.0,0.0,1.0,2238496457-319749.jpg,2238570142-333223.jpg,A87D3K9YVKTQ7_2022-12-12_10h15.11.273.csv
1,2.0,right,right,1.0,1.4516,0.0,1.0,1.0,1.0,1.0,2430664847-345753.jpg,2592380138-56727.jpg,A87D3K9YVKTQ7_2022-12-12_10h15.11.273.csv
2,3.0,right,left,0.0,1.7773,0.0,2.0,2.0,2.0,1.0,2592380136-279476.jpg,2883272438-68133.jpg,A87D3K9YVKTQ7_2022-12-12_10h15.11.273.csv
3,2.0,right,right,1.0,1.5279,0.0,3.0,3.0,3.0,1.0,2986455341-296758.jpg,2862691449-137104.jpg,A87D3K9YVKTQ7_2022-12-12_10h15.11.273.csv
4,1.0,right,right,1.0,1.1473,0.0,4.0,4.0,4.0,1.0,2238570526-257884.jpg,2274829821-263682.jpg,A87D3K9YVKTQ7_2022-12-12_10h15.11.273.csv
5,1.0,right,left,0.0,1.7311,0.0,5.0,5.0,5.0,1.0,2864908323-64106.jpg,2512876023-52283.jpg,A87D3K9YVKTQ7_2022-12-12_10h15.11.273.csv
6,2.0,left,left,1.0,1.3681,0.0,6.0,6.0,6.0,1.0,2238499155-170911.jpg,2452380832-348593.jpg,A87D3K9YVKTQ7_2022-12-12_10h15.11.273.csv
7,3.0,right,right,1.0,1.3013,0.0,7.0,7.0,7.0,1.0,2238554179-106663.jpg,2460547467-349421.jpg,A87D3K9YVKTQ7_2022-12-12_10h15.11.273.csv
8,3.0,right,left,0.0,2.0857,0.0,8.0,8.0,8.0,1.0,2901936309-143207.jpg,2898635427-367120.jpg,A87D3K9YVKTQ7_2022-12-12_10h15.11.273.csv
9,3.0,left,left,1.0,1.8308,0.0,9.0,9.0,9.0,1.0,2901939379-143479.jpg,2864909422-362141.jpg,A87D3K9YVKTQ7_2022-12-12_10h15.11.273.csv
10,1.0,left,right,0.0,1.6636,0.0,10.0,10.0,10.0,1.0,2898617468-68274.jpg,2512875899-126682.jpg,A87D3K9YVKTQ7_2022-12-12_10h15.11.273.csv
11,1.0,right,left,0.0,2.1374,0.0,11.0,11.0,11.0,1.0,2452380171-273112.jpg,2452380166-273109.jpg,A87D3K9YVKTQ7_2022-12-12_10h15.11.273.csv
12,2.0,left,left,1.0,1.1525,0.0,12.0,12.0,12.0,1.0,2964213381-294060.jpg,2238520921-248323.jpg,A87D3K9YVKTQ7_2022-12-12_10h15.11.273.csv
13,3.0,right,right,1.0,1.9503,0.0,13.0,13.0,13.0,1.0,2238470979-92618.jpg,2238516618-25604.jpg,A87D3K9YVKTQ7_2022-12-12_10h15.11.273.csv
14,1.0,right,right,1.0,1.4666,0.0,14.0,14.0,14.0,1.0,2989724308-73928.jpg,2883254439-140941.jpg,A87D3K9YVKTQ7_2022-12-12_10h15.11.273.csv
15,2.0,left,left,1.0,1.4945,0.0,15.0,15.0,15.0,1.0,2994405328-74628.jpg,2825702353-60662.jpg,A87D3K9YVKTQ7_2022-12-12_10h15.11.273.csv
16,3.0,right,right,1.0,2.5808,0.0,16.0,16.0,16.0,1.0,2986399339-146857.jpg,2238471391-240918.jpg,A87D3K9YVKTQ7_2022-12-12_10h15.11.273.csv
17,3.0,right,right,1.0,2.2509,0.0,17.0,17.0,17.0,1.0,2238490590-169598.jpg,2964224310-219527.jpg,A87D3K9YVKTQ7_2022-12-12_10h15.11.273.csv
18,3.0,right,right,1.0,1.2961,0.0,18.0,18.0,18.0,1.0,2452381442-348755.jpg,2238584018-38513.jpg,A87D3K9YVKTQ7_2022-12-12_10h15.11.273.csv
19,1.0,right,left,0.0,1.5375,0.0,19.0,19.0,19.0,1.0,2868488422-363715.jpg,2901941426-292805.jpg,A87D3K9YVKTQ7_2022-12-12_10h15.11.273.csv
20,2.0,right,right,1.0,2.1464,0.0,20.0,20.0,20.0,1.0,2238478760-167789.jpg,2625337302-355866.jpg,A87D3K9YVKTQ7_2022-12-12_10h15.11.273.csv
21,2.0,right,right,1.0,1.6354,0.0,21.0,21.0,21.0,1.0,2446760226-272006.jpg,2579432576-279079.jpg,A87D3K9YVKTQ7_2022-12-12_10h15.11.273.csv
22,2.0,left,left,1.0,1.6974,0.0,22.0,22.0,22.0,1.0,2898633480-217190.jpg,2986450334-147216.jpg,A87D3K9YVKTQ7_2022-12-12_10h15.11.273.csv
23,3.0,left,right,0.0,1.9003,0.0,23.0,23.0,23.0,1.0,2238584869-113153.jpg,2986455373-73646.jpg,A87D3K9YVKTQ7_2022-12-12_10h15.11.273.csv
24,3.0,right,right,1.0,2.3964,0.0,24.0,24.0,24.0,1.0,2238562336-256366.jpg,2883255450-215309.jpg,A87D3K9YVKTQ7_2022-12-12_10h15.11.273.csv
25,1.0,right,right,1.0,1.6003,0.0,25.0,25.0,25.0,1.0,2446760483-49429.jpg,2331570830-189984.jpg,A87D3K9YVKTQ7_2022-12-12_10h15.11.273.csv
26,1.0,right,right,1.0,1.5614,0.0,26.0,26.0,26.0,1.0,2460547477-349426.jpg,2238129579-80916.jpg,A87D3K9YVKTQ7_2022-12-12_10h15.11.273.csv
27,2.0,left,left,1.0,2.1023,0.0,27.0,27.0,27.0,1.0,2238575092-334269.jpg,2860304305-210777.jpg,A87D3K9YVKTQ7_2022-12-12_10h15.11.273.csv
28,2.0,left,left,1.0,1.6643,0.0,28.0,28.0,28.0,1.0,2864909447-362146.jpg,2238555799-106905.jpg,A87D3K9YVKTQ7_2022-12-12_10h15.11.273.csv
29,2.0,right,right,1.0,1.9968,0.0,29.0,29.0,29.0,1.0,2512875796-274856.jpg,2964216465-219242.jpg,A87D3K9YVKTQ7_2022-12-12_10h15.11.273.csv
30,2.0,left,left,1.0,3.2788,0.0,30.0,30.0,30.0,1.0,2964213381-294061.jpg,2981234334-145491.jpg,A87D3K9YVKTQ7_2022-12-12_10h15.11.273.csv
31,2.0,right,right,1.0,2.6279,0.0,31.0,31.0,31.0,1.0,2446759580-197801.jpg,2986408352-371293.jpg,A87D3K9YVKTQ7_2022-12-12_10h15.11.273.csv
32,2.0,right,right,1.0,2.5913,0.0,32.0,32.0,32.0,1.0,2575121890-204630.jpg,2883254439-140940.jpg,A87D3K9YVKTQ7_2022-12-12_10h15.11.273.csv
33,1.0,left,right,0.0,2.2458,0.0,33.0,33.0,33.0,1.0,2898624426-291546.jpg,2986402377-371266.jpg,A87D3K9YVKTQ7_2022-12-12_10h15.11.273.csv
34,1.0,right,left,0.0,4.3859,0.0,34.0,34.0,34.0,1.0,2238216693-10721.jpg,2868475410-213219.jpg,A87D3K9YVKTQ7_2022-12-12_10h15.11.273.csv
35,3.0,right,right,1.0,4.8388,0.0,35.0,35.0,35.0,1.0,2446760226-272005.jpg,2575964140-205050.jpg,A87D3K9YVKTQ7_2022-12-12_10h15.11.273.csv
36,1.0,left,left,1.0,4.1733,0.0,36.0,36.0,36.0,1.0,2868485396-288511.jpg,2868470456-287597.jpg,A87D3K9YVKTQ7_2022-12-12_10h15.11.273.csv
37,3.0,right,right,1.0,4.4934,0.0,37.0,37.0,37.0,1.0,2575964014-130589.jpg,2883255450-215311.jpg,A87D3K9YVKTQ7_2022-12-12_10h15.11.273.csv
38,1.0,left,left,1.0,5.511,0.0,38.0,38.0,38.0,1.0,2446760940-198145.jpg,2449443300-198739.jpg,A87D3K9YVKTQ7_2022-12-12_10h15.11.273.csv
39,2.0,left,left,1.0,5.3634,0.0,39.0,39.0,39.0,1.0,2446759803-49249.jpg,2238468265-166556.jpg,A87D3K9YVKTQ7_2022-12-12_10h15.11.273.csv
40,1.0,right,right,1.0,3.3339,0.0,40.0,40.0,40.0,1.0,2856919327-359676.jpg,2238126735-154721.jpg,A87D3K9YVKTQ7_2022-12-12_10h15.11.273.csv
41,1.0,right,right,1.0,4.6709,0.0,41.0,41.0,41.0,1.0,2579432708-56394.jpg,2901938432-367627.jpg,A87D3K9YVKTQ7_2022-12-12_10h15.11.273.csv
42,1.0,right,right,1.0,2.8044,0.0,42.0,42.0,42.0,1.0,2825712309-134957.jpg,2238521193-26286.jpg,A87D3K9YVKTQ7_2022-12-12_10h15.11.273.csv
43,2.0,right,right,1.0,4.1227,0.0,43.0,43.0,43.0,1.0,2449442365-198476.jpg,2898626385-216899.jpg,A87D3K9YVKTQ7_2022-12-12_10h15.11.273.csv
44,3.0,right,right,1.0,2.9878,0.0,44.0,44.0,44.0,1.0,2864911339-138231.jpg,2449442529-124446.jpg,A87D3K9YVKTQ7_2022-12-12_10h15.11.273.csv
45,1.0,left,right,0.0,7.0758,0.0,45.0,45.0,45.0,1.0,2238429999-90218.jpg,2986448334-147157.jpg,A87D3K9YVKTQ7_2022-12-12_10h15.11.273.csv
46,2.0,left,left,1.0,2.5933,0.0,46.0,46.0,46.0,1.0,2898632385-217137.jpg,2238480803-19739.jpg,A87D3K9YVKTQ7_2022-12-12_10h15.11.273.csv
47,1.0,left,right,0.0,3.8094,0.0,47.0,47.0,47.0,1.0,2901934573-69337.jpg,2986401333-73218.jpg,A87D3K9YVKTQ7_2022-12-12_10h15.11.273.csv
48,1.0,left,left,1.0,1.724,0.0,48.0,48.0,48.0,1.0,2964209380-218956.jpg,2868488456-288710.jpg,A87D3K9YVKTQ7_2022-12-12_10h15.11.273.csv
49,2.0,left,left,1.0,3.4863,0.0,49.0,49.0,49.0,1.0,2238480434-93829.jpg,2592380255-205551.jpg,A87D3K9YVKTQ7_2022-12-12_10h15.11.273.csv
50,3.0,right,right,1.0,1.6576,0.0,50.0,50.0,50.0,1.0,2994403305-222559.jpg,2864906345-212360.jpg,A87D3K9YVKTQ7_2022-12-12_10h15.11.273.csv
51,3.0,left,right,0.0,4.5483,0.0,51.0,51.0,51.0,1.0,2446760524-123999.jpg,2238539138-29878.jpg,A87D3K9YVKTQ7_2022-12-12_10h15.11.273.csv
52,3.0,left,left,1.0,1.3731,0.0,52.0,52.0,52.0,1.0,2238561223-33794.jpg,2883271323-68049.jpg,A87D3K9YVKTQ7_2022-12-12_10h15.11.273.csv
53,1.0,left,left,1.0,6.1825,0.0,53.0,53.0,53.0,1.0,2446758985-197609.jpg,2898633421-291973.jpg,A87D3K9YVKTQ7_2022-12-12_10h15.11.273.csv
54,3.0,left,left,1.0,5.7628,0.0,54.0,54.0,54.0,1.0,2964218374-144968.jpg,2238525773-27014.jpg,A87D3K9YVKTQ7_2022-12-12_10h15.11.273.csv
55,3.0,left,left,1.0,4.8879,0.0,55.0,55.0,55.0,1.0,2986400320-221190.jpg,2238538133-29662.jpg,A87D3K9YVKTQ7_2022-12-12_10h15.11.273.csv
56,2.0,left,right,0.0,3.9207,0.0,56.0,56.0,56.0,1.0,2981231446-294731.jpg,2238568685-183597.jpg,A87D3K9YVKTQ7_2022-12-12_10h15.11.273.csv
57,3.0,left,left,1.0,3.7257,0.0,57.0,57.0,57.0,1.0,2898632385-217138.jpg,2460547992-349586.jpg,A87D3K9YVKTQ7_2022-12-12_10h15.11.273.csv
58,3.0,left,left,1.0,2.5906,0.0,58.0,58.0,58.0,1.0,2238375302-311538.jpg,2460547508-51571.jpg,A87D3K9YVKTQ7_2022-12-12_10h15.11.273.csv
59,2.0,right,right,1.0,2.7769,0.0,59.0,59.0,59.0,1.0,2449443271-272729.jpg,2238550049-105691.jpg,A87D3K9YVKTQ7_2022-12-12_10h15.11.273.csv
60,3.0,left,left,1.0,1.6369,0.0,0.0,0.0,0.0,1.0,2868475410-213219.jpg,2238436851-238821.jpg,A3HFB277V5OXY0_2022-12-12_10h12.20.926.csv
61,1.0,left,right,0.0,1.1268,0.0,1.0,1.0,1.0,1.0,2512876023-52283.jpg,2864908323-64106.jpg,A3HFB277V5OXY0_2022-12-12_10h12.20.926.csv
62,2.0,right,left,0.0,1.2465,0.0,2.0,2.0,2.0,1.0,2446760226-272006.jpg,2579432576-279079.jpg,A3HFB277V5OXY0_2022-12-12_10h12.20.926.csv
63,3.0,left,left,1.0,1.5398,0.0,3.0,3.0,3.0,1.0,2625337302-355866.jpg,2598726160-205998.jpg,A3HFB277V5OXY0_2022-12-12_10h12.20.926.csv
64,1.0,left,right,0.0,1.7987,0.0,4.0,4.0,4.0,1.0,2901941426-292805.jpg,2868488422-363715.jpg,A3HFB277V5OXY0_2022-12-12_10h12.20.926.csv
65,3.0,right,right,1.0,1.2539,0.0,5.0,5.0,5.0,1.0,2238161924-82646.jpg,2238129579-80916.jpg,A3HFB277V5OXY0_2022-12-12_10h12.20.926.csv
66,1.0,left,left,1.0,1.2985,0.0,6.0,6.0,6.0,1.0,2898624426-291546.jpg,2986402377-371266.jpg,A3HFB277V5OXY0_2022-12-12_10h12.20.926.csv
67,3.0,right,left,0.0,1.5361,0.0,7.0,7.0,7.0,1.0,2964222378-71332.jpg,2238429999-90218.jpg,A3HFB277V5OXY0_2022-12-12_10h12.20.926.csv
68,2.0,right,right,1.0,0.2439,0.0,8.0,8.0,8.0,1.0,2901936369-143233.jpg,2883272438-68133.jpg,A3HFB277V5OXY0_2022-12-12_10h12.20.926.csv
69,2.0,right,right,1.0,1.6697,0.0,9.0,9.0,9.0,1.0,2964213441-294073.jpg,2964224310-219527.jpg,A3HFB277V5OXY0_2022-12-12_10h12.20.926.csv
70,2.0,left,left,1.0,1.3163,0.0,10.0,10.0,10.0,1.0,2446760524-123999.jpg,2238552469-106359.jpg,A3HFB277V5OXY0_2022-12-12_10h12.20.926.csv
71,3.0,right,right,1.0,1.4287,0.0,11.0,11.0,11.0,1.0,2238537701-251772.jpg,2592380138-56727.jpg,A3HFB277V5OXY0_2022-12-12_10h12.20.926.csv
72,2.0,right,left,0.0,1.2996,0.0,12.0,12.0,12.0,1.0,2238521157-323782.jpg,2964218374-144968.jpg,A3HFB277V5OXY0_2022-12-12_10h12.20.926.csv
73,3.0,right,right,1.0,1.1449,0.0,13.0,13.0,13.0,1.0,2864904453-63932.jpg,2898632385-217137.jpg,A3HFB277V5OXY0_2022-12-12_10h12.20.926.csv
74,1.0,left,right,0.0,1.1004,0.0,14.0,14.0,14.0,1.0,2981231446-294731.jpg,2986450330-221526.jpg,A3HFB277V5OXY0_2022-12-12_10h12.20.926.csv
75,2.0,left,right,0.0,1.4222,0.0,15.0,15.0,15.0,1.0,2986400320-221190.jpg,2238470979-92615.jpg,A3HFB277V5OXY0_2022-12-12_10h12.20.926.csv
76,2.0,right,left,0.0,1.0586,0.0,16.0,16.0,16.0,1.0,2446758985-197610.jpg,2274829821-263682.jpg,A3HFB277V5OXY0_2022-12-12_10h12.20.926.csv
77,3.0,right,right,1.0,1.0571,0.0,17.0,17.0,17.0,1.0,2446760917-347439.jpg,2964216465-219242.jpg,A3HFB277V5OXY0_2022-12-12_10h12.20.926.csv
78,3.0,left,right,0.0,0.9109,0.0,18.0,18.0,18.0,1.0,2446758985-197609.jpg,2984618344-146295.jpg,A3HFB277V5OXY0_2022-12-12_10h12.20.926.csv
79,2.0,left,right,0.0,0.8859,0.0,19.0,19.0,19.0,1.0,2238584869-113153.jpg,2981241419-145844.jpg,A3HFB277V5OXY0_2022-12-12_10h12.20.926.csv
80,1.0,right,left,0.0,0.8119,0.0,20.0,20.0,20.0,1.0,2238481575-168208.jpg,2883255450-215311.jpg,A3HFB277V5OXY0_2022-12-12_10h12.20.926.csv
81,1.0,left,right,0.0,0.7318,0.0,21.0,21.0,21.0,1.0,2883254439-140941.jpg,2989724308-73928.jpg,A3HFB277V5OXY0_2022-12-12_10h12.20.926.csv
82,2.0,left,left,1.0,0.7307,0.0,22.0,22.0,22.0,1.0,2883255450-215309.jpg,2868476439-138927.jpg,A3HFB277V5OXY0_2022-12-12_10h12.20.926.csv
83,1.0,left,right,0.0,0.7664,0.0,23.0,23.0,23.0,1.0,2986408352-371293.jpg,2868488422-363713.jpg,A3HFB277V5OXY0_2022-12-12_10h12.20.926.csv
84,3.0,left,left,1.0,0.6935,0.0,24.0,24.0,24.0,1.0,2238499155-170911.jpg,2238373603-13733.jpg,A3HFB277V5OXY0_2022-12-12_10h12.20.926.csv
85,2.0,left,right,0.0,0.7476,0.0,25.0,25.0,25.0,1.0,2446760940-198145.jpg,2592380188-56743.jpg,A3HFB277V5OXY0_2022-12-12_10h12.20.926.csv
86,2.0,right,left,0.0,0.8277,0.0,26.0,26.0,26.0,1.0,2449443292-348022.jpg,2901939379-143479.jpg,A3HFB277V5OXY0_2022-12-12_10h12.20.926.csv
87,3.0,left,right,0.0,0.8202,0.0,27.0,27.0,27.0,1.0,2898617468-68274.jpg,2862684406-285700.jpg,A3HFB277V5OXY0_2022-12-12_10h12.20.926.csv
88,2.0,right,left,0.0,0.743,0.0,28.0,28.0,28.0,1.0,2592380049-131077.jpg,2238375302-311538.jpg,A3HFB277V5OXY0_2022-12-12_10h12.20.926.csv
89,1.0,right,right,1.0,0.8736,0.0,29.0,29.0,29.0,1.0,2452380166-273110.jpg,2883254439-140940.jpg,A3HFB277V5OXY0_2022-12-12_10h12.20.926.csv
90,3.0,right,left,0.0,0.6912,0.0,30.0,30.0,30.0,1.0,2446760226-272005.jpg,2575964140-205050.jpg,A3HFB277V5OXY0_2022-12-12_10h12.20.926.csv
91,3.0,left,left,1.0,7.5341,0.0,31.0,31.0,31.0,1.0,2238126735-154721.jpg,2901951430-218724.jpg,A3HFB277V5OXY0_2022-12-12_10h12.20.926.csv
92,2.0,right,right,1.0,14.5996,0.0,32.0,32.0,32.0,1.0,2986455341-296758.jpg,2862691449-137104.jpg,A3HFB277V5OXY0_2022-12-12_10h12.20.926.csv
93,1.0,left,left,1.0,0.9302,0.0,33.0,33.0,33.0,1.0,2452380166-273109.jpg,2452380171-273112.jpg,A3HFB277V5OXY0_2022-12-12_10h12.20.926.csv
94,3.0,left,right,0.0,0.8004,0.0,34.0,34.0,34.0,1.0,2238575092-334269.jpg,2964218374-144967.jpg,A3HFB277V5OXY0_2022-12-12_10h12.20.926.csv
95,1.0,right,left,0.0,0.7047,0.0,35.0,35.0,35.0,1.0,2238436632-314069.jpg,2898635427-367120.jpg,A3HFB277V5OXY0_2022-12-12_10h12.20.926.csv
96,1.0,right,right,1.0,0.7828,0.0,36.0,36.0,36.0,1.0,2446760483-49429.jpg,2331570830-189984.jpg,A3HFB277V5OXY0_2022-12-12_10h12.20.926.csv
97,1.0,left,left,1.0,0.7822,0.0,37.0,37.0,37.0,1.0,2864909447-362146.jpg,2874316384-140749.jpg,A3HFB277V5OXY0_2022-12-12_10h12.20.926.csv
98,1.0,left,right,0.0,1.6205,0.0,38.0,38.0,38.0,1.0,2898626385-216899.jpg,2989715328-73658.jpg,A3HFB277V5OXY0_2022-12-12_10h12.20.926.csv
99,1.0,left,left,1.0,0.9578,0.0,39.0,39.0,39.0,1.0,2460547467-349421.jpg,2901934573-69336.jpg,A3HFB277V5OXY0_2022-12-12_10h12.20.926.csv
100,2.0,right,left,0.0,25.997,0.0,40.0,40.0,40.0,1.0,2898633321-291943.jpg,2238584018-38513.jpg,A3HFB277V5OXY0_2022-12-12_10h12.20.926.csv
101,1.0,left,right,0.0,27.6653,0.0,41.0,41.0,41.0,1.0,2964213381-294060.jpg,2898631359-142720.jpg,A3HFB277V5OXY0_2022-12-12_10h12.20.926.csv
102,3.0,left,right,0.0,9.9651,0.0,42.0,42.0,42.0,1.0,2864906345-212360.jpg,2994403305-222559.jpg,A3HFB277V5OXY0_2022-12-12_10h12.20.926.csv
103,3.0,right,right,1.0,22.471,0.0,43.0,43.0,43.0,1.0,2898617396-291219.jpg,2964209380-218956.jpg,A3HFB277V5OXY0_2022-12-12_10h12.20.926.csv
104,1.0,right,left,0.0,15.0101,0.0,44.0,44.0,44.0,1.0,2238570142-333223.jpg,2238496457-319749.jpg,A3HFB277V5OXY0_2022-12-12_10h12.20.926.csv
105,3.0,right,right,1.0,1.2553,0.0,45.0,45.0,45.0,1.0,2864911339-138231.jpg,2449442529-124446.jpg,A3HFB277V5OXY0_2022-12-12_10h12.20.926.csv
106,2.0,left,right,0.0,1.3412,0.0,46.0,46.0,46.0,1.0,2898632385-217138.jpg,2273188118-40829.jpg,A3HFB277V5OXY0_2022-12-12_10h12.20.926.csv
107,3.0,left,left,1.0,0.9489,0.0,47.0,47.0,47.0,1.0,2898633480-217190.jpg,2237858043-1434.jpg,A3HFB277V5OXY0_2022-12-12_10h12.20.926.csv
108,1.0,right,right,1.0,1.0052,0.0,48.0,48.0,48.0,1.0,2238573549-110485.jpg,2238516618-25604.jpg,A3HFB277V5OXY0_2022-12-12_10h12.20.926.csv
109,2.0,right,right,1.0,20.0823,0.0,49.0,49.0,49.0,1.0,2825702353-60662.jpg,2994405328-74628.jpg,A3HFB277V5OXY0_2022-12-12_10h12.20.926.csv
110,3.0,left,right,0.0,1.4176,0.0,50.0,50.0,50.0,1.0,2868485396-288511.jpg,2238380314-88261.jpg,A3HFB277V5OXY0_2022-12-12_10h12.20.926.csv
111,3.0,right,right,1.0,0.8429,0.0,51.0,51.0,51.0,1.0,2446760306-272024.jpg,2238521193-26286.jpg,A3HFB277V5OXY0_2022-12-12_10h12.20.926.csv
112,1.0,left,right,0.0,0.961,0.0,52.0,52.0,52.0,1.0,2238550049-105691.jpg,2238482972-317759.jpg,A3HFB277V5OXY0_2022-12-12_10h12.20.926.csv
113,2.0,right,right,1.0,9.2771,0.0,53.0,53.0,53.0,1.0,2592380177-354626.jpg,2238561223-33794.jpg,A3HFB277V5OXY0_2022-12-12_10h12.20.926.csv
114,2.0,left,right,0.0,0.9923,0.0,54.0,54.0,54.0,1.0,2238471391-240918.jpg,2901943388-69995.jpg,A3HFB277V5OXY0_2022-12-12_10h12.20.926.csv
115,1.0,left,left,1.0,0.0203,0.0,55.0,55.0,55.0,1.0,2446759803-49249.jpg,2592380177-354629.jpg,A3HFB277V5OXY0_2022-12-12_10h12.20.926.csv
116,2.0,left,right,0.0,0.6984,0.0,56.0,56.0,56.0,1.0,2901938432-367627.jpg,2856919327-359675.jpg,A3HFB277V5OXY0_2022-12-12_10h12.20.926.csv
117,1.0,right,right,1.0,0.5281,0.0,57.0,57.0,57.0,1.0,2804906319-133082.jpg,2238480434-93829.jpg,A3HFB277V5OXY0_2022-12-12_10h12.20.926.csv
118,3.0,right,left,0.0,0.0132,0.0,58.0,58.0,58.0,1.0,2901936407-367476.jpg,2901934573-69337.jpg,A3HFB277V5OXY0_2022-12-12_10h12.20.926.csv
119,2.0,left,right,0.0,0.1953,0.0,59.0,59.0,59.0,1.0,2964213381-294061.jpg,2981234334-145491.jpg,A3HFB277V5OXY0_2022-12-12_10h12.20.926.csv
120,3.0,right,right,1.0,2.9255,0.0,0.0,0.0,0.0,1.0,2452381442-348755.jpg,2238584018-38513.jpg,A177M9OIBDUWFW_2022-12-12_10h21.40.131.csv
121,2.0,right,right,1.0,2.1144,0.0,1.0,1.0,1.0,1.0,2901951459-144433.jpg,2238429999-90218.jpg,A177M9OIBDUWFW_2022-12-12_10h21.40.131.csv
122,1.0,right,right,1.0,1.2504,0.0,2.0,2.0,2.0,1.0,2901934573-69336.jpg,2460547467-349421.jpg,A177M9OIBDUWFW_2022-12-12_10h21.40.131.csv
123,1.0,left,left,1.0,1.999799999,0.0,3.0,3.0,3.0,1.0,2898617468-68274.jpg,2512875899-126682.jpg,A177M9OIBDUWFW_2022-12-12_10h21.40.131.csv
124,1.0,left,right,0.0,2.017099998,0.0,4.0,4.0,4.0,1.0,2898624426-291546.jpg,2986402377-371266.jpg,A177M9OIBDUWFW_2022-12-12_10h21.40.131.csv
125,3.0,right,left,0.0,1.8901,0.0,5.0,5.0,5.0,1.0,2856916345-210056.jpg,2986408352-371293.jpg,A177M9OIBDUWFW_2022-12-12_10h21.40.131.csv
126,1.0,left,right,0.0,2.148200001,0.0,6.0,6.0,6.0,1.0,2964224310-219527.jpg,2238380178-14011.jpg,A177M9OIBDUWFW_2022-12-12_10h21.40.131.csv
127,2.0,right,left,0.0,1.495200001,0.0,7.0,7.0,7.0,1.0,2986450334-147216.jpg,2898633480-217190.jpg,A177M9OIBDUWFW_2022-12-12_10h21.40.131.csv
128,2.0,right,right,1.0,1.217799999,0.0,8.0,8.0,8.0,1.0,2238468265-166556.jpg,2446759803-49249.jpg,A177M9OIBDUWFW_2022-12-12_10h21.40.131.csv
129,2.0,left,left,1.0,1.485299999,0.0,9.0,9.0,9.0,1.0,2868485396-288511.jpg,2868472420-213024.jpg,A177M9OIBDUWFW_2022-12-12_10h21.40.131.csv
130,2.0,right,right,1.0,1.595799999,0.0,10.0,10.0,10.0,1.0,2874301437-363905.jpg,2238521193-26286.jpg,A177M9OIBDUWFW_2022-12-12_10h21.40.131.csv
131,2.0,left,right,0.0,1.692400002,0.0,11.0,11.0,11.0,1.0,2883255450-215311.jpg,2868485399-139476.jpg,A177M9OIBDUWFW_2022-12-12_10h21.40.131.csv
132,1.0,right,right,1.0,2.028900002,0.0,12.0,12.0,12.0,1.0,2986397365-221133.jpg,2864906345-212360.jpg,A177M9OIBDUWFW_2022-12-12_10h21.40.131.csv
133,1.0,right,right,1.0,1.902700001,0.0,13.0,13.0,13.0,1.0,2986450330-221526.jpg,2981231446-294731.jpg,A177M9OIBDUWFW_2022-12-12_10h21.40.131.csv
134,3.0,left,left,1.0,2.0496,0.0,14.0,14.0,14.0,1.0,2592380138-56727.jpg,2238537701-251772.jpg,A177M9OIBDUWFW_2022-12-12_10h21.40.131.csv
135,1.0,left,left,1.0,1.2616,0.0,15.0,15.0,15.0,1.0,2331570830-189984.jpg,2446760483-49429.jpg,A177M9OIBDUWFW_2022-12-12_10h21.40.131.csv
136,3.0,right,left,0.0,3.2836,0.0,16.0,16.0,16.0,1.0,2446760917-347439.jpg,2964216465-219242.jpg,A177M9OIBDUWFW_2022-12-12_10h21.40.131.csv
137,1.0,right,right,1.0,1.1875,0.0,17.0,17.0,17.0,1.0,2238436632-314069.jpg,2898635427-367120.jpg,A177M9OIBDUWFW_2022-12-12_10h21.40.131.csv
138,2.0,left,left,1.0,1.4735,0.0,18.0,18.0,18.0,1.0,2238129579-80916.jpg,2898618444-142233.jpg,A177M9OIBDUWFW_2022-12-12_10h21.40.131.csv
139,2.0,left,left,1.0,1.918200001,0.0,19.0,19.0,19.0,1.0,2238496457-319749.jpg,2592380234-131135.jpg,A177M9OIBDUWFW_2022-12-12_10h21.40.131.csv
140,2.0,left,left,1.0,1.479200001,0.0,20.0,20.0,20.0,1.0,2238499155-170911.jpg,2452380832-348593.jpg,A177M9OIBDUWFW_2022-12-12_10h21.40.131.csv
141,2.0,right,right,1.0,1.4311,0.0,21.0,21.0,21.0,1.0,2238345946-235007.jpg,2901934573-69337.jpg,A177M9OIBDUWFW_2022-12-12_10h21.40.131.csv
142,2.0,left,left,1.0,1.224700001,0.0,22.0,22.0,22.0,1.0,2986400320-221190.jpg,2238470979-92615.jpg,A177M9OIBDUWFW_2022-12-12_10h21.40.131.csv
143,1.0,right,right,1.0,1.9139,0.0,23.0,23.0,23.0,1.0,2238360884-87525.jpg,2898632385-217137.jpg,A177M9OIBDUWFW_2022-12-12_10h21.40.131.csv
144,2.0,left,left,1.0,1.5841,0.0,24.0,24.0,24.0,1.0,2238575092-334269.jpg,2860304305-210777.jpg,A177M9OIBDUWFW_2022-12-12_10h21.40.131.csv
145,3.0,left,left,1.0,1.659,0.0,25.0,25.0,25.0,1.0,2238561223-33794.jpg,2883271323-68049.jpg,A177M9OIBDUWFW_2022-12-12_10h21.40.131.csv
146,3.0,right,right,1.0,1.217,0.0,26.0,26.0,26.0,1.0,2989724308-73930.jpg,2964213381-294060.jpg,A177M9OIBDUWFW_2022-12-12_10h21.40.131.csv
147,1.0,right,left,0.0,1.8361,0.0,27.0,27.0,27.0,1.0,2868488422-363715.jpg,2901941426-292805.jpg,A177M9OIBDUWFW_2022-12-12_10h21.40.131.csv
148,3.0,right,right,1.0,2.6411,0.0,28.0,28.0,28.0,1.0,2417207511-266975.jpg,2883254439-140941.jpg,A177M9OIBDUWFW_2022-12-12_10h21.40.131.csv
149,1.0,right,right,1.0,1.4431,0.0,29.0,29.0,29.0,1.0,2238481610-168214.jpg,2449442529-124446.jpg,A177M9OIBDUWFW_2022-12-12_10h21.40.131.csv
150,1.0,right,left,0.0,1.936199999,0.0,30.0,30.0,30.0,1.0,2804906319-133082.jpg,2238480434-93829.jpg,A177M9OIBDUWFW_2022-12-12_10h21.40.131.csv
151,2.0,left,left,1.0,1.1669,0.0,31.0,31.0,31.0,1.0,2964213381-294061.jpg,2981234334-145491.jpg,A177M9OIBDUWFW_2022-12-12_10h21.40.131.csv
152,2.0,right,left,0.0,2.569799999,0.0,32.0,32.0,32.0,1.0,2898636443-69154.jpg,2512876023-52283.jpg,A177M9OIBDUWFW_2022-12-12_10h21.40.131.csv
153,3.0,right,right,1.0,2.4126,0.0,33.0,33.0,33.0,1.0,2812983311-281946.jpg,2883254439-140940.jpg,A177M9OIBDUWFW_2022-12-12_10h21.40.131.csv
154,1.0,right,left,0.0,1.5015,0.0,34.0,34.0,34.0,1.0,2237949408-4018.jpg,2883272438-68133.jpg,A177M9OIBDUWFW_2022-12-12_10h21.40.131.csv
155,3.0,right,right,1.0,2.391299999,0.0,35.0,35.0,35.0,1.0,2984618344-146295.jpg,2446758985-197609.jpg,A177M9OIBDUWFW_2022-12-12_10h21.40.131.csv
156,2.0,right,right,1.0,1.476199999,0.0,36.0,36.0,36.0,1.0,2238547522-328488.jpg,2575964140-205050.jpg,A177M9OIBDUWFW_2022-12-12_10h21.40.131.csv
157,1.0,left,left,1.0,2.247900002,0.0,37.0,37.0,37.0,1.0,2238584869-113153.jpg,2864901420-212147.jpg,A177M9OIBDUWFW_2022-12-12_10h21.40.131.csv
158,2.0,left,left,1.0,2.491699999,0.0,38.0,38.0,38.0,1.0,2864909447-362146.jpg,2238555799-106905.jpg,A177M9OIBDUWFW_2022-12-12_10h21.40.131.csv
159,1.0,left,left,1.0,1.123800001,0.0,39.0,39.0,39.0,1.0,2901939379-143479.jpg,2986450334-147215.jpg,A177M9OIBDUWFW_2022-12-12_10h21.40.131.csv
160,3.0,right,right,1.0,1.638700001,0.0,40.0,40.0,40.0,1.0,2986399339-146857.jpg,2238471391-240918.jpg,A177M9OIBDUWFW_2022-12-12_10h21.40.131.csv
161,3.0,left,left,1.0,1.0944,0.0,41.0,41.0,41.0,1.0,2446760940-198145.jpg,2446760692-347392.jpg,A177M9OIBDUWFW_2022-12-12_10h21.40.131.csv
162,3.0,left,right,0.0,1.5945,0.0,42.0,42.0,42.0,1.0,2238550049-105691.jpg,2964219468-71238.jpg,A177M9OIBDUWFW_2022-12-12_10h21.40.131.csv
163,3.0,right,left,0.0,1.716900002,0.0,43.0,43.0,43.0,1.0,2862687442-360837.jpg,2274829821-263682.jpg,A177M9OIBDUWFW_2022-12-12_10h21.40.131.csv
164,1.0,left,left,1.0,2.485,0.0,44.0,44.0,44.0,1.0,2238375302-311538.jpg,2592380255-205552.jpg,A177M9OIBDUWFW_2022-12-12_10h21.40.131.csv
165,1.0,left,left,1.0,1.589700001,0.0,45.0,45.0,45.0,1.0,2898632385-217138.jpg,2575120738-55529.jpg,A177M9OIBDUWFW_2022-12-12_10h21.40.131.csv
166,3.0,right,right,1.0,1.497299999,0.0,46.0,46.0,46.0,1.0,2883273443-68192.jpg,2994405328-74628.jpg,A177M9OIBDUWFW_2022-12-12_10h21.40.131.csv
167,3.0,right,right,1.0,1.1214,0.0,47.0,47.0,47.0,1.0,2238380901-236499.jpg,2452380166-273109.jpg,A177M9OIBDUWFW_2022-12-12_10h21.40.131.csv
168,1.0,left,left,1.0,2.788400002,0.0,48.0,48.0,48.0,1.0,2964209380-218956.jpg,2868488456-288710.jpg,A177M9OIBDUWFW_2022-12-12_10h21.40.131.csv
169,1.0,right,right,1.0,1.3436,0.0,49.0,49.0,49.0,1.0,2989715328-73658.jpg,2898626385-216899.jpg,A177M9OIBDUWFW_2022-12-12_10h21.40.131.csv
170,1.0,right,right,1.0,1.3386,0.0,50.0,50.0,50.0,1.0,2238540598-30035.jpg,2862691449-137104.jpg,A177M9OIBDUWFW_2022-12-12_10h21.40.131.csv
171,3.0,right,right,1.0,2.341700001,0.0,51.0,51.0,51.0,1.0,2238562336-256366.jpg,2883255450-215309.jpg,A177M9OIBDUWFW_2022-12-12_10h21.40.131.csv
172,2.0,right,right,1.0,1.359199999,0.0,52.0,52.0,52.0,1.0,2238521157-323782.jpg,2964218374-144968.jpg,A177M9OIBDUWFW_2022-12-12_10h21.40.131.csv
173,2.0,left,left,1.0,1.7619,0.0,53.0,53.0,53.0,1.0,2238516618-25604.jpg,2862686459-136888.jpg,A177M9OIBDUWFW_2022-12-12_10h21.40.131.csv
174,3.0,right,right,1.0,3.5446,0.0,54.0,54.0,54.0,1.0,2424122568-45517.jpg,2901938432-367627.jpg,A177M9OIBDUWFW_2022-12-12_10h21.40.131.csv
175,3.0,left,right,0.0,2.4439,0.0,55.0,55.0,55.0,1.0,2238126735-154721.jpg,2901951430-218724.jpg,A177M9OIBDUWFW_2022-12-12_10h21.40.131.csv
176,2.0,left,left,1.0,1.6351,0.0,56.0,56.0,56.0,1.0,2446760524-123999.jpg,2238552469-106359.jpg,A177M9OIBDUWFW_2022-12-12_10h21.40.131.csv
177,2.0,right,right,1.0,3.8305,0.0,57.0,57.0,57.0,1.0,2446760226-272006.jpg,2579432576-279079.jpg,A177M9OIBDUWFW_2022-12-12_10h21.40.131.csv
178,3.0,right,left,0.0,2.309,0.0,58.0,58.0,58.0,1.0,2238436851-238821.jpg,2868475410-213219.jpg,A177M9OIBDUWFW_2022-12-12_10h21.40.131.csv
179,3.0,left,left,1.0,2.0815,0.0,59.0,59.0,59.0,1.0,2625337302-355866.jpg,2598726160-205998.jpg,A177M9OIBDUWFW_2022-12-12_10h21.40.131.csv
180,3.0,right,right,1.0,3.54,0.0,0.0,0.0,0.0,1.0,2874303453-66056.jpg,2864909447-362146.jpg,AHZP05WVFXXCG_2022-12-12_11h20.48.549.csv
181,1.0,right,right,1.0,1.6222,0.0,1.0,1.0,1.0,1.0,2238436632-314069.jpg,2898635427-367120.jpg,AHZP05WVFXXCG_2022-12-12_11h20.48.549.csv
182,1.0,left,left,1.0,1.7961,0.0,2.0,2.0,2.0,1.0,2274829821-263682.jpg,2238570526-257884.jpg,AHZP05WVFXXCG_2022-12-12_11h20.48.549.csv
183,2.0,left,left,1.0,3.1545,0.0,3.0,3.0,3.0,1.0,2238129579-80916.jpg,2898618444-142233.jpg,AHZP05WVFXXCG_2022-12-12_11h20.48.549.csv
184,3.0,left,left,1.0,1.1543,0.0,4.0,4.0,4.0,1.0,2901934573-69337.jpg,2901936407-367476.jpg,AHZP05WVFXXCG_2022-12-12_11h20.48.549.csv
185,3.0,left,left,1.0,1.1137,0.0,5.0,5.0,5.0,1.0,2238375302-311538.jpg,2460547508-51571.jpg,AHZP05WVFXXCG_2022-12-12_11h20.48.549.csv
186,1.0,left,left,1.0,2.0892,0.0,6.0,6.0,6.0,1.0,2883254439-140940.jpg,2452380166-273110.jpg,AHZP05WVFXXCG_2022-12-12_11h20.48.549.csv
187,1.0,left,left,1.0,1.4058,0.0,7.0,7.0,7.0,1.0,2625337302-355866.jpg,2425492472-343825.jpg,AHZP05WVFXXCG_2022-12-12_11h20.48.549.csv
188,3.0,left,left,1.0,1.4049,0.0,8.0,8.0,8.0,1.0,2901939379-143479.jpg,2864909422-362141.jpg,AHZP05WVFXXCG_2022-12-12_11h20.48.549.csv
189,3.0,left,left,1.0,1.4022,0.0,9.0,9.0,9.0,1.0,2238575092-334269.jpg,2964218374-144967.jpg,AHZP05WVFXXCG_2022-12-12_11h20.48.549.csv
190,2.0,right,right,1.0,2.0453,0.0,10.0,10.0,10.0,1.0,2238480803-19739.jpg,2898632385-217137.jpg,AHZP05WVFXXCG_2022-12-12_11h20.48.549.csv
191,2.0,left,left,1.0,1.737,0.0,11.0,11.0,11.0,1.0,2238471391-240918.jpg,2901943388-69995.jpg,AHZP05WVFXXCG_2022-12-12_11h20.48.549.csv
192,2.0,left,left,1.0,1.8785,0.0,12.0,12.0,12.0,1.0,2868475410-213219.jpg,2575964140-205051.jpg,AHZP05WVFXXCG_2022-12-12_11h20.48.549.csv
193,2.0,right,right,1.0,1.5832,0.0,13.0,13.0,13.0,1.0,2238470079-92499.jpg,2460547467-349421.jpg,AHZP05WVFXXCG_2022-12-12_11h20.48.549.csv
194,2.0,right,right,1.0,2.5733,0.0,14.0,14.0,14.0,1.0,2238585512-336576.jpg,2898617468-68274.jpg,AHZP05WVFXXCG_2022-12-12_11h20.48.549.csv
195,1.0,left,left,1.0,1.5521,0.0,15.0,15.0,15.0,1.0,2883255450-215311.jpg,2238481575-168208.jpg,AHZP05WVFXXCG_2022-12-12_11h20.48.549.csv
196,3.0,right,left,0.0,1.4122,0.0,16.0,16.0,16.0,1.0,2417207511-266975.jpg,2883254439-140941.jpg,AHZP05WVFXXCG_2022-12-12_11h20.48.549.csv
197,2.0,left,left,1.0,2.1138,0.0,17.0,17.0,17.0,1.0,2901938432-367627.jpg,2856919327-359675.jpg,AHZP05WVFXXCG_2022-12-12_11h20.48.549.csv
198,2.0,left,left,1.0,1.63,0.0,18.0,18.0,18.0,1.0,2238521193-26286.jpg,2874301437-363905.jpg,AHZP05WVFXXCG_2022-12-12_11h20.48.549.csv
199,2.0,left,right,0.0,2.3945,0.0,19.0,19.0,19.0,1.0,2446760940-198145.jpg,2592380188-56743.jpg,AHZP05WVFXXCG_2022-12-12_11h20.48.549.csv
200,2.0,left,left,1.0,2.0833,0.0,20.0,20.0,20.0,1.0,2868485396-288511.jpg,2868472420-213024.jpg,AHZP05WVFXXCG_2022-12-12_11h20.48.549.csv
201,3.0,left,left,1.0,2.2295,0.0,21.0,21.0,21.0,1.0,2446760524-123999.jpg,2238539138-29878.jpg,AHZP05WVFXXCG_2022-12-12_11h20.48.549.csv
202,1.0,left,right,0.0,1.8574,0.0,22.0,22.0,22.0,1.0,2964224310-219527.jpg,2238380178-14011.jpg,AHZP05WVFXXCG_2022-12-12_11h20.48.549.csv
203,1.0,left,right,0.0,1.5219,0.0,23.0,23.0,23.0,1.0,2883255450-215309.jpg,2238429999-90216.jpg,AHZP05WVFXXCG_2022-12-12_11h20.48.549.csv
204,2.0,right,left,0.0,1.4277,0.0,24.0,24.0,24.0,1.0,2592379781-279345.jpg,2452380166-273109.jpg,AHZP05WVFXXCG_2022-12-12_11h20.48.549.csv
205,3.0,right,right,1.0,1.6338,0.0,25.0,25.0,25.0,1.0,2237858043-1434.jpg,2898633480-217190.jpg,AHZP05WVFXXCG_2022-12-12_11h20.48.549.csv
206,3.0,left,left,1.0,1.4793,0.0,26.0,26.0,26.0,1.0,2238584018-38513.jpg,2452381442-348755.jpg,AHZP05WVFXXCG_2022-12-12_11h20.48.549.csv
207,3.0,left,right,0.0,2.0492,0.0,27.0,27.0,27.0,1.0,2449442529-124446.jpg,2864911339-138231.jpg,AHZP05WVFXXCG_2022-12-12_11h20.48.549.csv
208,1.0,right,left,0.0,1.4112,0.0,28.0,28.0,28.0,1.0,2868488422-363713.jpg,2986408352-371293.jpg,AHZP05WVFXXCG_2022-12-12_11h20.48.549.csv
209,3.0,right,right,1.0,1.6302,0.0,29.0,29.0,29.0,1.0,2238470979-92618.jpg,2238516618-25604.jpg,AHZP05WVFXXCG_2022-12-12_11h20.48.549.csv
210,3.0,right,right,1.0,2.3599,0.0,30.0,30.0,30.0,1.0,2964222378-71332.jpg,2238429999-90218.jpg,AHZP05WVFXXCG_2022-12-12_11h20.48.549.csv
211,3.0,right,right,1.0,2.6282,0.0,31.0,31.0,31.0,1.0,2592380136-279476.jpg,2883272438-68133.jpg,AHZP05WVFXXCG_2022-12-12_11h20.48.549.csv
212,2.0,right,right,1.0,1.3664,0.0,32.0,32.0,32.0,1.0,2986455341-296758.jpg,2862691449-137104.jpg,AHZP05WVFXXCG_2022-12-12_11h20.48.549.csv
213,1.0,right,right,1.0,1.2481,0.0,33.0,33.0,33.0,1.0,2898633421-291973.jpg,2446758985-197609.jpg,AHZP05WVFXXCG_2022-12-12_11h20.48.549.csv
214,2.0,left,left,1.0,1.4777,0.0,34.0,34.0,34.0,1.0,2898624426-291546.jpg,2549106844-127878.jpg,AHZP05WVFXXCG_2022-12-12_11h20.48.549.csv
215,3.0,right,right,1.0,1.3323,0.0,35.0,35.0,35.0,1.0,2901945303-70125.jpg,2901941426-292805.jpg,AHZP05WVFXXCG_2022-12-12_11h20.48.549.csv
216,1.0,right,right,1.0,1.6759,0.0,36.0,36.0,36.0,1.0,2238482920-168428.jpg,2575964140-205050.jpg,AHZP05WVFXXCG_2022-12-12_11h20.48.549.csv
217,1.0,left,left,1.0,1.4303,0.0,37.0,37.0,37.0,1.0,2331570830-189984.jpg,2446760483-49429.jpg,AHZP05WVFXXCG_2022-12-12_11h20.48.549.csv
218,1.0,right,right,1.0,1.5026,0.0,38.0,38.0,38.0,1.0,2592380177-354629.jpg,2446759803-49249.jpg,AHZP05WVFXXCG_2022-12-12_11h20.48.549.csv
219,2.0,right,right,1.0,1.0567,0.0,39.0,39.0,39.0,1.0,2273188118-40829.jpg,2898632385-217138.jpg,AHZP05WVFXXCG_2022-12-12_11h20.48.549.csv
220,3.0,left,left,1.0,1.5045,0.0,40.0,40.0,40.0,1.0,2592380138-56727.jpg,2238537701-251772.jpg,AHZP05WVFXXCG_2022-12-12_11h20.48.549.csv
221,1.0,right,right,1.0,0.948,0.0,41.0,41.0,41.0,1.0,2986450330-221526.jpg,2981231446-294731.jpg,AHZP05WVFXXCG_2022-12-12_11h20.48.549.csv
222,3.0,right,left,0.0,1.9624,0.0,42.0,42.0,42.0,1.0,2986455373-73646.jpg,2238584869-113153.jpg,AHZP05WVFXXCG_2022-12-12_11h20.48.549.csv
223,1.0,left,right,0.0,1.6021,0.0,43.0,43.0,43.0,1.0,2898626385-216899.jpg,2989715328-73658.jpg,AHZP05WVFXXCG_2022-12-12_11h20.48.549.csv
224,2.0,left,right,0.0,1.4046,0.0,44.0,44.0,44.0,1.0,2579432576-279079.jpg,2446760226-272006.jpg,AHZP05WVFXXCG_2022-12-12_11h20.48.549.csv
225,1.0,right,right,1.0,1.654,0.0,45.0,45.0,45.0,1.0,2238482972-317759.jpg,2238550049-105691.jpg,AHZP05WVFXXCG_2022-12-12_11h20.48.549.csv
226,2.0,left,left,1.0,2.1807,0.0,46.0,46.0,46.0,1.0,2964213381-294061.jpg,2981234334-145491.jpg,AHZP05WVFXXCG_2022-12-12_11h20.48.549.csv
227,2.0,right,right,1.0,1.3309,0.0,47.0,47.0,47.0,1.0,2512875796-274856.jpg,2964216465-219242.jpg,AHZP05WVFXXCG_2022-12-12_11h20.48.549.csv
228,1.0,left,right,0.0,2.2839,0.0,48.0,48.0,48.0,1.0,2238126735-154721.jpg,2856919327-359676.jpg,AHZP05WVFXXCG_2022-12-12_11h20.48.549.csv
229,2.0,right,right,1.0,1.0792,0.0,49.0,49.0,49.0,1.0,2238520921-248323.jpg,2964213381-294060.jpg,AHZP05WVFXXCG_2022-12-12_11h20.48.549.csv
230,1.0,left,left,1.0,1.7448,0.0,50.0,50.0,50.0,1.0,2964209380-218956.jpg,2868488456-288710.jpg,AHZP05WVFXXCG_2022-12-12_11h20.48.549.csv
231,3.0,right,right,1.0,2.0044,0.0,51.0,51.0,51.0,1.0,2238538133-29662.jpg,2986400320-221190.jpg,AHZP05WVFXXCG_2022-12-12_11h20.48.549.csv
232,1.0,left,left,1.0,1.2156,0.0,52.0,52.0,52.0,1.0,2864906345-212360.jpg,2986397365-221133.jpg,AHZP05WVFXXCG_2022-12-12_11h20.48.549.csv
233,1.0,left,right,0.0,2.0817,0.0,53.0,53.0,53.0,1.0,2238561223-33794.jpg,2238506233-23904.jpg,AHZP05WVFXXCG_2022-12-12_11h20.48.549.csv
234,2.0,right,right,1.0,1.5486,0.0,54.0,54.0,54.0,1.0,2592380255-205551.jpg,2238480434-93829.jpg,AHZP05WVFXXCG_2022-12-12_11h20.48.549.csv
235,3.0,left,left,1.0,1.9171,0.0,55.0,55.0,55.0,1.0,2238496457-319749.jpg,2460547467-349422.jpg,AHZP05WVFXXCG_2022-12-12_11h20.48.549.csv
236,1.0,right,right,1.0,1.8969,0.0,56.0,56.0,56.0,1.0,2417206274-118542.jpg,2994405328-74628.jpg,AHZP05WVFXXCG_2022-12-12_11h20.48.549.csv
237,3.0,left,left,1.0,1.9444,0.0,57.0,57.0,57.0,1.0,2964218374-144968.jpg,2238525773-27014.jpg,AHZP05WVFXXCG_2022-12-12_11h20.48.549.csv
238,2.0,left,left,1.0,1.2004,0.0,58.0,58.0,58.0,1.0,2238499155-170911.jpg,2452380832-348593.jpg,AHZP05WVFXXCG_2022-12-12_11h20.48.549.csv
239,3.0,left,left,1.0,1.5854,0.0,59.0,59.0,59.0,1.0,2512876023-52283.jpg,2238576267-334532.jpg,AHZP05WVFXXCG_2022-12-12_11h20.48.549.csv
240,1.0,left,left,1.0,2.329700001,0.0,0.0,0.0,0.0,1.0,2238516618-25604.jpg,2238573549-110485.jpg,A389RPZ5TJZQ7D_2022-12-12_10h12.54.952.csv
241,1.0,left,left,1.0,1.755,0.0,1.0,1.0,1.0,1.0,2898632385-217137.jpg,2238360884-87525.jpg,A389RPZ5TJZQ7D_2022-12-12_10h12.54.952.csv
242,3.0,right,right,1.0,4.7761,0.0,2.0,2.0,2.0,1.0,2417207511-266975.jpg,2883254439-140941.jpg,A389RPZ5TJZQ7D_2022-12-12_10h12.54.952.csv
243,3.0,left,left,1.0,2.570299999,0.0,3.0,3.0,3.0,1.0,2446758985-197609.jpg,2984618344-146295.jpg,A389RPZ5TJZQ7D_2022-12-12_10h12.54.952.csv
244,1.0,left,left,1.0,1.494200001,0.0,4.0,4.0,4.0,1.0,2625337302-355866.jpg,2425492472-343825.jpg,A389RPZ5TJZQ7D_2022-12-12_10h12.54.952.csv
245,1.0,left,right,0.0,3.7625,0.0,5.0,5.0,5.0,1.0,2446760940-198145.jpg,2449443300-198739.jpg,A389RPZ5TJZQ7D_2022-12-12_10h12.54.952.csv
246,1.0,left,left,1.0,2.295099998,0.0,6.0,6.0,6.0,1.0,2964218374-144968.jpg,2238411877-313125.jpg,A389RPZ5TJZQ7D_2022-12-12_10h12.54.952.csv
247,3.0,left,left,1.0,2.908200001,0.0,7.0,7.0,7.0,1.0,2238499155-170911.jpg,2238373603-13733.jpg,A389RPZ5TJZQ7D_2022-12-12_10h12.54.952.csv
248,2.0,left,left,1.0,2.3691,0.0,8.0,8.0,8.0,1.0,2238550049-105691.jpg,2449443271-272729.jpg,A389RPZ5TJZQ7D_2022-12-12_10h12.54.952.csv
249,3.0,left,left,1.0,1.7349,0.0,9.0,9.0,9.0,1.0,2898632385-217138.jpg,2460547992-349586.jpg,A389RPZ5TJZQ7D_2022-12-12_10h12.54.952.csv
250,3.0,right,right,1.0,3.007799999,0.0,10.0,10.0,10.0,1.0,2862687442-360837.jpg,2274829821-263682.jpg,A389RPZ5TJZQ7D_2022-12-12_10h12.54.952.csv
251,1.0,right,right,1.0,2.5416,0.0,11.0,11.0,11.0,1.0,2868470400-212889.jpg,2238471391-240918.jpg,A389RPZ5TJZQ7D_2022-12-12_10h12.54.952.csv
252,1.0,left,left,1.0,1.812699999,0.0,12.0,12.0,12.0,1.0,2868485396-288511.jpg,2868470456-287597.jpg,A389RPZ5TJZQ7D_2022-12-12_10h12.54.952.csv
253,2.0,right,right,1.0,1.717799999,0.0,13.0,13.0,13.0,1.0,2874301437-363905.jpg,2238521193-26286.jpg,A389RPZ5TJZQ7D_2022-12-12_10h12.54.952.csv
254,2.0,left,right,0.0,5.245800001,0.0,14.0,14.0,14.0,1.0,2238584018-38513.jpg,2898633321-291943.jpg,A389RPZ5TJZQ7D_2022-12-12_10h12.54.952.csv
255,1.0,left,left,1.0,1.426799999,0.0,15.0,15.0,15.0,1.0,2901938432-367627.jpg,2579432708-56394.jpg,A389RPZ5TJZQ7D_2022-12-12_10h12.54.952.csv
256,1.0,left,left,1.0,1.577799999,0.0,16.0,16.0,16.0,1.0,2331570830-189984.jpg,2446760483-49429.jpg,A389RPZ5TJZQ7D_2022-12-12_10h12.54.952.csv
257,3.0,left,left,1.0,2.7131,0.0,17.0,17.0,17.0,1.0,2964224310-219527.jpg,2238490590-169598.jpg,A389RPZ5TJZQ7D_2022-12-12_10h12.54.952.csv
258,3.0,right,right,1.0,2.326299999,0.0,18.0,18.0,18.0,1.0,2864909422-362141.jpg,2901939379-143479.jpg,A389RPZ5TJZQ7D_2022-12-12_10h12.54.952.csv
259,2.0,left,left,1.0,1.865299999,0.0,19.0,19.0,19.0,1.0,2512876023-52283.jpg,2898636443-69154.jpg,A389RPZ5TJZQ7D_2022-12-12_10h12.54.952.csv
260,3.0,right,right,1.0,1.5259,0.0,20.0,20.0,20.0,1.0,2238554179-106663.jpg,2460547467-349421.jpg,A389RPZ5TJZQ7D_2022-12-12_10h12.54.952.csv
261,2.0,left,right,0.0,2.957800001,0.0,21.0,21.0,21.0,1.0,2238126735-154721.jpg,2575122854-130480.jpg,A389RPZ5TJZQ7D_2022-12-12_10h12.54.952.csv
262,3.0,right,right,1.0,2.6724,0.0,22.0,22.0,22.0,1.0,2446760917-347439.jpg,2964216465-219242.jpg,A389RPZ5TJZQ7D_2022-12-12_10h12.54.952.csv
263,3.0,right,right,1.0,2.183,0.0,23.0,23.0,23.0,1.0,2901936309-143207.jpg,2898635427-367120.jpg,A389RPZ5TJZQ7D_2022-12-12_10h12.54.952.csv
264,2.0,right,right,1.0,5.249700001,0.0,24.0,24.0,24.0,1.0,2238547522-328488.jpg,2575964140-205050.jpg,A389RPZ5TJZQ7D_2022-12-12_10h12.54.952.csv
265,2.0,right,right,1.0,2.886299999,0.0,25.0,25.0,25.0,1.0,2868485399-139476.jpg,2883255450-215311.jpg,A389RPZ5TJZQ7D_2022-12-12_10h12.54.952.csv
266,1.0,right,left,0.0,1.5705,0.0,26.0,26.0,26.0,1.0,2868488422-363715.jpg,2901941426-292805.jpg,A389RPZ5TJZQ7D_2022-12-12_10h12.54.952.csv
267,2.0,right,right,1.0,1.569,0.0,27.0,27.0,27.0,1.0,2430664847-345753.jpg,2592380138-56727.jpg,A389RPZ5TJZQ7D_2022-12-12_10h12.54.952.csv
268,2.0,right,left,0.0,2.9925,0.0,28.0,28.0,28.0,1.0,2860304305-210777.jpg,2238575092-334269.jpg,A389RPZ5TJZQ7D_2022-12-12_10h12.54.952.csv
269,1.0,left,left,1.0,2.5031,0.0,29.0,29.0,29.0,1.0,2868475410-213219.jpg,2238216693-10721.jpg,A389RPZ5TJZQ7D_2022-12-12_10h12.54.952.csv
270,3.0,left,left,1.0,7.777699999,0.0,30.0,30.0,30.0,1.0,2994405328-74628.jpg,2883273443-68192.jpg,A389RPZ5TJZQ7D_2022-12-12_10h12.54.952.csv
271,1.0,right,right,1.0,2.440599998,0.0,31.0,31.0,31.0,1.0,2592380255-205552.jpg,2238375302-311538.jpg,A389RPZ5TJZQ7D_2022-12-12_10h12.54.952.csv
272,1.0,right,right,1.0,6.5461,0.0,32.0,32.0,32.0,1.0,2238540598-30035.jpg,2862691449-137104.jpg,A389RPZ5TJZQ7D_2022-12-12_10h12.54.952.csv
273,3.0,left,left,1.0,2.466599998,0.0,33.0,33.0,33.0,1.0,2981231446-294731.jpg,2417207297-342139.jpg,A389RPZ5TJZQ7D_2022-12-12_10h12.54.952.csv
274,1.0,left,right,0.0,3.897800001,0.0,34.0,34.0,34.0,1.0,2452380166-273109.jpg,2452380171-273112.jpg,A389RPZ5TJZQ7D_2022-12-12_10h12.54.952.csv
275,3.0,right,right,1.0,3.823799999,0.0,35.0,35.0,35.0,1.0,2901936407-367476.jpg,2901934573-69337.jpg,A389RPZ5TJZQ7D_2022-12-12_10h12.54.952.csv
276,1.0,right,right,1.0,1.862200001,0.0,36.0,36.0,36.0,1.0,2868488456-288710.jpg,2964209380-218956.jpg,A389RPZ5TJZQ7D_2022-12-12_10h12.54.952.csv
277,3.0,right,right,1.0,2.3381,0.0,37.0,37.0,37.0,1.0,2874303453-66056.jpg,2864909447-362146.jpg,A389RPZ5TJZQ7D_2022-12-12_10h12.54.952.csv
278,2.0,right,right,1.0,5.410400002,0.0,38.0,38.0,38.0,1.0,2449442365-198476.jpg,2898626385-216899.jpg,A389RPZ5TJZQ7D_2022-12-12_10h12.54.952.csv
279,3.0,right,right,1.0,2.2626,0.0,39.0,39.0,39.0,1.0,2812983311-281946.jpg,2883254439-140940.jpg,A389RPZ5TJZQ7D_2022-12-12_10h12.54.952.csv
280,2.0,right,left,0.0,3.1369,0.0,40.0,40.0,40.0,1.0,2901951459-144433.jpg,2238429999-90218.jpg,A389RPZ5TJZQ7D_2022-12-12_10h12.54.952.csv
281,1.0,right,left,0.0,2.1876,0.0,41.0,41.0,41.0,1.0,2592380177-354629.jpg,2446759803-49249.jpg,A389RPZ5TJZQ7D_2022-12-12_10h12.54.952.csv
282,3.0,left,left,1.0,2.4569,0.0,42.0,42.0,42.0,1.0,2898624426-291546.jpg,2864902304-137862.jpg,A389RPZ5TJZQ7D_2022-12-12_10h12.54.952.csv
283,3.0,left,left,1.0,3.3864,0.0,43.0,43.0,43.0,1.0,2449442529-124446.jpg,2864911339-138231.jpg,A389RPZ5TJZQ7D_2022-12-12_10h12.54.952.csv
284,3.0,left,left,1.0,2.2331,0.0,44.0,44.0,44.0,1.0,2238496457-319749.jpg,2460547467-349422.jpg,A389RPZ5TJZQ7D_2022-12-12_10h12.54.952.csv
285,2.0,left,left,1.0,1.261199999,0.0,45.0,45.0,45.0,1.0,2964213381-294060.jpg,2238520921-248323.jpg,A389RPZ5TJZQ7D_2022-12-12_10h12.54.952.csv
286,2.0,right,right,1.0,6.7105,0.0,46.0,46.0,46.0,1.0,2238585512-336576.jpg,2898617468-68274.jpg,A389RPZ5TJZQ7D_2022-12-12_10h12.54.952.csv
287,2.0,right,right,1.0,1.956,0.0,47.0,47.0,47.0,1.0,2446760226-272006.jpg,2579432576-279079.jpg,A389RPZ5TJZQ7D_2022-12-12_10h12.54.952.csv
288,2.0,left,left,1.0,2.7569,0.0,48.0,48.0,48.0,1.0,2898633480-217190.jpg,2986450334-147216.jpg,A389RPZ5TJZQ7D_2022-12-12_10h12.54.952.csv
289,2.0,right,right,1.0,1.2911,0.0,49.0,49.0,49.0,1.0,2981234334-145491.jpg,2964213381-294061.jpg,A389RPZ5TJZQ7D_2022-12-12_10h12.54.952.csv
290,2.0,right,right,1.0,1.927799999,0.0,50.0,50.0,50.0,1.0,2981241419-145844.jpg,2238584869-113153.jpg,A389RPZ5TJZQ7D_2022-12-12_10h12.54.952.csv
291,3.0,left,right,0.0,1.7559,0.0,51.0,51.0,51.0,1.0,2238480434-93829.jpg,2238479903-19596.jpg,A389RPZ5TJZQ7D_2022-12-12_10h12.54.952.csv
292,1.0,left,left,1.0,1.7275,0.0,52.0,52.0,52.0,1.0,2238129579-80916.jpg,2460547477-349426.jpg,A389RPZ5TJZQ7D_2022-12-12_10h12.54.952.csv
293,1.0,right,right,1.0,2.898099998,0.0,53.0,53.0,53.0,1.0,2238506233-23904.jpg,2238561223-33794.jpg,A389RPZ5TJZQ7D_2022-12-12_10h12.54.952.csv
294,2.0,right,right,1.0,2.598700001,0.0,54.0,54.0,54.0,1.0,2901936369-143233.jpg,2883272438-68133.jpg,A389RPZ5TJZQ7D_2022-12-12_10h12.54.952.csv
295,3.0,right,right,1.0,2.781099998,0.0,55.0,55.0,55.0,1.0,2238538133-29662.jpg,2986400320-221190.jpg,A389RPZ5TJZQ7D_2022-12-12_10h12.54.952.csv
296,1.0,right,right,1.0,1.311900002,0.0,56.0,56.0,56.0,1.0,2986397365-221133.jpg,2864906345-212360.jpg,A389RPZ5TJZQ7D_2022-12-12_10h12.54.952.csv
297,2.0,right,left,0.0,2.227,0.0,57.0,57.0,57.0,1.0,2446759580-197801.jpg,2986408352-371293.jpg,A389RPZ5TJZQ7D_2022-12-12_10h12.54.952.csv
298,1.0,left,left,1.0,2.7189,0.0,58.0,58.0,58.0,1.0,2446760524-123999.jpg,2446760621-272102.jpg,A389RPZ5TJZQ7D_2022-12-12_10h12.54.952.csv
299,2.0,left,right,0.0,1.9845,0.0,59.0,59.0,59.0,1.0,2883255450-215309.jpg,2868476439-138927.jpg,A389RPZ5TJZQ7D_2022-12-12_10h12.54.952.csv
300,3.0,right,right,1.0,11.1915,0.0,0.0,0.0,0.0,1.0,2898618440-216545.jpg,2898626385-216899.jpg,AIXO7JFFSBR5O_2022-12-12_11h49.52.553.csv
301,3.0,right,right,1.0,1.8719,0.0,1.0,1.0,1.0,1.0,2238554179-106663.jpg,2460547467-349421.jpg,AIXO7JFFSBR5O_2022-12-12_11h49.52.553.csv
302,2.0,right,left,0.0,5.0254,0.0,2.0,2.0,2.0,1.0,2512875796-274856.jpg,2964216465-219242.jpg,AIXO7JFFSBR5O_2022-12-12_11h49.52.553.csv
303,3.0,right,right,1.0,1.7673,0.0,3.0,3.0,3.0,1.0,2598726160-205998.jpg,2625337302-355866.jpg,AIXO7JFFSBR5O_2022-12-12_11h49.52.553.csv
304,1.0,right,right,1.0,2.2446,0.0,4.0,4.0,4.0,1.0,2238429999-90216.jpg,2883255450-215309.jpg,AIXO7JFFSBR5O_2022-12-12_11h49.52.553.csv
305,3.0,left,left,1.0,1.7086,0.0,5.0,5.0,5.0,1.0,2994405328-74628.jpg,2883273443-68192.jpg,AIXO7JFFSBR5O_2022-12-12_11h49.52.553.csv
306,3.0,right,right,1.0,2.4906,0.0,6.0,6.0,6.0,1.0,2460547992-349586.jpg,2898632385-217138.jpg,AIXO7JFFSBR5O_2022-12-12_11h49.52.553.csv
307,1.0,left,left,1.0,1.6049,0.0,7.0,7.0,7.0,1.0,2964213381-294060.jpg,2898631359-142720.jpg,AIXO7JFFSBR5O_2022-12-12_11h49.52.553.csv
308,1.0,left,left,1.0,1.7205,0.0,8.0,8.0,8.0,1.0,2446760940-198145.jpg,2449443300-198739.jpg,AIXO7JFFSBR5O_2022-12-12_11h49.52.553.csv
309,1.0,left,left,1.0,1.4793,0.0,9.0,9.0,9.0,1.0,2446758985-197609.jpg,2898633421-291973.jpg,AIXO7JFFSBR5O_2022-12-12_11h49.52.553.csv
310,3.0,left,left,1.0,2.0581,0.0,10.0,10.0,10.0,1.0,2579432576-279079.jpg,2458348144-125787.jpg,AIXO7JFFSBR5O_2022-12-12_11h49.52.553.csv
311,3.0,right,right,1.0,2.6977,0.0,11.0,11.0,11.0,1.0,2237858043-1434.jpg,2898633480-217190.jpg,AIXO7JFFSBR5O_2022-12-12_11h49.52.553.csv
312,1.0,right,left,0.0,2.5217,0.0,12.0,12.0,12.0,1.0,2864908323-64106.jpg,2512876023-52283.jpg,AIXO7JFFSBR5O_2022-12-12_11h49.52.553.csv
313,3.0,left,left,1.0,1.7315,0.0,13.0,13.0,13.0,1.0,2238480434-93829.jpg,2238479903-19596.jpg,AIXO7JFFSBR5O_2022-12-12_11h49.52.553.csv
314,1.0,right,left,0.0,4.0747,0.0,14.0,14.0,14.0,1.0,2864901420-212147.jpg,2238584869-113153.jpg,AIXO7JFFSBR5O_2022-12-12_11h49.52.553.csv
315,2.0,left,right,0.0,3.2197,0.0,15.0,15.0,15.0,1.0,2238496457-319749.jpg,2592380234-131135.jpg,AIXO7JFFSBR5O_2022-12-12_11h49.52.553.csv
316,2.0,left,left,1.0,2.2782,0.0,16.0,16.0,16.0,1.0,2238550049-105691.jpg,2449443271-272729.jpg,AIXO7JFFSBR5O_2022-12-12_11h49.52.553.csv
317,3.0,left,left,1.0,3.628,0.0,17.0,17.0,17.0,1.0,2238561223-33794.jpg,2883271323-68049.jpg,AIXO7JFFSBR5O_2022-12-12_11h49.52.553.csv
318,2.0,left,left,1.0,1.8324,0.0,18.0,18.0,18.0,1.0,2898632385-217137.jpg,2238480803-19739.jpg,AIXO7JFFSBR5O_2022-12-12_11h49.52.553.csv
319,2.0,right,right,1.0,1.4786,0.0,19.0,19.0,19.0,1.0,2868472420-213024.jpg,2868485396-288511.jpg,AIXO7JFFSBR5O_2022-12-12_11h49.52.553.csv
320,1.0,right,right,1.0,2.6417,0.0,20.0,20.0,20.0,1.0,2986450334-147215.jpg,2901939379-143479.jpg,AIXO7JFFSBR5O_2022-12-12_11h49.52.553.csv
321,3.0,left,left,1.0,1.7317,0.0,21.0,21.0,21.0,1.0,2238471391-240918.jpg,2986399339-146857.jpg,AIXO7JFFSBR5O_2022-12-12_11h49.52.553.csv
322,1.0,left,left,1.0,1.7979,0.0,22.0,22.0,22.0,1.0,2452380166-273109.jpg,2452380171-273112.jpg,AIXO7JFFSBR5O_2022-12-12_11h49.52.553.csv
323,3.0,left,left,1.0,1.2814,0.0,23.0,23.0,23.0,1.0,2964224310-219527.jpg,2238490590-169598.jpg,AIXO7JFFSBR5O_2022-12-12_11h49.52.553.csv
324,2.0,right,right,1.0,1.4004,0.0,24.0,24.0,24.0,1.0,2898631429-142736.jpg,2964209380-218956.jpg,AIXO7JFFSBR5O_2022-12-12_11h49.52.553.csv
325,3.0,right,right,1.0,1.8584,0.0,25.0,25.0,25.0,1.0,2901936309-143207.jpg,2898635427-367120.jpg,AIXO7JFFSBR5O_2022-12-12_11h49.52.553.csv
326,2.0,left,left,1.0,1.6713,0.0,26.0,26.0,26.0,1.0,2238429999-90218.jpg,2901951459-144433.jpg,AIXO7JFFSBR5O_2022-12-12_11h49.52.553.csv
327,1.0,right,right,1.0,1.8225,0.0,27.0,27.0,27.0,1.0,2237949408-4018.jpg,2883272438-68133.jpg,AIXO7JFFSBR5O_2022-12-12_11h49.52.553.csv
328,2.0,left,left,1.0,1.9623,0.0,28.0,28.0,28.0,1.0,2901934573-69337.jpg,2238345946-235007.jpg,AIXO7JFFSBR5O_2022-12-12_11h49.52.553.csv
329,2.0,right,right,1.0,1.7318,0.0,29.0,29.0,29.0,1.0,2874301437-363905.jpg,2238521193-26286.jpg,AIXO7JFFSBR5O_2022-12-12_11h49.52.553.csv
330,1.0,right,left,0.0,1.976,0.0,30.0,30.0,30.0,1.0,2238573549-110485.jpg,2238516618-25604.jpg,AIXO7JFFSBR5O_2022-12-12_11h49.52.553.csv
331,1.0,left,left,1.0,1.61,0.0,31.0,31.0,31.0,1.0,2238584018-38513.jpg,2449443163-50093.jpg,AIXO7JFFSBR5O_2022-12-12_11h49.52.553.csv
332,1.0,right,right,1.0,1.8091,0.0,32.0,32.0,32.0,1.0,2868488422-363715.jpg,2901941426-292805.jpg,AIXO7JFFSBR5O_2022-12-12_11h49.52.553.csv
333,2.0,left,left,1.0,1.7204,0.0,33.0,33.0,33.0,1.0,2883255450-215311.jpg,2868485399-139476.jpg,AIXO7JFFSBR5O_2022-12-12_11h49.52.553.csv
334,3.0,left,left,1.0,1.8623,0.0,34.0,34.0,34.0,1.0,2964218374-144968.jpg,2238525773-27014.jpg,AIXO7JFFSBR5O_2022-12-12_11h49.52.553.csv
335,3.0,left,left,1.0,2.4662,0.0,35.0,35.0,35.0,1.0,2238375302-311538.jpg,2460547508-51571.jpg,AIXO7JFFSBR5O_2022-12-12_11h49.52.553.csv
336,2.0,left,right,0.0,2.6766,0.0,36.0,36.0,36.0,1.0,2981231446-294731.jpg,2238568685-183597.jpg,AIXO7JFFSBR5O_2022-12-12_11h49.52.553.csv
337,3.0,left,left,1.0,1.3144,0.0,37.0,37.0,37.0,1.0,2964213381-294061.jpg,2989721347-371917.jpg,AIXO7JFFSBR5O_2022-12-12_11h49.52.553.csv
338,3.0,right,right,1.0,1.7265,0.0,38.0,38.0,38.0,1.0,2901951430-218724.jpg,2238126735-154721.jpg,AIXO7JFFSBR5O_2022-12-12_11h49.52.553.csv
339,2.0,left,left,1.0,1.5089,0.0,39.0,39.0,39.0,1.0,2238575092-334269.jpg,2860304305-210777.jpg,AIXO7JFFSBR5O_2022-12-12_11h49.52.553.csv
340,1.0,right,right,1.0,1.9665,0.0,40.0,40.0,40.0,1.0,2989727350-222011.jpg,2986400320-221190.jpg,AIXO7JFFSBR5O_2022-12-12_11h49.52.553.csv
341,1.0,left,left,1.0,1.7273,0.0,41.0,41.0,41.0,1.0,2862691449-137104.jpg,2238540598-30035.jpg,AIXO7JFFSBR5O_2022-12-12_11h49.52.553.csv
342,1.0,left,left,1.0,1.7355,0.0,42.0,42.0,42.0,1.0,2449442529-124446.jpg,2238481610-168214.jpg,AIXO7JFFSBR5O_2022-12-12_11h49.52.553.csv
343,2.0,right,right,1.0,2.233,0.0,43.0,43.0,43.0,1.0,2238552469-106359.jpg,2446760524-123999.jpg,AIXO7JFFSBR5O_2022-12-12_11h49.52.553.csv
344,3.0,right,right,1.0,2.1014,0.0,44.0,44.0,44.0,1.0,2424122568-45517.jpg,2901938432-367627.jpg,AIXO7JFFSBR5O_2022-12-12_11h49.52.553.csv
345,1.0,right,right,1.0,1.8237,0.0,45.0,45.0,45.0,1.0,2592380177-354629.jpg,2446759803-49249.jpg,AIXO7JFFSBR5O_2022-12-12_11h49.52.553.csv
346,2.0,left,left,1.0,1.7961,0.0,46.0,46.0,46.0,1.0,2238129579-80916.jpg,2898618444-142233.jpg,AIXO7JFFSBR5O_2022-12-12_11h49.52.553.csv
347,1.0,left,left,1.0,1.6759,0.0,47.0,47.0,47.0,1.0,2898624426-291546.jpg,2986402377-371266.jpg,AIXO7JFFSBR5O_2022-12-12_11h49.52.553.csv
348,1.0,right,left,0.0,2.2197,0.0,48.0,48.0,48.0,1.0,2868488422-363713.jpg,2986408352-371293.jpg,AIXO7JFFSBR5O_2022-12-12_11h49.52.553.csv
349,2.0,right,right,1.0,2.4487,0.0,49.0,49.0,49.0,1.0,2237965109-79314.jpg,2883254439-140941.jpg,AIXO7JFFSBR5O_2022-12-12_11h49.52.553.csv
350,3.0,left,left,1.0,1.8733,0.0,50.0,50.0,50.0,1.0,2898617468-68274.jpg,2862684406-285700.jpg,AIXO7JFFSBR5O_2022-12-12_11h49.52.553.csv
351,2.0,right,left,0.0,2.0948,0.0,51.0,51.0,51.0,1.0,2446758985-197610.jpg,2274829821-263682.jpg,AIXO7JFFSBR5O_2022-12-12_11h49.52.553.csv
352,1.0,right,right,1.0,1.7691,0.0,52.0,52.0,52.0,1.0,2986419351-296471.jpg,2592380138-56727.jpg,AIXO7JFFSBR5O_2022-12-12_11h49.52.553.csv
353,2.0,right,right,1.0,2.3832,0.0,53.0,53.0,53.0,1.0,2452380832-348593.jpg,2238499155-170911.jpg,AIXO7JFFSBR5O_2022-12-12_11h49.52.553.csv
354,1.0,left,right,0.0,3.2352,0.0,54.0,54.0,54.0,1.0,2883254439-140940.jpg,2452380166-273110.jpg,AIXO7JFFSBR5O_2022-12-12_11h49.52.553.csv
355,2.0,right,right,1.0,2.9358,0.0,55.0,55.0,55.0,1.0,2238087237-303447.jpg,2864906345-212360.jpg,AIXO7JFFSBR5O_2022-12-12_11h49.52.553.csv
356,2.0,left,left,1.0,1.9578,0.0,56.0,56.0,56.0,1.0,2868475410-213219.jpg,2575964140-205051.jpg,AIXO7JFFSBR5O_2022-12-12_11h49.52.553.csv
357,2.0,right,right,1.0,2.0509,0.0,57.0,57.0,57.0,1.0,2238547522-328488.jpg,2575964140-205050.jpg,AIXO7JFFSBR5O_2022-12-12_11h49.52.553.csv
358,3.0,right,left,0.0,1.7086,0.0,58.0,58.0,58.0,1.0,2458348012-349114.jpg,2331570830-189984.jpg,AIXO7JFFSBR5O_2022-12-12_11h49.52.553.csv
359,3.0,right,right,1.0,2.07,0.0,59.0,59.0,59.0,1.0,2874303453-66056.jpg,2864909447-362146.jpg,AIXO7JFFSBR5O_2022-12-12_11h49.52.553.csv
360,1.0,left,left,1.0,9.0063,0.0,0.0,0.0,0.0,1.0,2238575092-334269.jpg,2592380285-205564.jpg,A2TTYORXHJ7I23_2022-12-12_09h43.50.224.csv
361,3.0,left,left,1.0,10.3753,0.0,1.0,1.0,1.0,1.0,2274829821-263682.jpg,2862687442-360837.jpg,A2TTYORXHJ7I23_2022-12-12_09h43.50.224.csv
362,2.0,left,left,1.0,14.4086,0.0,2.0,2.0,2.0,1.0,2238561223-33794.jpg,2592380177-354626.jpg,A2TTYORXHJ7I23_2022-12-12_09h43.50.224.csv
363,1.0,left,left,1.0,8.0465,0.0,3.0,3.0,3.0,1.0,2964213381-294061.jpg,2238433340-164524.jpg,A2TTYORXHJ7I23_2022-12-12_09h43.50.224.csv
364,2.0,left,left,1.0,13.4671,0.0,4.0,4.0,4.0,1.0,2981231446-294731.jpg,2238568685-183597.jpg,A2TTYORXHJ7I23_2022-12-12_09h43.50.224.csv
365,2.0,right,right,1.0,9.3413,0.0,5.0,5.0,5.0,1.0,2449443292-348022.jpg,2901939379-143479.jpg,A2TTYORXHJ7I23_2022-12-12_09h43.50.224.csv
366,2.0,left,left,1.0,21.2149,0.0,6.0,6.0,6.0,1.0,2964209380-218956.jpg,2898631429-142736.jpg,A2TTYORXHJ7I23_2022-12-12_09h43.50.224.csv
367,1.0,left,left,1.0,11.3841,0.0,7.0,7.0,7.0,1.0,2449442529-124446.jpg,2238481610-168214.jpg,A2TTYORXHJ7I23_2022-12-12_09h43.50.224.csv
368,3.0,left,left,1.0,8.9526,0.0,8.0,8.0,8.0,1.0,2964216465-219242.jpg,2446760917-347439.jpg,A2TTYORXHJ7I23_2022-12-12_09h43.50.224.csv
369,3.0,right,right,1.0,5.9273,0.0,9.0,9.0,9.0,1.0,2238380314-88261.jpg,2868485396-288511.jpg,A2TTYORXHJ7I23_2022-12-12_09h43.50.224.csv
370,1.0,right,right,1.0,8.0751,0.0,10.0,10.0,10.0,1.0,2452380171-273112.jpg,2452380166-273109.jpg,A2TTYORXHJ7I23_2022-12-12_09h43.50.224.csv
371,1.0,right,right,1.0,14.7498,0.0,11.0,11.0,11.0,1.0,2898631359-142720.jpg,2964213381-294060.jpg,A2TTYORXHJ7I23_2022-12-12_09h43.50.224.csv
372,1.0,right,right,1.0,16.9383,0.0,12.0,12.0,12.0,1.0,2579432708-56394.jpg,2901938432-367627.jpg,A2TTYORXHJ7I23_2022-12-12_09h43.50.224.csv
373,3.0,right,right,1.0,6.1426,0.0,13.0,13.0,13.0,1.0,2598726160-205998.jpg,2625337302-355866.jpg,A2TTYORXHJ7I23_2022-12-12_09h43.50.224.csv
374,3.0,left,left,1.0,5.6711,0.0,14.0,14.0,14.0,1.0,2898633480-217190.jpg,2237858043-1434.jpg,A2TTYORXHJ7I23_2022-12-12_09h43.50.224.csv
375,2.0,right,right,1.0,17.0002,0.0,15.0,15.0,15.0,1.0,2238547522-328488.jpg,2575964140-205050.jpg,A2TTYORXHJ7I23_2022-12-12_09h43.50.224.csv
376,3.0,left,left,1.0,9.607,0.0,16.0,16.0,16.0,1.0,2898624426-291546.jpg,2864902304-137862.jpg,A2TTYORXHJ7I23_2022-12-12_09h43.50.224.csv
377,2.0,right,right,1.0,14.016,0.0,17.0,17.0,17.0,1.0,2238510189-98616.jpg,2901941426-292805.jpg,A2TTYORXHJ7I23_2022-12-12_09h43.50.224.csv
378,1.0,right,right,1.0,14.0772,0.0,18.0,18.0,18.0,1.0,2986448334-147157.jpg,2238429999-90218.jpg,A2TTYORXHJ7I23_2022-12-12_09h43.50.224.csv
379,3.0,right,right,1.0,10.8314,0.0,19.0,19.0,19.0,1.0,2238525773-27014.jpg,2964218374-144968.jpg,A2TTYORXHJ7I23_2022-12-12_09h43.50.224.csv
380,1.0,left,left,1.0,10.1242,0.0,20.0,20.0,20.0,1.0,2238129579-80916.jpg,2460547477-349426.jpg,A2TTYORXHJ7I23_2022-12-12_09h43.50.224.csv
381,1.0,left,left,1.0,8.7342,0.0,21.0,21.0,21.0,1.0,2238550049-105691.jpg,2238482972-317759.jpg,A2TTYORXHJ7I23_2022-12-12_09h43.50.224.csv
382,3.0,left,left,1.0,34.3417,0.0,22.0,22.0,22.0,1.0,2238480434-93829.jpg,2238479903-19596.jpg,A2TTYORXHJ7I23_2022-12-12_09h43.50.224.csv
383,1.0,left,left,1.0,4.327,0.0,23.0,23.0,23.0,1.0,2238584869-113153.jpg,2864901420-212147.jpg,A2TTYORXHJ7I23_2022-12-12_09h43.50.224.csv
384,2.0,left,left,1.0,8.8791,0.0,24.0,24.0,24.0,1.0,2883255450-215311.jpg,2868485399-139476.jpg,A2TTYORXHJ7I23_2022-12-12_09h43.50.224.csv
385,2.0,right,right,1.0,4.738,0.0,25.0,25.0,25.0,1.0,2898636443-69154.jpg,2512876023-52283.jpg,A2TTYORXHJ7I23_2022-12-12_09h43.50.224.csv
386,3.0,right,right,1.0,5.752,0.0,26.0,26.0,26.0,1.0,2417207511-266975.jpg,2883254439-140941.jpg,A2TTYORXHJ7I23_2022-12-12_09h43.50.224.csv
387,3.0,left,left,1.0,22.0759,0.0,27.0,27.0,27.0,1.0,2238126735-154721.jpg,2901951430-218724.jpg,A2TTYORXHJ7I23_2022-12-12_09h43.50.224.csv
388,2.0,right,right,1.0,11.7752,0.0,28.0,28.0,28.0,1.0,2430664847-345753.jpg,2592380138-56727.jpg,A2TTYORXHJ7I23_2022-12-12_09h43.50.224.csv
389,2.0,left,left,1.0,6.464,0.0,29.0,29.0,29.0,1.0,2460547467-349421.jpg,2238470079-92499.jpg,A2TTYORXHJ7I23_2022-12-12_09h43.50.224.csv
390,2.0,right,right,1.0,13.4794,0.0,30.0,30.0,30.0,1.0,2449442529-124445.jpg,2331570830-189984.jpg,A2TTYORXHJ7I23_2022-12-12_09h43.50.224.csv
391,2.0,left,left,1.0,8.6351,0.0,31.0,31.0,31.0,1.0,2579432576-279079.jpg,2446760226-272006.jpg,A2TTYORXHJ7I23_2022-12-12_09h43.50.224.csv
392,1.0,right,right,1.0,8.7648,0.0,32.0,32.0,32.0,1.0,2592380255-205552.jpg,2238375302-311538.jpg,A2TTYORXHJ7I23_2022-12-12_09h43.50.224.csv
393,3.0,left,left,1.0,10.1502,0.0,33.0,33.0,33.0,1.0,2898617468-68274.jpg,2862684406-285700.jpg,A2TTYORXHJ7I23_2022-12-12_09h43.50.224.csv
394,3.0,left,left,1.0,20.3677,0.0,34.0,34.0,34.0,1.0,2901934573-69337.jpg,2901936407-367476.jpg,A2TTYORXHJ7I23_2022-12-12_09h43.50.224.csv
395,1.0,left,left,1.0,6.0628,0.0,35.0,35.0,35.0,1.0,2238516618-25604.jpg,2238573549-110485.jpg,A2TTYORXHJ7I23_2022-12-12_09h43.50.224.csv
396,1.0,left,left,1.0,10.4595,0.0,36.0,36.0,36.0,1.0,2446758985-197609.jpg,2898633421-291973.jpg,A2TTYORXHJ7I23_2022-12-12_09h43.50.224.csv
397,2.0,left,left,1.0,15.0855,0.0,37.0,37.0,37.0,1.0,2986408352-371293.jpg,2446759580-197801.jpg,A2TTYORXHJ7I23_2022-12-12_09h43.50.224.csv
398,3.0,left,left,1.0,18.8126,0.0,38.0,38.0,38.0,1.0,2883254439-140940.jpg,2812983311-281946.jpg,A2TTYORXHJ7I23_2022-12-12_09h43.50.224.csv
399,2.0,right,right,1.0,20.4742,0.0,39.0,39.0,39.0,1.0,2449442365-198476.jpg,2898626385-216899.jpg,A2TTYORXHJ7I23_2022-12-12_09h43.50.224.csv
400,3.0,left,left,1.0,4.6519,0.0,40.0,40.0,40.0,1.0,2898632385-217137.jpg,2864904453-63932.jpg,A2TTYORXHJ7I23_2022-12-12_09h43.50.224.csv
401,1.0,right,right,1.0,2.9053,0.0,41.0,41.0,41.0,1.0,2417206274-118542.jpg,2994405328-74628.jpg,A2TTYORXHJ7I23_2022-12-12_09h43.50.224.csv
402,3.0,left,left,1.0,12.1715,0.0,42.0,42.0,42.0,1.0,2868475410-213219.jpg,2238436851-238821.jpg,A2TTYORXHJ7I23_2022-12-12_09h43.50.224.csv
403,2.0,left,left,1.0,3.5604,0.0,43.0,43.0,43.0,1.0,2864909447-362146.jpg,2238555799-106905.jpg,A2TTYORXHJ7I23_2022-12-12_09h43.50.224.csv
404,2.0,left,left,1.0,6.9517,0.0,44.0,44.0,44.0,1.0,2864906345-212360.jpg,2238087237-303447.jpg,A2TTYORXHJ7I23_2022-12-12_09h43.50.224.csv
405,1.0,left,left,1.0,5.2219,0.0,45.0,45.0,45.0,1.0,2238499155-170911.jpg,2446760621-272103.jpg,A2TTYORXHJ7I23_2022-12-12_09h43.50.224.csv
406,1.0,right,right,1.0,11.0408,0.0,46.0,46.0,46.0,1.0,2825712309-134957.jpg,2238521193-26286.jpg,A2TTYORXHJ7I23_2022-12-12_09h43.50.224.csv
407,3.0,left,left,1.0,4.6876,0.0,47.0,47.0,47.0,1.0,2446759803-49249.jpg,2238498786-244797.jpg,A2TTYORXHJ7I23_2022-12-12_09h43.50.224.csv
408,3.0,left,left,1.0,31.5162,0.0,48.0,48.0,48.0,1.0,2446760940-198145.jpg,2446760692-347392.jpg,A2TTYORXHJ7I23_2022-12-12_09h43.50.224.csv
409,1.0,left,left,1.0,5.4238,0.0,49.0,49.0,49.0,1.0,2862691449-137104.jpg,2238540598-30035.jpg,A2TTYORXHJ7I23_2022-12-12_09h43.50.224.csv
410,1.0,right,right,1.0,30.6762,0.0,50.0,50.0,50.0,1.0,2238570142-333223.jpg,2238496457-319749.jpg,A2TTYORXHJ7I23_2022-12-12_09h43.50.224.csv
411,3.0,left,left,1.0,15.9798,0.0,51.0,51.0,51.0,1.0,2883255450-215309.jpg,2238562336-256366.jpg,A2TTYORXHJ7I23_2022-12-12_09h43.50.224.csv
412,2.0,right,right,1.0,5.9078,0.0,52.0,52.0,52.0,1.0,2237941457-301342.jpg,2898635427-367120.jpg,A2TTYORXHJ7I23_2022-12-12_09h43.50.224.csv
413,3.0,left,left,1.0,9.3954,0.0,53.0,53.0,53.0,1.0,2883272438-68133.jpg,2592380136-279476.jpg,A2TTYORXHJ7I23_2022-12-12_09h43.50.224.csv
414,1.0,left,left,1.0,11.7914,0.0,54.0,54.0,54.0,1.0,2898632385-217138.jpg,2575120738-55529.jpg,A2TTYORXHJ7I23_2022-12-12_09h43.50.224.csv
415,2.0,right,left,0.0,30.4416,0.0,55.0,55.0,55.0,1.0,2964213441-294073.jpg,2964224310-219527.jpg,A2TTYORXHJ7I23_2022-12-12_09h43.50.224.csv
416,3.0,left,left,1.0,11.7449,0.0,56.0,56.0,56.0,1.0,2446760524-123999.jpg,2238539138-29878.jpg,A2TTYORXHJ7I23_2022-12-12_09h43.50.224.csv
417,2.0,left,left,1.0,3.5449,0.0,57.0,57.0,57.0,1.0,2986400320-221190.jpg,2238470979-92615.jpg,A2TTYORXHJ7I23_2022-12-12_09h43.50.224.csv
418,2.0,right,right,1.0,2.4404,0.0,58.0,58.0,58.0,1.0,2898633321-291943.jpg,2238584018-38513.jpg,A2TTYORXHJ7I23_2022-12-12_09h43.50.224.csv
419,1.0,right,right,1.0,9.7869,0.0,59.0,59.0,59.0,1.0,2868470400-212889.jpg,2238471391-240918.jpg,A2TTYORXHJ7I23_2022-12-12_09h43.50.224.csv
420,3.0,left,left,1.0,2.5633,0.0,0.0,0.0,0.0,1.0,2512876023-52283.jpg,2238576267-334532.jpg,A3SFP9VSFJY2YW_2022-12-12_12h07.08.411.csv
421,2.0,left,left,1.0,1.2896,0.0,1.0,1.0,1.0,1.0,2986408352-371293.jpg,2446759580-197801.jpg,A3SFP9VSFJY2YW_2022-12-12_12h07.08.411.csv
422,2.0,left,left,1.0,1.1707,0.0,2.0,2.0,2.0,1.0,2592380138-56727.jpg,2430664847-345753.jpg,A3SFP9VSFJY2YW_2022-12-12_12h07.08.411.csv
423,1.0,right,left,0.0,1.563,0.0,3.0,3.0,3.0,1.0,2446760483-49429.jpg,2331570830-189984.jpg,A3SFP9VSFJY2YW_2022-12-12_12h07.08.411.csv
424,2.0,left,right,0.0,1.5056,0.0,4.0,4.0,4.0,1.0,2579432576-279079.jpg,2446760226-272006.jpg,A3SFP9VSFJY2YW_2022-12-12_12h07.08.411.csv
425,2.0,right,right,1.0,1.4313,0.0,5.0,5.0,5.0,1.0,2862686459-136888.jpg,2238516618-25604.jpg,A3SFP9VSFJY2YW_2022-12-12_12h07.08.411.csv
426,1.0,right,right,1.0,1.9893,0.0,6.0,6.0,6.0,1.0,2825712309-134957.jpg,2238521193-26286.jpg,A3SFP9VSFJY2YW_2022-12-12_12h07.08.411.csv
427,2.0,left,left,1.0,2.8224,0.0,7.0,7.0,7.0,1.0,2898624426-291546.jpg,2549106844-127878.jpg,A3SFP9VSFJY2YW_2022-12-12_12h07.08.411.csv
428,1.0,right,right,1.0,1.4718,0.0,8.0,8.0,8.0,1.0,2874316384-140749.jpg,2864909447-362146.jpg,A3SFP9VSFJY2YW_2022-12-12_12h07.08.411.csv
429,3.0,left,left,1.0,1.3592,0.0,9.0,9.0,9.0,1.0,2238375302-311538.jpg,2460547508-51571.jpg,A3SFP9VSFJY2YW_2022-12-12_12h07.08.411.csv
430,2.0,right,right,1.0,1.7836,0.0,10.0,10.0,10.0,1.0,2449442365-198476.jpg,2898626385-216899.jpg,A3SFP9VSFJY2YW_2022-12-12_12h07.08.411.csv
431,3.0,right,left,0.0,2.2347,0.0,11.0,11.0,11.0,1.0,2452381442-348755.jpg,2238584018-38513.jpg,A3SFP9VSFJY2YW_2022-12-12_12h07.08.411.csv
432,1.0,left,left,1.0,1.1991,0.0,12.0,12.0,12.0,1.0,2964216465-219242.jpg,2592380049-131079.jpg,A3SFP9VSFJY2YW_2022-12-12_12h07.08.411.csv
433,1.0,left,left,1.0,2.8296,0.0,13.0,13.0,13.0,1.0,2964224310-219527.jpg,2238380178-14011.jpg,A3SFP9VSFJY2YW_2022-12-12_12h07.08.411.csv
434,2.0,right,right,1.0,3.0971,0.0,14.0,14.0,14.0,1.0,2238521157-323782.jpg,2964218374-144968.jpg,A3SFP9VSFJY2YW_2022-12-12_12h07.08.411.csv
435,2.0,right,right,1.0,1.5674,0.0,15.0,15.0,15.0,1.0,2449443271-272729.jpg,2238550049-105691.jpg,A3SFP9VSFJY2YW_2022-12-12_12h07.08.411.csv
436,1.0,right,left,0.0,2.2814,0.0,16.0,16.0,16.0,1.0,2238481610-168214.jpg,2449442529-124446.jpg,A3SFP9VSFJY2YW_2022-12-12_12h07.08.411.csv
437,3.0,right,left,0.0,2.5769,0.0,17.0,17.0,17.0,1.0,2417207297-342139.jpg,2981231446-294731.jpg,A3SFP9VSFJY2YW_2022-12-12_12h07.08.411.csv
438,1.0,left,right,0.0,2.6597,0.0,18.0,18.0,18.0,1.0,2864906345-212360.jpg,2986397365-221133.jpg,A3SFP9VSFJY2YW_2022-12-12_12h07.08.411.csv
439,2.0,right,left,0.0,4.2792,0.0,19.0,19.0,19.0,1.0,2238470979-92615.jpg,2986400320-221190.jpg,A3SFP9VSFJY2YW_2022-12-12_12h07.08.411.csv
440,2.0,right,right,1.0,2.0714,0.0,20.0,20.0,20.0,1.0,2238470079-92499.jpg,2460547467-349421.jpg,A3SFP9VSFJY2YW_2022-12-12_12h07.08.411.csv
441,3.0,left,right,0.0,1.4385,0.0,21.0,21.0,21.0,1.0,2238496457-319749.jpg,2460547467-349422.jpg,A3SFP9VSFJY2YW_2022-12-12_12h07.08.411.csv
442,1.0,left,left,1.0,1.9437,0.0,22.0,22.0,22.0,1.0,2446760524-123999.jpg,2446760621-272102.jpg,A3SFP9VSFJY2YW_2022-12-12_12h07.08.411.csv
443,1.0,left,right,0.0,3.5549,0.0,23.0,23.0,23.0,1.0,2625337302-355866.jpg,2425492472-343825.jpg,A3SFP9VSFJY2YW_2022-12-12_12h07.08.411.csv
444,3.0,right,left,0.0,3.0844,0.0,24.0,24.0,24.0,1.0,2238479903-19596.jpg,2238480434-93829.jpg,A3SFP9VSFJY2YW_2022-12-12_12h07.08.411.csv
445,1.0,left,left,1.0,2.2052,0.0,25.0,25.0,25.0,1.0,2238575092-334269.jpg,2592380285-205564.jpg,A3SFP9VSFJY2YW_2022-12-12_12h07.08.411.csv
446,1.0,right,right,1.0,3.2766,0.0,26.0,26.0,26.0,1.0,2898633421-291973.jpg,2446758985-197609.jpg,A3SFP9VSFJY2YW_2022-12-12_12h07.08.411.csv
447,1.0,right,right,1.0,1.9429,0.0,27.0,27.0,27.0,1.0,2868470456-287597.jpg,2868485396-288511.jpg,A3SFP9VSFJY2YW_2022-12-12_12h07.08.411.csv
448,1.0,left,left,1.0,1.5825,0.0,28.0,28.0,28.0,1.0,2238126735-154721.jpg,2856919327-359676.jpg,A3SFP9VSFJY2YW_2022-12-12_12h07.08.411.csv
449,1.0,right,right,1.0,1.3696,0.0,29.0,29.0,29.0,1.0,2238570526-257884.jpg,2274829821-263682.jpg,A3SFP9VSFJY2YW_2022-12-12_12h07.08.411.csv
450,3.0,right,right,1.0,4.2632,0.0,30.0,30.0,30.0,1.0,2883273443-68192.jpg,2994405328-74628.jpg,A3SFP9VSFJY2YW_2022-12-12_12h07.08.411.csv
451,3.0,left,left,1.0,2.3199,0.0,31.0,31.0,31.0,1.0,2898632385-217138.jpg,2460547992-349586.jpg,A3SFP9VSFJY2YW_2022-12-12_12h07.08.411.csv
452,2.0,right,right,1.0,4.0454,0.0,32.0,32.0,32.0,1.0,2592379781-279345.jpg,2452380166-273109.jpg,A3SFP9VSFJY2YW_2022-12-12_12h07.08.411.csv
453,1.0,left,left,1.0,1.3498,0.0,33.0,33.0,33.0,1.0,2898633480-217190.jpg,2446760147-347245.jpg,A3SFP9VSFJY2YW_2022-12-12_12h07.08.411.csv
454,1.0,right,right,1.0,2.6465,0.0,34.0,34.0,34.0,1.0,2238482920-168428.jpg,2575964140-205050.jpg,A3SFP9VSFJY2YW_2022-12-12_12h07.08.411.csv
455,3.0,right,left,0.0,2.5382,0.0,35.0,35.0,35.0,1.0,2989721347-371917.jpg,2964213381-294061.jpg,A3SFP9VSFJY2YW_2022-12-12_12h07.08.411.csv
456,3.0,left,right,0.0,4.9275,0.0,36.0,36.0,36.0,1.0,2883255450-215309.jpg,2238562336-256366.jpg,A3SFP9VSFJY2YW_2022-12-12_12h07.08.411.csv
457,3.0,left,left,1.0,1.6583,0.0,37.0,37.0,37.0,1.0,2901939379-143479.jpg,2864909422-362141.jpg,A3SFP9VSFJY2YW_2022-12-12_12h07.08.411.csv
458,2.0,left,left,1.0,1.6888,0.0,38.0,38.0,38.0,1.0,2238584869-113153.jpg,2981241419-145844.jpg,A3SFP9VSFJY2YW_2022-12-12_12h07.08.411.csv
459,3.0,right,left,0.0,2.2174,0.0,39.0,39.0,39.0,1.0,2446760692-347392.jpg,2446760940-198145.jpg,A3SFP9VSFJY2YW_2022-12-12_12h07.08.411.csv
460,2.0,right,right,1.0,1.7064,0.0,40.0,40.0,40.0,1.0,2238468265-166556.jpg,2446759803-49249.jpg,A3SFP9VSFJY2YW_2022-12-12_12h07.08.411.csv
461,1.0,left,right,0.0,1.672,0.0,41.0,41.0,41.0,1.0,2238561223-33794.jpg,2238506233-23904.jpg,A3SFP9VSFJY2YW_2022-12-12_12h07.08.411.csv
462,2.0,left,left,1.0,2.4584,0.0,42.0,42.0,42.0,1.0,2898617468-68274.jpg,2238585512-336576.jpg,A3SFP9VSFJY2YW_2022-12-12_12h07.08.411.csv
463,2.0,right,right,1.0,2.0837,0.0,43.0,43.0,43.0,1.0,2898618444-142233.jpg,2238129579-80916.jpg,A3SFP9VSFJY2YW_2022-12-12_12h07.08.411.csv
464,1.0,left,left,1.0,1.814,0.0,44.0,44.0,44.0,1.0,2898632385-217137.jpg,2238360884-87525.jpg,A3SFP9VSFJY2YW_2022-12-12_12h07.08.411.csv
465,2.0,right,right,1.0,4.5036,0.0,45.0,45.0,45.0,1.0,2575121890-204630.jpg,2883254439-140940.jpg,A3SFP9VSFJY2YW_2022-12-12_12h07.08.411.csv
466,3.0,left,left,1.0,5.7974,0.0,46.0,46.0,46.0,1.0,2883255450-215311.jpg,2575964014-130589.jpg,A3SFP9VSFJY2YW_2022-12-12_12h07.08.411.csv
467,1.0,right,right,1.0,4.0817,0.0,47.0,47.0,47.0,1.0,2238216693-10721.jpg,2868475410-213219.jpg,A3SFP9VSFJY2YW_2022-12-12_12h07.08.411.csv
468,3.0,left,left,1.0,1.5536,0.0,48.0,48.0,48.0,1.0,2883272438-68133.jpg,2592380136-279476.jpg,A3SFP9VSFJY2YW_2022-12-12_12h07.08.411.csv
469,3.0,left,left,1.0,1.6024,0.0,49.0,49.0,49.0,1.0,2862691449-137104.jpg,2238328478-11678.jpg,A3SFP9VSFJY2YW_2022-12-12_12h07.08.411.csv
470,2.0,left,left,1.0,1.5912,0.0,50.0,50.0,50.0,1.0,2238429999-90218.jpg,2901951459-144433.jpg,A3SFP9VSFJY2YW_2022-12-12_12h07.08.411.csv
471,3.0,right,left,0.0,2.4172,0.0,51.0,51.0,51.0,1.0,2989724308-73930.jpg,2964213381-294060.jpg,A3SFP9VSFJY2YW_2022-12-12_12h07.08.411.csv
472,3.0,left,left,1.0,2.1804,0.0,52.0,52.0,52.0,1.0,2901941426-292805.jpg,2901945303-70125.jpg,A3SFP9VSFJY2YW_2022-12-12_12h07.08.411.csv
473,2.0,left,left,1.0,1.3862,0.0,53.0,53.0,53.0,1.0,2898635427-367120.jpg,2237941457-301342.jpg,A3SFP9VSFJY2YW_2022-12-12_12h07.08.411.csv
474,3.0,left,right,0.0,1.8455,0.0,54.0,54.0,54.0,1.0,2238471391-240918.jpg,2986399339-146857.jpg,A3SFP9VSFJY2YW_2022-12-12_12h07.08.411.csv
475,1.0,left,right,0.0,1.9741,0.0,55.0,55.0,55.0,1.0,2238499155-170911.jpg,2446760621-272103.jpg,A3SFP9VSFJY2YW_2022-12-12_12h07.08.411.csv
476,2.0,right,left,0.0,2.0976,0.0,56.0,56.0,56.0,1.0,2856919327-359675.jpg,2901938432-367627.jpg,A3SFP9VSFJY2YW_2022-12-12_12h07.08.411.csv
477,2.0,left,left,1.0,2.0753,0.0,57.0,57.0,57.0,1.0,2883254439-140941.jpg,2237965109-79314.jpg,A3SFP9VSFJY2YW_2022-12-12_12h07.08.411.csv
478,3.0,right,right,1.0,1.8594,0.0,58.0,58.0,58.0,1.0,2898617396-291219.jpg,2964209380-218956.jpg,A3SFP9VSFJY2YW_2022-12-12_12h07.08.411.csv
479,3.0,left,right,0.0,2.1184,0.0,59.0,59.0,59.0,1.0,2901934573-69337.jpg,2901936407-367476.jpg,A3SFP9VSFJY2YW_2022-12-12_12h07.08.411.csv
480,1.0,left,left,1.0,3.1598,0.0,0.0,0.0,0.0,1.0,2898635427-367120.jpg,2238436632-314069.jpg,A28K46TA74RQH7_2022-12-12_10h21.32.130.csv
481,3.0,right,right,1.0,1.9005,0.0,1.0,1.0,1.0,1.0,2986455373-73646.jpg,2238584869-113153.jpg,A28K46TA74RQH7_2022-12-12_10h21.32.130.csv
482,2.0,left,right,0.0,2.0176,0.0,2.0,2.0,2.0,1.0,2452380166-273109.jpg,2592379781-279345.jpg,A28K46TA74RQH7_2022-12-12_10h21.32.130.csv
483,1.0,left,left,1.0,1.8077,0.0,3.0,3.0,3.0,1.0,2964213381-294061.jpg,2238433340-164524.jpg,A28K46TA74RQH7_2022-12-12_10h21.32.130.csv
484,3.0,left,left,1.0,3.0163,0.0,4.0,4.0,4.0,1.0,2964224310-219527.jpg,2238490590-169598.jpg,A28K46TA74RQH7_2022-12-12_10h21.32.130.csv
485,3.0,left,left,1.0,2.6019,0.0,5.0,5.0,5.0,1.0,2238429999-90218.jpg,2964222378-71332.jpg,A28K46TA74RQH7_2022-12-12_10h21.32.130.csv
486,2.0,left,left,1.0,1.4363,0.0,6.0,6.0,6.0,1.0,2625337302-355866.jpg,2238478760-167789.jpg,A28K46TA74RQH7_2022-12-12_10h21.32.130.csv
487,1.0,right,right,1.0,4.1573,0.0,7.0,7.0,7.0,1.0,2986450330-221526.jpg,2981231446-294731.jpg,A28K46TA74RQH7_2022-12-12_10h21.32.130.csv
488,3.0,left,left,1.0,3.1151,0.0,8.0,8.0,8.0,1.0,2898624426-291546.jpg,2864902304-137862.jpg,A28K46TA74RQH7_2022-12-12_10h21.32.130.csv
489,2.0,right,right,1.0,4.1066,0.0,9.0,9.0,9.0,1.0,2273188118-40829.jpg,2898632385-217138.jpg,A28K46TA74RQH7_2022-12-12_10h21.32.130.csv
490,3.0,left,left,1.0,2.3161,0.0,10.0,10.0,10.0,1.0,2446759803-49249.jpg,2238498786-244797.jpg,A28K46TA74RQH7_2022-12-12_10h21.32.130.csv
491,3.0,right,left,0.0,3.1189,0.0,11.0,11.0,11.0,1.0,2856916345-210056.jpg,2986408352-371293.jpg,A28K46TA74RQH7_2022-12-12_10h21.32.130.csv
492,3.0,right,right,1.0,1.5528,0.0,12.0,12.0,12.0,1.0,2994403305-222559.jpg,2864906345-212360.jpg,A28K46TA74RQH7_2022-12-12_10h21.32.130.csv
493,2.0,left,left,1.0,2.3264,0.0,13.0,13.0,13.0,1.0,2994405328-74628.jpg,2825702353-60662.jpg,A28K46TA74RQH7_2022-12-12_10h21.32.130.csv
494,1.0,right,right,1.0,1.775,0.0,14.0,14.0,14.0,1.0,2986450334-147215.jpg,2901939379-143479.jpg,A28K46TA74RQH7_2022-12-12_10h21.32.130.csv
495,1.0,right,left,0.0,2.6364,0.0,15.0,15.0,15.0,1.0,2446760483-49429.jpg,2331570830-189984.jpg,A28K46TA74RQH7_2022-12-12_10h21.32.130.csv
496,1.0,left,left,1.0,1.9987,0.0,16.0,16.0,16.0,1.0,2898626385-216899.jpg,2989715328-73658.jpg,A28K46TA74RQH7_2022-12-12_10h21.32.130.csv
497,2.0,right,left,0.0,2.1095,0.0,17.0,17.0,17.0,1.0,2575122854-130480.jpg,2238126735-154721.jpg,A28K46TA74RQH7_2022-12-12_10h21.32.130.csv
498,3.0,left,left,1.0,1.4604,0.0,18.0,18.0,18.0,1.0,2238550049-105691.jpg,2964219468-71238.jpg,A28K46TA74RQH7_2022-12-12_10h21.32.130.csv
499,1.0,right,right,1.0,1.2615,0.0,19.0,19.0,19.0,1.0,2238570142-333223.jpg,2238496457-319749.jpg,A28K46TA74RQH7_2022-12-12_10h21.32.130.csv
500,1.0,left,left,1.0,1.4678,0.0,20.0,20.0,20.0,1.0,2592380138-56727.jpg,2986419351-296471.jpg,A28K46TA74RQH7_2022-12-12_10h21.32.130.csv
501,2.0,right,right,1.0,1.5635,0.0,21.0,21.0,21.0,1.0,2898618444-142233.jpg,2238129579-80916.jpg,A28K46TA74RQH7_2022-12-12_10h21.32.130.csv
502,3.0,left,right,0.0,1.5567,0.0,22.0,22.0,22.0,1.0,2868475410-213219.jpg,2238436851-238821.jpg,A28K46TA74RQH7_2022-12-12_10h21.32.130.csv
503,3.0,right,right,1.0,1.3528,0.0,23.0,23.0,23.0,1.0,2452381442-348755.jpg,2238584018-38513.jpg,A28K46TA74RQH7_2022-12-12_10h21.32.130.csv
504,2.0,left,right,0.0,1.2447,0.0,24.0,24.0,24.0,1.0,2446760940-198145.jpg,2592380188-56743.jpg,A28K46TA74RQH7_2022-12-12_10h21.32.130.csv
505,3.0,left,right,0.0,1.3602,0.0,25.0,25.0,25.0,1.0,2986400320-221190.jpg,2238538133-29662.jpg,A28K46TA74RQH7_2022-12-12_10h21.32.130.csv
506,2.0,left,left,1.0,1.3534,0.0,26.0,26.0,26.0,1.0,2446758985-197609.jpg,2635396318-58409.jpg,A28K46TA74RQH7_2022-12-12_10h21.32.130.csv
507,2.0,right,right,1.0,1.5583,0.0,27.0,27.0,27.0,1.0,2446758985-197610.jpg,2274829821-263682.jpg,A28K46TA74RQH7_2022-12-12_10h21.32.130.csv
508,1.0,left,right,0.0,1.3338,0.0,28.0,28.0,28.0,1.0,2883255450-215309.jpg,2238429999-90216.jpg,A28K46TA74RQH7_2022-12-12_10h21.32.130.csv
509,2.0,right,right,1.0,1.2149,0.0,29.0,29.0,29.0,1.0,2238547522-328488.jpg,2575964140-205050.jpg,A28K46TA74RQH7_2022-12-12_10h21.32.130.csv
510,1.0,left,right,0.0,1.2245,0.0,30.0,30.0,30.0,1.0,2238499155-170911.jpg,2446760621-272103.jpg,A28K46TA74RQH7_2022-12-12_10h21.32.130.csv
511,1.0,left,right,0.0,1.2401,0.0,31.0,31.0,31.0,1.0,2901934573-69337.jpg,2986401333-73218.jpg,A28K46TA74RQH7_2022-12-12_10h21.32.130.csv
512,1.0,right,right,1.0,1.0179,0.0,32.0,32.0,32.0,1.0,2238540598-30035.jpg,2862691449-137104.jpg,A28K46TA74RQH7_2022-12-12_10h21.32.130.csv
513,1.0,right,right,1.0,1.0038,0.0,33.0,33.0,33.0,1.0,2804906319-133082.jpg,2238480434-93829.jpg,A28K46TA74RQH7_2022-12-12_10h21.32.130.csv
514,2.0,left,right,0.0,1.0132,0.0,34.0,34.0,34.0,1.0,2238561223-33794.jpg,2592380177-354626.jpg,A28K46TA74RQH7_2022-12-12_10h21.32.130.csv
515,1.0,left,left,1.0,1.6234,0.0,35.0,35.0,35.0,1.0,2964218374-144968.jpg,2238411877-313125.jpg,A28K46TA74RQH7_2022-12-12_10h21.32.130.csv
516,3.0,left,right,0.0,1.2196,0.0,36.0,36.0,36.0,1.0,2883255450-215311.jpg,2575964014-130589.jpg,A28K46TA74RQH7_2022-12-12_10h21.32.130.csv
517,1.0,left,right,0.0,1.2055,0.0,37.0,37.0,37.0,1.0,2883254439-140940.jpg,2452380166-273110.jpg,A28K46TA74RQH7_2022-12-12_10h21.32.130.csv
518,3.0,left,right,0.0,1.2004,0.0,38.0,38.0,38.0,1.0,2449442529-124446.jpg,2864911339-138231.jpg,A28K46TA74RQH7_2022-12-12_10h21.32.130.csv
519,2.0,left,right,0.0,1.443,0.0,39.0,39.0,39.0,1.0,2883272438-68133.jpg,2901936369-143233.jpg,A28K46TA74RQH7_2022-12-12_10h21.32.130.csv
520,2.0,left,right,0.0,1.1265,0.0,40.0,40.0,40.0,1.0,2901941426-292805.jpg,2238510189-98616.jpg,A28K46TA74RQH7_2022-12-12_10h21.32.130.csv
521,2.0,right,right,1.0,1.1114,0.0,41.0,41.0,41.0,1.0,2986450334-147216.jpg,2898633480-217190.jpg,A28K46TA74RQH7_2022-12-12_10h21.32.130.csv
522,3.0,left,left,1.0,1.1197,0.0,42.0,42.0,42.0,1.0,2901938432-367627.jpg,2424122568-45517.jpg,A28K46TA74RQH7_2022-12-12_10h21.32.130.csv
523,3.0,left,right,0.0,1.0091,0.0,43.0,43.0,43.0,1.0,2964213381-294060.jpg,2989724308-73930.jpg,A28K46TA74RQH7_2022-12-12_10h21.32.130.csv
524,2.0,right,left,0.0,0.7833,0.0,44.0,44.0,44.0,1.0,2868472420-213024.jpg,2868485396-288511.jpg,A28K46TA74RQH7_2022-12-12_10h21.32.130.csv
525,1.0,right,right,1.0,0.2296,0.0,45.0,45.0,45.0,1.0,2901934573-69336.jpg,2460547467-349421.jpg,A28K46TA74RQH7_2022-12-12_10h21.32.130.csv
526,2.0,left,left,1.0,0.246,0.0,46.0,46.0,46.0,1.0,2898632385-217137.jpg,2238480803-19739.jpg,A28K46TA74RQH7_2022-12-12_10h21.32.130.csv
527,3.0,left,right,0.0,0.134,0.0,47.0,47.0,47.0,1.0,2238575092-334269.jpg,2964218374-144967.jpg,A28K46TA74RQH7_2022-12-12_10h21.32.130.csv
528,3.0,left,left,1.0,0.1198,0.0,48.0,48.0,48.0,1.0,2964216465-219242.jpg,2446760917-347439.jpg,A28K46TA74RQH7_2022-12-12_10h21.32.130.csv
529,2.0,left,right,0.0,0.129,0.0,49.0,49.0,49.0,1.0,2883254439-140941.jpg,2237965109-79314.jpg,A28K46TA74RQH7_2022-12-12_10h21.32.130.csv
530,1.0,right,right,1.0,0.1303,0.0,50.0,50.0,50.0,1.0,2874316384-140749.jpg,2864909447-362146.jpg,A28K46TA74RQH7_2022-12-12_10h21.32.130.csv
531,1.0,right,left,0.0,0.0096,0.0,51.0,51.0,51.0,1.0,2825712309-134957.jpg,2238521193-26286.jpg,A28K46TA74RQH7_2022-12-12_10h21.32.130.csv
532,2.0,right,right,1.0,0.0103,0.0,52.0,52.0,52.0,1.0,2898636443-69154.jpg,2512876023-52283.jpg,A28K46TA74RQH7_2022-12-12_10h21.32.130.csv
533,1.0,left,left,1.0,0.1283,0.0,53.0,53.0,53.0,1.0,2898617468-68274.jpg,2512875899-126682.jpg,A28K46TA74RQH7_2022-12-12_10h21.32.130.csv
534,2.0,left,right,0.0,0.0098,0.0,54.0,54.0,54.0,1.0,2579432576-279079.jpg,2446760226-272006.jpg,A28K46TA74RQH7_2022-12-12_10h21.32.130.csv
535,1.0,right,left,0.0,0.1184,0.0,55.0,55.0,55.0,1.0,2868470400-212889.jpg,2238471391-240918.jpg,A28K46TA74RQH7_2022-12-12_10h21.32.130.csv
536,2.0,right,right,1.0,0.1245,0.0,56.0,56.0,56.0,1.0,2862686459-136888.jpg,2238516618-25604.jpg,A28K46TA74RQH7_2022-12-12_10h21.32.130.csv
537,3.0,left,left,1.0,0.0097,0.0,57.0,57.0,57.0,1.0,2964209380-218956.jpg,2898617396-291219.jpg,A28K46TA74RQH7_2022-12-12_10h21.32.130.csv
538,3.0,right,right,1.0,0.1196,0.0,58.0,58.0,58.0,1.0,2238539138-29878.jpg,2446760524-123999.jpg,A28K46TA74RQH7_2022-12-12_10h21.32.130.csv
539,3.0,right,left,0.0,0.0103,0.0,59.0,59.0,59.0,1.0,2460547508-51571.jpg,2238375302-311538.jpg,A28K46TA74RQH7_2022-12-12_10h21.32.130.csv
540,1.0,left,left,1.0,1.8852,0.0,0.0,0.0,0.0,1.0,2964218374-144968.jpg,2238411877-313125.jpg,A2WJ1KQW2UBTG6_2022-12-12_10h32.46.517.csv
541,2.0,right,right,1.0,2.0159,0.0,1.0,1.0,1.0,1.0,2575122854-130480.jpg,2238126735-154721.jpg,A2WJ1KQW2UBTG6_2022-12-12_10h32.46.517.csv
542,2.0,left,right,0.0,1.1986,0.0,2.0,2.0,2.0,1.0,2331570830-189984.jpg,2449442529-124445.jpg,A2WJ1KQW2UBTG6_2022-12-12_10h32.46.517.csv
543,2.0,left,left,1.0,1.0798,0.0,3.0,3.0,3.0,1.0,2238375302-311538.jpg,2592380049-131077.jpg,A2WJ1KQW2UBTG6_2022-12-12_10h32.46.517.csv
544,3.0,right,right,1.0,1.1293,0.0,4.0,4.0,4.0,1.0,2238470979-92618.jpg,2238516618-25604.jpg,A2WJ1KQW2UBTG6_2022-12-12_10h32.46.517.csv
545,3.0,left,left,1.0,1.7526,0.0,5.0,5.0,5.0,1.0,2901934573-69337.jpg,2901936407-367476.jpg,A2WJ1KQW2UBTG6_2022-12-12_10h32.46.517.csv
546,2.0,right,right,1.0,1.6126,0.0,6.0,6.0,6.0,1.0,2868469458-64561.jpg,2449442529-124446.jpg,A2WJ1KQW2UBTG6_2022-12-12_10h32.46.517.csv
547,3.0,left,left,1.0,0.7639,0.0,7.0,7.0,7.0,1.0,2964213381-294061.jpg,2989721347-371917.jpg,A2WJ1KQW2UBTG6_2022-12-12_10h32.46.517.csv
548,2.0,left,left,1.0,0.9334,0.0,8.0,8.0,8.0,1.0,2864906345-212360.jpg,2238087237-303447.jpg,A2WJ1KQW2UBTG6_2022-12-12_10h32.46.517.csv
549,1.0,right,right,1.0,1.0965,0.0,9.0,9.0,9.0,1.0,2238481575-168208.jpg,2883255450-215311.jpg,A2WJ1KQW2UBTG6_2022-12-12_10h32.46.517.csv
550,2.0,left,left,1.0,0.898,0.0,10.0,10.0,10.0,1.0,2446760524-123999.jpg,2238552469-106359.jpg,A2WJ1KQW2UBTG6_2022-12-12_10h32.46.517.csv
551,1.0,left,left,1.0,1.4972,0.0,11.0,11.0,11.0,1.0,2883255450-215309.jpg,2238429999-90216.jpg,A2WJ1KQW2UBTG6_2022-12-12_10h32.46.517.csv
552,2.0,left,left,1.0,0.9976,0.0,12.0,12.0,12.0,1.0,2868485396-288511.jpg,2868472420-213024.jpg,A2WJ1KQW2UBTG6_2022-12-12_10h32.46.517.csv
553,1.0,right,right,1.0,0.9832,0.0,13.0,13.0,13.0,1.0,2575120738-55529.jpg,2898632385-217138.jpg,A2WJ1KQW2UBTG6_2022-12-12_10h32.46.517.csv
554,1.0,left,right,0.0,0.936,0.0,14.0,14.0,14.0,1.0,2579432576-279079.jpg,2901934574-143126.jpg,A2WJ1KQW2UBTG6_2022-12-12_10h32.46.517.csv
555,1.0,right,right,1.0,1.9974,0.0,15.0,15.0,15.0,1.0,2898631359-142720.jpg,2964213381-294060.jpg,A2WJ1KQW2UBTG6_2022-12-12_10h32.46.517.csv
556,3.0,right,right,1.0,1.6569,0.0,16.0,16.0,16.0,1.0,2898618440-216545.jpg,2898626385-216899.jpg,A2WJ1KQW2UBTG6_2022-12-12_10h32.46.517.csv
557,1.0,right,right,1.0,0.997,0.0,17.0,17.0,17.0,1.0,2238482972-317759.jpg,2238550049-105691.jpg,A2WJ1KQW2UBTG6_2022-12-12_10h32.46.517.csv
558,3.0,left,right,0.0,3.3306,0.0,18.0,18.0,18.0,1.0,2238480434-93829.jpg,2238479903-19596.jpg,A2WJ1KQW2UBTG6_2022-12-12_10h32.46.517.csv
559,3.0,left,left,1.0,1.3963,0.0,19.0,19.0,19.0,1.0,2964224310-219527.jpg,2238490590-169598.jpg,A2WJ1KQW2UBTG6_2022-12-12_10h32.46.517.csv
560,2.0,left,left,1.0,1.0861,0.0,20.0,20.0,20.0,1.0,2452380166-273109.jpg,2592379781-279345.jpg,A2WJ1KQW2UBTG6_2022-12-12_10h32.46.517.csv
561,2.0,left,left,1.0,1.1065,0.0,21.0,21.0,21.0,1.0,2446759803-49249.jpg,2238468265-166556.jpg,A2WJ1KQW2UBTG6_2022-12-12_10h32.46.517.csv
562,3.0,left,left,1.0,1.3654,0.0,22.0,22.0,22.0,1.0,2883254439-140940.jpg,2812983311-281946.jpg,A2WJ1KQW2UBTG6_2022-12-12_10h32.46.517.csv
563,3.0,left,left,1.0,0.9741,0.0,23.0,23.0,23.0,1.0,2575964140-205050.jpg,2446760226-272005.jpg,A2WJ1KQW2UBTG6_2022-12-12_10h32.46.517.csv
564,2.0,right,right,1.0,1.2717,0.0,24.0,24.0,24.0,1.0,2592380177-354626.jpg,2238561223-33794.jpg,A2WJ1KQW2UBTG6_2022-12-12_10h32.46.517.csv
565,1.0,right,right,1.0,0.9141,0.0,25.0,25.0,25.0,1.0,2901934573-69336.jpg,2460547467-349421.jpg,A2WJ1KQW2UBTG6_2022-12-12_10h32.46.517.csv
566,1.0,left,left,1.0,0.7855,0.0,26.0,26.0,26.0,1.0,2238584018-38513.jpg,2449443163-50093.jpg,A2WJ1KQW2UBTG6_2022-12-12_10h32.46.517.csv
567,3.0,left,left,1.0,1.9866,0.0,27.0,27.0,27.0,1.0,2238496457-319749.jpg,2460547467-349422.jpg,A2WJ1KQW2UBTG6_2022-12-12_10h32.46.517.csv
568,2.0,left,left,1.0,1.1999,0.0,28.0,28.0,28.0,1.0,2238584869-113153.jpg,2981241419-145844.jpg,A2WJ1KQW2UBTG6_2022-12-12_10h32.46.517.csv
569,3.0,right,right,1.0,0.8987,0.0,29.0,29.0,29.0,1.0,2864904453-63932.jpg,2898632385-217137.jpg,A2WJ1KQW2UBTG6_2022-12-12_10h32.46.517.csv
570,1.0,right,left,0.0,1.3333,0.0,30.0,30.0,30.0,1.0,2868488422-363713.jpg,2986408352-371293.jpg,A2WJ1KQW2UBTG6_2022-12-12_10h32.46.517.csv
571,1.0,left,right,0.0,1.3193,0.0,31.0,31.0,31.0,1.0,2901941426-292805.jpg,2868488422-363715.jpg,A2WJ1KQW2UBTG6_2022-12-12_10h32.46.517.csv
572,3.0,left,left,1.0,1.8854,0.0,32.0,32.0,32.0,1.0,2238471391-240918.jpg,2986399339-146857.jpg,A2WJ1KQW2UBTG6_2022-12-12_10h32.46.517.csv
573,3.0,left,right,0.0,1.1141,0.0,33.0,33.0,33.0,1.0,2446760940-198145.jpg,2446760692-347392.jpg,A2WJ1KQW2UBTG6_2022-12-12_10h32.46.517.csv
574,1.0,right,left,0.0,1.3801,0.0,34.0,34.0,34.0,1.0,2425492472-343825.jpg,2625337302-355866.jpg,A2WJ1KQW2UBTG6_2022-12-12_10h32.46.517.csv
575,2.0,left,left,1.0,0.9809,0.0,35.0,35.0,35.0,1.0,2883254439-140941.jpg,2237965109-79314.jpg,A2WJ1KQW2UBTG6_2022-12-12_10h32.46.517.csv
576,1.0,right,left,0.0,0.6872,0.0,36.0,36.0,36.0,1.0,2446760621-272103.jpg,2238499155-170911.jpg,A2WJ1KQW2UBTG6_2022-12-12_10h32.46.517.csv
577,1.0,left,left,1.0,1.8204,0.0,37.0,37.0,37.0,1.0,2868475410-213219.jpg,2238216693-10721.jpg,A2WJ1KQW2UBTG6_2022-12-12_10h32.46.517.csv
578,1.0,left,left,1.0,1.2131,0.0,38.0,38.0,38.0,1.0,2883272438-68133.jpg,2237949408-4018.jpg,A2WJ1KQW2UBTG6_2022-12-12_10h32.46.517.csv
579,2.0,left,left,1.0,1.7669,0.0,39.0,39.0,39.0,1.0,2274829821-263682.jpg,2446758985-197610.jpg,A2WJ1KQW2UBTG6_2022-12-12_10h32.46.517.csv
580,1.0,left,left,1.0,1.0897,0.0,40.0,40.0,40.0,1.0,2964216465-219242.jpg,2592380049-131079.jpg,A2WJ1KQW2UBTG6_2022-12-12_10h32.46.517.csv
581,1.0,left,left,1.0,0.9553,0.0,41.0,41.0,41.0,1.0,2898633480-217190.jpg,2446760147-347245.jpg,A2WJ1KQW2UBTG6_2022-12-12_10h32.46.517.csv
582,3.0,right,right,1.0,1.1287,0.0,42.0,42.0,42.0,1.0,2883273443-68192.jpg,2994405328-74628.jpg,A2WJ1KQW2UBTG6_2022-12-12_10h32.46.517.csv
583,2.0,right,right,1.0,1.5221,0.0,43.0,43.0,43.0,1.0,2898636443-69154.jpg,2512876023-52283.jpg,A2WJ1KQW2UBTG6_2022-12-12_10h32.46.517.csv
584,2.0,left,left,1.0,1.456,0.0,44.0,44.0,44.0,1.0,2862691449-137104.jpg,2986455341-296758.jpg,A2WJ1KQW2UBTG6_2022-12-12_10h32.46.517.csv
585,1.0,left,left,1.0,1.514,0.0,45.0,45.0,45.0,1.0,2964209380-218956.jpg,2868488456-288710.jpg,A2WJ1KQW2UBTG6_2022-12-12_10h32.46.517.csv
586,2.0,left,left,1.0,0.8236,0.0,46.0,46.0,46.0,1.0,2446758985-197609.jpg,2635396318-58409.jpg,A2WJ1KQW2UBTG6_2022-12-12_10h32.46.517.csv
587,1.0,left,left,1.0,1.6671,0.0,47.0,47.0,47.0,1.0,2898617468-68274.jpg,2512875899-126682.jpg,A2WJ1KQW2UBTG6_2022-12-12_10h32.46.517.csv
588,2.0,left,left,1.0,1.0831,0.0,48.0,48.0,48.0,1.0,2901938432-367627.jpg,2856919327-359675.jpg,A2WJ1KQW2UBTG6_2022-12-12_10h32.46.517.csv
589,2.0,right,right,1.0,0.8801,0.0,49.0,49.0,49.0,1.0,2238555799-106905.jpg,2864909447-362146.jpg,A2WJ1KQW2UBTG6_2022-12-12_10h32.46.517.csv
590,3.0,right,right,1.0,1.2028,0.0,50.0,50.0,50.0,1.0,2417207297-342139.jpg,2981231446-294731.jpg,A2WJ1KQW2UBTG6_2022-12-12_10h32.46.517.csv
591,2.0,right,right,1.0,0.7971,0.0,51.0,51.0,51.0,1.0,2549106844-127878.jpg,2898624426-291546.jpg,A2WJ1KQW2UBTG6_2022-12-12_10h32.46.517.csv
592,3.0,right,right,1.0,0.9141,0.0,52.0,52.0,52.0,1.0,2901936309-143207.jpg,2898635427-367120.jpg,A2WJ1KQW2UBTG6_2022-12-12_10h32.46.517.csv
593,3.0,left,left,1.0,0.6972,0.0,53.0,53.0,53.0,1.0,2238129579-80916.jpg,2238161924-82646.jpg,A2WJ1KQW2UBTG6_2022-12-12_10h32.46.517.csv
594,2.0,left,left,1.0,0.9328,0.0,54.0,54.0,54.0,1.0,2986400320-221190.jpg,2238470979-92615.jpg,A2WJ1KQW2UBTG6_2022-12-12_10h32.46.517.csv
595,3.0,right,right,1.0,1.0661,0.0,55.0,55.0,55.0,1.0,2446760306-272024.jpg,2238521193-26286.jpg,A2WJ1KQW2UBTG6_2022-12-12_10h32.46.517.csv
596,3.0,right,right,1.0,1.5229,0.0,56.0,56.0,56.0,1.0,2864909422-362141.jpg,2901939379-143479.jpg,A2WJ1KQW2UBTG6_2022-12-12_10h32.46.517.csv
597,3.0,right,left,0.0,1.2226,0.0,57.0,57.0,57.0,1.0,2238537701-251772.jpg,2592380138-56727.jpg,A2WJ1KQW2UBTG6_2022-12-12_10h32.46.517.csv
598,1.0,left,left,1.0,0.9633,0.0,58.0,58.0,58.0,1.0,2238575092-334269.jpg,2592380285-205564.jpg,A2WJ1KQW2UBTG6_2022-12-12_10h32.46.517.csv
599,3.0,right,right,1.0,1.7846,0.0,59.0,59.0,59.0,1.0,2964222378-71332.jpg,2238429999-90218.jpg,A2WJ1KQW2UBTG6_2022-12-12_10h32.46.517.csv
600,2.0,left,left,1.0,2.4607,0.0,0.0,0.0,0.0,1.0,2901934573-69337.jpg,2238345946-235007.jpg,A2IQ0QCTQ3KWLT_2022-12-12_10h46.52.230.csv
601,2.0,right,right,1.0,0.791,0.0,1.0,1.0,1.0,1.0,2592380177-354626.jpg,2238561223-33794.jpg,A2IQ0QCTQ3KWLT_2022-12-12_10h46.52.230.csv
602,1.0,right,right,1.0,1.4088,0.0,2.0,2.0,2.0,1.0,2898633421-291973.jpg,2446758985-197609.jpg,A2IQ0QCTQ3KWLT_2022-12-12_10h46.52.230.csv
603,1.0,left,left,1.0,1.4068,0.0,3.0,3.0,3.0,1.0,2964218374-144968.jpg,2238411877-313125.jpg,A2IQ0QCTQ3KWLT_2022-12-12_10h46.52.230.csv
604,2.0,right,right,1.0,1.3951,0.0,4.0,4.0,4.0,1.0,2238568685-183597.jpg,2981231446-294731.jpg,A2IQ0QCTQ3KWLT_2022-12-12_10h46.52.230.csv
605,2.0,right,left,0.0,1.4338,0.0,5.0,5.0,5.0,1.0,2592380234-131135.jpg,2238496457-319749.jpg,A2IQ0QCTQ3KWLT_2022-12-12_10h46.52.230.csv
606,2.0,right,right,1.0,0.9003,0.0,6.0,6.0,6.0,1.0,2273188118-40829.jpg,2898632385-217138.jpg,A2IQ0QCTQ3KWLT_2022-12-12_10h46.52.230.csv
607,1.0,right,right,1.0,1.2524,0.0,7.0,7.0,7.0,1.0,2825712309-134957.jpg,2238521193-26286.jpg,A2IQ0QCTQ3KWLT_2022-12-12_10h46.52.230.csv
608,2.0,left,left,1.0,1.3625,0.0,8.0,8.0,8.0,1.0,2898624426-291546.jpg,2549106844-127878.jpg,A2IQ0QCTQ3KWLT_2022-12-12_10h46.52.230.csv
609,3.0,right,right,1.0,2.4098,0.0,9.0,9.0,9.0,1.0,2238436851-238821.jpg,2868475410-213219.jpg,A2IQ0QCTQ3KWLT_2022-12-12_10h46.52.230.csv
610,3.0,right,right,1.0,1.0755,0.0,10.0,10.0,10.0,1.0,2238539138-29878.jpg,2446760524-123999.jpg,A2IQ0QCTQ3KWLT_2022-12-12_10h46.52.230.csv
611,3.0,left,left,1.0,1.1156,0.0,11.0,11.0,11.0,1.0,2986400320-221190.jpg,2238538133-29662.jpg,A2IQ0QCTQ3KWLT_2022-12-12_10h46.52.230.csv
612,3.0,right,right,1.0,1.827,0.0,12.0,12.0,12.0,1.0,2446760917-347439.jpg,2964216465-219242.jpg,A2IQ0QCTQ3KWLT_2022-12-12_10h46.52.230.csv
613,3.0,left,left,1.0,1.3506,0.0,13.0,13.0,13.0,1.0,2238499155-170911.jpg,2238373603-13733.jpg,A2IQ0QCTQ3KWLT_2022-12-12_10h46.52.230.csv
614,1.0,left,left,1.0,1.8404,0.0,14.0,14.0,14.0,1.0,2898626385-216899.jpg,2989715328-73658.jpg,A2IQ0QCTQ3KWLT_2022-12-12_10h46.52.230.csv
615,2.0,right,right,1.0,2.4522,0.0,15.0,15.0,15.0,1.0,2901951459-144433.jpg,2238429999-90218.jpg,A2IQ0QCTQ3KWLT_2022-12-12_10h46.52.230.csv
616,2.0,left,left,1.0,0.837,0.0,16.0,16.0,16.0,1.0,2901939379-143479.jpg,2449443292-348022.jpg,A2IQ0QCTQ3KWLT_2022-12-12_10h46.52.230.csv
617,1.0,right,left,0.0,1.0207,0.0,17.0,17.0,17.0,1.0,2452380166-273110.jpg,2883254439-140940.jpg,A2IQ0QCTQ3KWLT_2022-12-12_10h46.52.230.csv
618,1.0,right,right,1.0,0.7948,0.0,18.0,18.0,18.0,1.0,2238481610-168214.jpg,2449442529-124446.jpg,A2IQ0QCTQ3KWLT_2022-12-12_10h46.52.230.csv
619,3.0,right,right,1.0,1.0486,0.0,19.0,19.0,19.0,1.0,2862687442-360837.jpg,2274829821-263682.jpg,A2IQ0QCTQ3KWLT_2022-12-12_10h46.52.230.csv
620,2.0,left,left,1.0,1.0858,0.0,20.0,20.0,20.0,1.0,2898635427-367120.jpg,2237941457-301342.jpg,A2IQ0QCTQ3KWLT_2022-12-12_10h46.52.230.csv
621,1.0,right,right,1.0,1.4186,0.0,21.0,21.0,21.0,1.0,2868488422-363713.jpg,2986408352-371293.jpg,A2IQ0QCTQ3KWLT_2022-12-12_10h46.52.230.csv
622,3.0,right,right,1.0,1.3651,0.0,22.0,22.0,22.0,1.0,2446760692-347392.jpg,2446760940-198145.jpg,A2IQ0QCTQ3KWLT_2022-12-12_10h46.52.230.csv
623,3.0,right,right,1.0,1.9681,0.0,23.0,23.0,23.0,1.0,2460547508-51571.jpg,2238375302-311538.jpg,A2IQ0QCTQ3KWLT_2022-12-12_10h46.52.230.csv
624,1.0,right,right,1.0,1.3946,0.0,24.0,24.0,24.0,1.0,2864908323-64106.jpg,2512876023-52283.jpg,A2IQ0QCTQ3KWLT_2022-12-12_10h46.52.230.csv
625,2.0,right,right,1.0,0.9509,0.0,25.0,25.0,25.0,1.0,2898633321-291943.jpg,2238584018-38513.jpg,A2IQ0QCTQ3KWLT_2022-12-12_10h46.52.230.csv
626,3.0,left,left,1.0,2.0299,0.0,26.0,26.0,26.0,1.0,2238550049-105691.jpg,2964219468-71238.jpg,A2IQ0QCTQ3KWLT_2022-12-12_10h46.52.230.csv
627,2.0,left,left,1.0,2.1108,0.0,27.0,27.0,27.0,1.0,2898617468-68274.jpg,2238585512-336576.jpg,A2IQ0QCTQ3KWLT_2022-12-12_10h46.52.230.csv
628,1.0,left,left,1.0,1.1319,0.0,28.0,28.0,28.0,1.0,2964213381-294061.jpg,2238433340-164524.jpg,A2IQ0QCTQ3KWLT_2022-12-12_10h46.52.230.csv
629,2.0,left,left,1.0,1.3517,0.0,29.0,29.0,29.0,1.0,2579432576-279079.jpg,2446760226-272006.jpg,A2IQ0QCTQ3KWLT_2022-12-12_10h46.52.230.csv
630,3.0,right,right,1.0,1.6551,0.0,30.0,30.0,30.0,1.0,2874303453-66056.jpg,2864909447-362146.jpg,A2IQ0QCTQ3KWLT_2022-12-12_10h46.52.230.csv
631,1.0,left,left,1.0,1.275,0.0,31.0,31.0,31.0,1.0,2331570830-189984.jpg,2446760483-49429.jpg,A2IQ0QCTQ3KWLT_2022-12-12_10h46.52.230.csv
632,3.0,left,left,1.0,1.7016,0.0,32.0,32.0,32.0,1.0,2238126735-154721.jpg,2901951430-218724.jpg,A2IQ0QCTQ3KWLT_2022-12-12_10h46.52.230.csv
633,1.0,left,left,1.0,1.9877,0.0,33.0,33.0,33.0,1.0,2238516618-25604.jpg,2238573549-110485.jpg,A2IQ0QCTQ3KWLT_2022-12-12_10h46.52.230.csv
634,3.0,left,left,1.0,1.3067,0.0,34.0,34.0,34.0,1.0,2446759803-49249.jpg,2238498786-244797.jpg,A2IQ0QCTQ3KWLT_2022-12-12_10h46.52.230.csv
635,1.0,right,right,1.0,1.1705,0.0,35.0,35.0,35.0,1.0,2425492472-343825.jpg,2625337302-355866.jpg,A2IQ0QCTQ3KWLT_2022-12-12_10h46.52.230.csv
636,2.0,right,right,1.0,1.1054,0.0,36.0,36.0,36.0,1.0,2238520921-248323.jpg,2964213381-294060.jpg,A2IQ0QCTQ3KWLT_2022-12-12_10h46.52.230.csv
637,1.0,right,right,1.0,0.8861,0.0,37.0,37.0,37.0,1.0,2986419351-296471.jpg,2592380138-56727.jpg,A2IQ0QCTQ3KWLT_2022-12-12_10h46.52.230.csv
638,3.0,left,left,1.0,2.16,0.0,38.0,38.0,38.0,1.0,2883255450-215311.jpg,2575964014-130589.jpg,A2IQ0QCTQ3KWLT_2022-12-12_10h46.52.230.csv
639,3.0,left,left,1.0,1.1845,0.0,39.0,39.0,39.0,1.0,2238471391-240918.jpg,2986399339-146857.jpg,A2IQ0QCTQ3KWLT_2022-12-12_10h46.52.230.csv
640,1.0,right,right,1.0,1.3794,0.0,40.0,40.0,40.0,1.0,2986397365-221133.jpg,2864906345-212360.jpg,A2IQ0QCTQ3KWLT_2022-12-12_10h46.52.230.csv
641,2.0,left,left,1.0,1.164,0.0,41.0,41.0,41.0,1.0,2238480434-93829.jpg,2592380255-205551.jpg,A2IQ0QCTQ3KWLT_2022-12-12_10h46.52.230.csv
642,3.0,right,right,1.0,1.2986,0.0,42.0,42.0,42.0,1.0,2238328478-11678.jpg,2862691449-137104.jpg,A2IQ0QCTQ3KWLT_2022-12-12_10h46.52.230.csv
643,2.0,left,left,1.0,1.1518,0.0,43.0,43.0,43.0,1.0,2575964140-205050.jpg,2238547522-328488.jpg,A2IQ0QCTQ3KWLT_2022-12-12_10h46.52.230.csv
644,2.0,left,left,1.0,0.7456,0.0,44.0,44.0,44.0,1.0,2238575092-334269.jpg,2860304305-210777.jpg,A2IQ0QCTQ3KWLT_2022-12-12_10h46.52.230.csv
645,2.0,right,right,1.0,1.3514,0.0,45.0,45.0,45.0,1.0,2901936369-143233.jpg,2883272438-68133.jpg,A2IQ0QCTQ3KWLT_2022-12-12_10h46.52.230.csv
646,3.0,right,right,1.0,1.0828,0.0,46.0,46.0,46.0,1.0,2238380901-236499.jpg,2452380166-273109.jpg,A2IQ0QCTQ3KWLT_2022-12-12_10h46.52.230.csv
647,1.0,left,left,1.0,1.5262,0.0,47.0,47.0,47.0,1.0,2964224310-219527.jpg,2238380178-14011.jpg,A2IQ0QCTQ3KWLT_2022-12-12_10h46.52.230.csv
648,3.0,right,right,1.0,3.1353,0.0,48.0,48.0,48.0,1.0,2237858043-1434.jpg,2898633480-217190.jpg,A2IQ0QCTQ3KWLT_2022-12-12_10h46.52.230.csv
649,1.0,right,right,1.0,1.0344,0.0,49.0,49.0,49.0,1.0,2864901420-212147.jpg,2238584869-113153.jpg,A2IQ0QCTQ3KWLT_2022-12-12_10h46.52.230.csv
650,1.0,right,right,1.0,1.225,0.0,50.0,50.0,50.0,1.0,2901934573-69336.jpg,2460547467-349421.jpg,A2IQ0QCTQ3KWLT_2022-12-12_10h46.52.230.csv
651,1.0,right,right,1.0,1.2873,0.0,51.0,51.0,51.0,1.0,2868488422-363715.jpg,2901941426-292805.jpg,A2IQ0QCTQ3KWLT_2022-12-12_10h46.52.230.csv
652,1.0,right,right,1.0,0.7686,0.0,52.0,52.0,52.0,1.0,2460547477-349426.jpg,2238129579-80916.jpg,A2IQ0QCTQ3KWLT_2022-12-12_10h46.52.230.csv
653,2.0,right,right,1.0,1.2256,0.0,53.0,53.0,53.0,1.0,2825702353-60662.jpg,2994405328-74628.jpg,A2IQ0QCTQ3KWLT_2022-12-12_10h46.52.230.csv
654,1.0,right,left,0.0,2.4705,0.0,54.0,54.0,54.0,1.0,2868488456-288710.jpg,2964209380-218956.jpg,A2IQ0QCTQ3KWLT_2022-12-12_10h46.52.230.csv
655,2.0,left,left,1.0,1.1364,0.0,55.0,55.0,55.0,1.0,2883254439-140941.jpg,2237965109-79314.jpg,A2IQ0QCTQ3KWLT_2022-12-12_10h46.52.230.csv
656,3.0,left,left,1.0,1.4037,0.0,56.0,56.0,56.0,1.0,2901938432-367627.jpg,2424122568-45517.jpg,A2IQ0QCTQ3KWLT_2022-12-12_10h46.52.230.csv
657,2.0,right,right,1.0,1.3222,0.0,57.0,57.0,57.0,1.0,2868472420-213024.jpg,2868485396-288511.jpg,A2IQ0QCTQ3KWLT_2022-12-12_10h46.52.230.csv
658,3.0,right,right,1.0,1.0409,0.0,58.0,58.0,58.0,1.0,2864904453-63932.jpg,2898632385-217137.jpg,A2IQ0QCTQ3KWLT_2022-12-12_10h46.52.230.csv
659,3.0,right,right,1.0,0.7527,0.0,59.0,59.0,59.0,1.0,2238562336-256366.jpg,2883255450-215309.jpg,A2IQ0QCTQ3KWLT_2022-12-12_10h46.52.230.csv
660,2.0,right,right,1.0,1.89,0.0,0.0,0.0,0.0,1.0,2986455341-296758.jpg,2862691449-137104.jpg,A26M997VYVK0E6_2022-12-12_07h10.50.382.csv
661,3.0,right,right,1.0,2.317,0.0,1.0,1.0,1.0,1.0,2238498786-244797.jpg,2446759803-49249.jpg,A26M997VYVK0E6_2022-12-12_07h10.50.382.csv
662,3.0,right,left,0.0,3.457,0.0,2.0,2.0,2.0,1.0,2901945303-70125.jpg,2901941426-292805.jpg,A26M997VYVK0E6_2022-12-12_07h10.50.382.csv
663,3.0,left,left,1.0,1.471,0.0,3.0,3.0,3.0,1.0,2883255450-215311.jpg,2575964014-130589.jpg,A26M997VYVK0E6_2022-12-12_07h10.50.382.csv
664,1.0,left,left,1.0,3.325,0.0,4.0,4.0,4.0,1.0,2883255450-215309.jpg,2238429999-90216.jpg,A26M997VYVK0E6_2022-12-12_07h10.50.382.csv
665,3.0,right,left,0.0,1.593,0.0,5.0,5.0,5.0,1.0,2898618440-216545.jpg,2898626385-216899.jpg,A26M997VYVK0E6_2022-12-12_07h10.50.382.csv
666,2.0,left,right,0.0,1.351,0.0,6.0,6.0,6.0,1.0,2238496457-319749.jpg,2592380234-131135.jpg,A26M997VYVK0E6_2022-12-12_07h10.50.382.csv
667,3.0,right,left,0.0,1.833,0.0,7.0,7.0,7.0,1.0,2986455373-73646.jpg,2238584869-113153.jpg,A26M997VYVK0E6_2022-12-12_07h10.50.382.csv
668,1.0,right,right,1.0,1.908,0.0,8.0,8.0,8.0,1.0,2986448334-147157.jpg,2238429999-90218.jpg,A26M997VYVK0E6_2022-12-12_07h10.50.382.csv
669,2.0,left,left,1.0,0.999,0.0,9.0,9.0,9.0,1.0,2238480434-93829.jpg,2592380255-205551.jpg,A26M997VYVK0E6_2022-12-12_07h10.50.382.csv
670,1.0,left,right,0.0,2.208,0.0,10.0,10.0,10.0,1.0,2964213381-294060.jpg,2898631359-142720.jpg,A26M997VYVK0E6_2022-12-12_07h10.50.382.csv
671,3.0,left,right,0.0,1.285,0.0,11.0,11.0,11.0,1.0,2238516618-25604.jpg,2238470979-92618.jpg,A26M997VYVK0E6_2022-12-12_07h10.50.382.csv
672,1.0,right,right,1.0,1.209,0.0,12.0,12.0,12.0,1.0,2986450330-221526.jpg,2981231446-294731.jpg,A26M997VYVK0E6_2022-12-12_07h10.50.382.csv
673,3.0,right,right,1.0,1.466,0.0,13.0,13.0,13.0,1.0,2812983311-281946.jpg,2883254439-140940.jpg,A26M997VYVK0E6_2022-12-12_07h10.50.382.csv
674,1.0,left,right,0.0,2.588,0.0,14.0,14.0,14.0,1.0,2964213381-294061.jpg,2238433340-164524.jpg,A26M997VYVK0E6_2022-12-12_07h10.50.382.csv
675,3.0,right,left,0.0,1.329,0.0,15.0,15.0,15.0,1.0,2460547508-51571.jpg,2238375302-311538.jpg,A26M997VYVK0E6_2022-12-12_07h10.50.382.csv
676,1.0,left,left,1.0,1.231,0.0,16.0,16.0,16.0,1.0,2964218374-144968.jpg,2238411877-313125.jpg,A26M997VYVK0E6_2022-12-12_07h10.50.382.csv
677,1.0,left,right,0.0,2.385,0.0,17.0,17.0,17.0,1.0,2446758985-197609.jpg,2898633421-291973.jpg,A26M997VYVK0E6_2022-12-12_07h10.50.382.csv
678,1.0,right,right,1.0,1.463,0.0,18.0,18.0,18.0,1.0,2446760147-347245.jpg,2898633480-217190.jpg,A26M997VYVK0E6_2022-12-12_07h10.50.382.csv
679,3.0,left,left,1.0,1.532,0.0,19.0,19.0,19.0,1.0,2964216465-219242.jpg,2446760917-347439.jpg,A26M997VYVK0E6_2022-12-12_07h10.50.382.csv
680,2.0,left,right,0.0,2.55,0.0,20.0,20.0,20.0,1.0,2883272438-68133.jpg,2901936369-143233.jpg,A26M997VYVK0E6_2022-12-12_07h10.50.382.csv
681,3.0,right,left,0.0,1.028,0.0,21.0,21.0,21.0,1.0,2964218374-144967.jpg,2238575092-334269.jpg,A26M997VYVK0E6_2022-12-12_07h10.50.382.csv
682,1.0,right,right,1.0,1.407,0.0,22.0,22.0,22.0,1.0,2417206274-118542.jpg,2994405328-74628.jpg,A26M997VYVK0E6_2022-12-12_07h10.50.382.csv
683,3.0,left,right,0.0,2.83,0.0,23.0,23.0,23.0,1.0,2864909447-362146.jpg,2874303453-66056.jpg,A26M997VYVK0E6_2022-12-12_07h10.50.382.csv
684,2.0,right,left,0.0,0.826,0.0,24.0,24.0,24.0,1.0,2449442529-124445.jpg,2331570830-189984.jpg,A26M997VYVK0E6_2022-12-12_07h10.50.382.csv
685,2.0,left,left,1.0,1.544,0.0,25.0,25.0,25.0,1.0,2238129579-80916.jpg,2898618444-142233.jpg,A26M997VYVK0E6_2022-12-12_07h10.50.382.csv
686,1.0,left,left,1.0,1.484,0.0,26.0,26.0,26.0,1.0,2460547467-349421.jpg,2901934573-69336.jpg,A26M997VYVK0E6_2022-12-12_07h10.50.382.csv
687,2.0,right,left,0.0,3.98,0.0,27.0,27.0,27.0,1.0,2238585512-336576.jpg,2898617468-68274.jpg,A26M997VYVK0E6_2022-12-12_07h10.50.382.csv
688,1.0,right,right,1.0,4.551,0.0,28.0,28.0,28.0,1.0,2856919327-359676.jpg,2238126735-154721.jpg,A26M997VYVK0E6_2022-12-12_07h10.50.382.csv
689,2.0,right,right,1.0,1.723,0.0,29.0,29.0,29.0,1.0,2238552469-106359.jpg,2446760524-123999.jpg,A26M997VYVK0E6_2022-12-12_07h10.50.382.csv
690,1.0,left,left,1.0,3.834,0.0,30.0,30.0,30.0,1.0,2868475410-213219.jpg,2238216693-10721.jpg,A26M997VYVK0E6_2022-12-12_07h10.50.382.csv
691,3.0,left,left,1.0,1.13,0.0,31.0,31.0,31.0,1.0,2986400320-221190.jpg,2238538133-29662.jpg,A26M997VYVK0E6_2022-12-12_07h10.50.382.csv
692,3.0,left,right,0.0,1.849,0.0,32.0,32.0,32.0,1.0,2449442529-124446.jpg,2864911339-138231.jpg,A26M997VYVK0E6_2022-12-12_07h10.50.382.csv
693,3.0,left,left,1.0,1.344,0.0,33.0,33.0,33.0,1.0,2864906345-212360.jpg,2994403305-222559.jpg,A26M997VYVK0E6_2022-12-12_07h10.50.382.csv
694,1.0,right,left,0.0,2.42,0.0,34.0,34.0,34.0,1.0,2425492472-343825.jpg,2625337302-355866.jpg,A26M997VYVK0E6_2022-12-12_07h10.50.382.csv
695,3.0,left,left,1.0,1.332,0.0,35.0,35.0,35.0,1.0,2901939379-143479.jpg,2864909422-362141.jpg,A26M997VYVK0E6_2022-12-12_07h10.50.382.csv
696,2.0,left,left,1.0,7.747,0.0,36.0,36.0,36.0,1.0,2238584018-38513.jpg,2898633321-291943.jpg,A26M997VYVK0E6_2022-12-12_07h10.50.382.csv
697,1.0,left,right,0.0,1.969,0.0,37.0,37.0,37.0,1.0,2898635427-367120.jpg,2238436632-314069.jpg,A26M997VYVK0E6_2022-12-12_07h10.50.382.csv
698,1.0,left,left,1.0,1.2,0.0,38.0,38.0,38.0,1.0,2446760940-198145.jpg,2449443300-198739.jpg,A26M997VYVK0E6_2022-12-12_07h10.50.382.csv
699,2.0,right,left,0.0,1.252,0.0,39.0,39.0,39.0,1.0,2237965109-79314.jpg,2883254439-140941.jpg,A26M997VYVK0E6_2022-12-12_07h10.50.382.csv
700,3.0,right,left,0.0,1.334,0.0,40.0,40.0,40.0,1.0,2238490590-169598.jpg,2964224310-219527.jpg,A26M997VYVK0E6_2022-12-12_07h10.50.382.csv
701,1.0,right,left,0.0,1.879,0.0,41.0,41.0,41.0,1.0,2825712309-134957.jpg,2238521193-26286.jpg,A26M997VYVK0E6_2022-12-12_07h10.50.382.csv
702,3.0,left,left,1.0,1.052,0.0,42.0,42.0,42.0,1.0,2986408352-371293.jpg,2856916345-210056.jpg,A26M997VYVK0E6_2022-12-12_07h10.50.382.csv
703,2.0,right,left,0.0,1.136,0.0,43.0,43.0,43.0,1.0,2446758985-197610.jpg,2274829821-263682.jpg,A26M997VYVK0E6_2022-12-12_07h10.50.382.csv
704,2.0,right,right,1.0,1.251,0.0,44.0,44.0,44.0,1.0,2273188118-40829.jpg,2898632385-217138.jpg,A26M997VYVK0E6_2022-12-12_07h10.50.382.csv
705,2.0,left,right,0.0,7.934,0.0,45.0,45.0,45.0,1.0,2238471391-240918.jpg,2901943388-69995.jpg,A26M997VYVK0E6_2022-12-12_07h10.50.382.csv
706,2.0,right,right,1.0,2.833,0.0,46.0,46.0,46.0,1.0,2898631429-142736.jpg,2964209380-218956.jpg,A26M997VYVK0E6_2022-12-12_07h10.50.382.csv
707,1.0,right,left,0.0,1.499,0.0,47.0,47.0,47.0,1.0,2238482920-168428.jpg,2575964140-205050.jpg,A26M997VYVK0E6_2022-12-12_07h10.50.382.csv
708,2.0,left,left,1.0,4.315,0.0,48.0,48.0,48.0,1.0,2868485396-288511.jpg,2868472420-213024.jpg,A26M997VYVK0E6_2022-12-12_07h10.50.382.csv
709,2.0,left,right,0.0,0.901,0.0,49.0,49.0,49.0,1.0,2579432576-279079.jpg,2446760226-272006.jpg,A26M997VYVK0E6_2022-12-12_07h10.50.382.csv
710,3.0,left,left,1.0,1.699,0.0,50.0,50.0,50.0,1.0,2592380138-56727.jpg,2238537701-251772.jpg,A26M997VYVK0E6_2022-12-12_07h10.50.382.csv
711,1.0,right,left,0.0,3.122,0.0,51.0,51.0,51.0,1.0,2238360884-87525.jpg,2898632385-217137.jpg,A26M997VYVK0E6_2022-12-12_07h10.50.382.csv
712,2.0,left,left,1.0,0.982,0.0,52.0,52.0,52.0,1.0,2898624426-291546.jpg,2549106844-127878.jpg,A26M997VYVK0E6_2022-12-12_07h10.50.382.csv
713,2.0,left,right,0.0,1.096,0.0,53.0,53.0,53.0,1.0,2238561223-33794.jpg,2592380177-354626.jpg,A26M997VYVK0E6_2022-12-12_07h10.50.382.csv
714,3.0,left,left,1.0,0.932,0.0,54.0,54.0,54.0,1.0,2238550049-105691.jpg,2964219468-71238.jpg,A26M997VYVK0E6_2022-12-12_07h10.50.382.csv
715,1.0,left,right,0.0,1.834,0.0,55.0,55.0,55.0,1.0,2901934573-69337.jpg,2986401333-73218.jpg,A26M997VYVK0E6_2022-12-12_07h10.50.382.csv
716,2.0,right,right,1.0,1.012,0.0,56.0,56.0,56.0,1.0,2856919327-359675.jpg,2901938432-367627.jpg,A26M997VYVK0E6_2022-12-12_07h10.50.382.csv
717,2.0,right,left,0.0,1.849,0.0,57.0,57.0,57.0,1.0,2452380832-348593.jpg,2238499155-170911.jpg,A26M997VYVK0E6_2022-12-12_07h10.50.382.csv
